SampleTimeFine,Acc_X,Acc_Y,Acc_Z,Gyr_X,Gyr_Y,Gyr_Z
2473927491.0,0.0,0.0,0.0,0.0,0.0,0.0
2473927491.0,,,,-inf,-inf,-inf
2473935824.0,-0.4348658621311188,0.450763463973999,9.912134170532228,-2.578892707824707,-3.292351722717285,-0.2984058558940887
2473944157.0,-0.2406866997480392,0.8910699486732483,9.954411506652832,-2.5507681369781494,-2.600178003311157,-0.0731286406517028
2473952490.0,-0.5676838159561157,0.8891348242759705,9.81691074371338,-2.6323750019073486,-2.1749558448791504,-0.2695386111736297
2473960823.0,-0.8530946373939514,0.8694759607315063,9.757248878479004,-3.014436721801758,-2.175877809524536,-0.3169761300086975
2473969156.0,-1.1052788496017456,0.6551892161369324,9.906999588012695,-3.0029871463775635,-2.37346625328064,-0.1723838001489639
2473977489.0,-1.1796786785125732,1.027268409729004,9.963406562805176,-2.767310619354248,-2.670207023620605,-0.1720764189958572
2473985822.0,-0.9055522084236144,1.4060996770858765,9.801026344299316,-3.004396438598633,-3.211256980895996,-0.3472009897232055
2473994155.0,-0.6477717757225037,1.537625432014465,9.723435401916504,-3.69831132888794,-3.3112287521362305,-0.3237895369529724
2474002488.0,-0.497615247964859,0.9529226422309875,9.938212394714355,-4.347068786621094,-3.196503162384033,-0.3423086404800415
2474010821.0,-0.4388810694217682,0.5989290475845337,10.25859546661377,-4.150403022766113,-2.67960786819458,-0.3841879367828369
2474019154.0,-0.6210013628005981,0.7402187585830688,10.264053344726562,-3.6309974193573,-2.179771423339844,-0.4304472506046295
2474027487.0,-0.9199488759040833,1.0200055837631226,9.907852172851562,-3.795978784561157,-2.02152681350708,-0.4454059600830078
2474035820.0,-1.0687804222106934,0.8756275177001953,9.710110664367676,-4.227322578430176,-2.0955777168273926,-0.5034990310668945
2474044153.0,-1.27081036567688,0.4040825963020324,9.774672508239746,-4.228884220123291,-2.444802045822144,-0.5912790298461914
2474052486.0,-1.2847119569778442,0.2401389628648758,9.885272979736328,-3.961164951324463,-2.813083410263061,-0.4673061370849609
2474060819.0,-1.1334670782089231,0.2192745506763458,9.886375427246094,-3.691754102706909,-3.037617921829224,-0.5403579473495483
2474069152.0,-0.941171646118164,0.2176412940025329,9.85596752166748,-3.4610211849212646,-3.4117650985717773,-0.5539847016334534
2474077485.0,-0.7099443078041077,0.1683009713888168,9.903828620910645,-3.1539835929870605,-3.321475028991699,-0.5330066084861755
2474085818.0,-0.6098122596740723,0.434445321559906,9.888526916503906,-2.9808056354522705,-2.946380138397217,-0.4749391973018646
2474094151.0,-0.7646831274032593,0.6073891520500183,9.793200492858888,-3.155263662338257,-2.329435110092163,-0.3881324827671051
2474102484.0,-1.0347590446472168,0.3809118568897247,9.774652481079102,-3.2568750381469727,-2.194063901901245,-0.3954068720340729
2474110817.0,-1.2606313228607178,0.1402401328086853,9.839231491088867,-3.2419421672821045,-2.3220326900482178,-0.3899767398834228
2474119150.0,-1.325355052947998,0.3539426028728485,9.864468574523926,-2.7613167762756348,-2.930088996887207,-0.2500717639923095
2474127483.0,-1.1243631839752195,0.9247362017631532,9.72117519378662,-2.7590887546539307,-3.1709911823272705,-0.2315014749765396
2474135816.0,-0.9469425678253174,1.1801773309707642,9.495841026306152,-3.287587404251098,-3.379824161529541,-0.1245108023285865
2474144149.0,-0.6867138147354126,0.8184360861778259,9.60414981842041,-3.9094491004943848,-3.2800817489624023,-0.260957807302475
2474152482.0,-0.6051430106163025,0.3076544106006622,9.93868637084961,-4.085752010345459,-2.931805372238159,-0.1749964505434036
2474160815.0,-0.6412580609321594,0.3464542925357818,10.173763275146484,-3.556178092956543,-2.676994800567627,-0.132937878370285
2474169148.0,-0.7982833981513977,0.8172785639762878,9.897022247314451,-3.465170860290528,-2.4428811073303223,-0.181528091430664
2474177481.0,-0.955370545387268,0.961372971534729,9.554953575134276,-3.840573072433472,-2.5521769523620605,-0.1603963524103164
2474185814.0,-1.0457816123962402,0.5510334372520447,9.70881175994873,-4.21446418762207,-2.6229233741760254,-0.2491240501403808
2474194147.0,-0.976398766040802,0.3398098349571228,9.892027854919434,-3.9687979221344,-2.96451473236084,-0.2897738814353943
2474202480.0,-1.0611059665679932,0.4121725261211395,10.016587257385254,-3.5823562145233154,-3.0685598850250244,-0.3387482762336731
2474210813.0,-0.90581476688385,0.5941215753555298,9.7562255859375,-3.705406665802002,-3.207440137863159,-0.1980236619710922
2474219146.0,-0.6742910742759705,0.462780237197876,9.700586318969728,-3.81298565864563,-3.433152675628662,-0.3470216393470764
2474227479.0,-0.5165669322013855,0.328000396490097,9.90269660949707,-3.5138378143310547,-3.2920186519622803,-0.4764248132705688
2474235812.0,-0.4658655524253845,0.4903067052364349,9.936405181884766,-3.336561679840088,-2.8927950859069824,-0.5349789261817932
2474244145.0,-0.5851713418960571,0.474061906337738,9.841104507446287,-3.492526769638061,-2.375797271728516,-0.5261164307594299
2474252478.0,-0.9104999899864196,0.1630198061466217,9.77251148223877,-3.5297954082489014,-2.3397579193115234,-0.5286521911621094
2474260811.0,-1.1003576517105105,0.0714106857776641,9.798850059509276,-3.1114377975463867,-2.615264415740967,-0.5736819505691528
2474269144.0,-1.2496153116226196,0.4949374794960022,9.70059299468994,-2.76357102394104,-2.890463829040528,-0.4551649391651153
2474277477.0,-1.184299349784851,0.8581851124763489,9.471020698547363,-3.0625662803649902,-3.388789176940918,-0.6148442029953003
2474285810.0,-0.8797734379768372,0.5753083825111389,9.424769401550291,-3.602257490158081,-3.882810592651367,-0.4333416223526001
2474294143.0,-0.6092941761016846,0.0434478968381881,9.728874206542969,-3.5618896484375,-3.7715165615081774,-0.4898978173732757
2474302476.0,-0.4298773407936096,-0.0167168006300926,9.979473114013672,-2.980421304702759,-3.2959117889404297,-0.4359542429447174
2474310809.0,-0.5085217952728271,0.4333292841911316,9.871736526489258,-2.682732582092285,-2.7551183700561523,-0.3210232257843017
2474319142.0,-0.7336455583572388,0.6226927042007446,9.594549179077148,-2.932111978530884,-2.358916759490967,-0.3360074758529663
2474327475.0,-0.966029167175293,0.4004779458045959,9.503232955932615,-3.2371268272399902,-2.4162418842315674,-0.2652097940444946
2474335808.0,-1.1512149572372437,0.2057471722364425,9.643244743347168,-3.0795223712921143,-2.784574747085572,-0.1757136285305023
2474344141.0,-1.1965954303741455,0.4186235070228576,9.65740203857422,-2.7885704040527344,-3.0199694633483887,-0.1654423326253891
2474352474.0,-1.008938908576965,0.556310772895813,9.595518112182615,-2.8956637382507324,-3.393912076950073,-0.1368568539619445
2474360807.0,-0.7352101802825928,0.3752879798412323,9.648225784301758,-3.19404411315918,-3.6694700717926025,-0.1073236539959907
2474369140.0,-0.4703770577907562,0.2659981846809387,9.886556625366213,-2.968843460083008,-3.503617763519287,-0.0667250826954841
2474377473.0,-0.3107366263866424,0.5005208253860474,9.98381233215332,-2.6015865802764893,-2.8489177227020264,-0.1864204108715057
2474385806.0,-0.4790824353694916,0.7335930466651917,9.817391395568848,-2.7377519607543945,-2.285968065261841,-0.1242546588182449
2474394139.0,-0.763084352016449,0.5616395473480225,9.687397956848145,-3.010056972503662,-2.015020608901977,-0.1634956747293472
2474402472.0,-1.039677619934082,0.186165377497673,9.832201957702637,-2.9724037647247314,-2.2215993404388428,-0.2747382521629333
2474410805.0,-1.1744072437286377,0.3366713523864746,9.937471389770508,-2.4910101890563965,-2.524436712265014,-0.1681318432092666
2474419138.0,-1.0730791091918943,0.8585548400878906,9.722952842712402,-2.341474294662476,-3.165150880813598,-0.1907748281955719
2474427471.0,-0.8229754567146301,1.0597349405288696,9.492074966430664,-2.888850212097168,-3.473649263381958,-0.2411324083805084
2474435804.0,-0.5540452003479004,0.5521820187568665,9.74083423614502,-3.529974460601806,-3.5213680267333984,-0.2644413709640503
2474444137.0,-0.4232189357280731,0.1115578711032867,10.172539710998535,-3.3638153076171875,-3.020123243331909,-0.2612139582633972
2474452470.0,-0.488116055727005,0.3410175740718841,10.24355697631836,-2.4942376613616943,-2.576305627822876,-0.3326777219772339
2474460803.0,-0.7208320498466492,0.8462592959403992,9.890864372253418,-2.4288697242736816,-2.271162986755371,-0.42383873462677
2474469136.0,-0.9671058058738708,0.8042628169059753,9.649667739868164,-2.9310107231140137,-2.351104497909546,-0.4773211479187011
2474477469.0,-1.110795497894287,0.5347618460655212,9.759503364562988,-3.1039071083068848,-2.378819465637207,-0.4060112237930298
2474485802.0,-1.1826118230819702,0.5170055031776428,9.897906303405762,-2.9778850078582764,-2.899556875228882,-0.3657456040382385
2474494135.0,-1.1228569746017456,0.6735321283340454,9.807558059692385,-2.7816548347473145,-3.2713992595672607,-0.4761686623096466
2474502468.0,-0.9282901883125304,0.6435419917106628,9.735204696655272,-3.1485273838043213,-3.555614233016968,-0.4424346685409546
2474510801.0,-0.6726399064064026,0.508746325969696,9.900026321411133,-3.190816879272461,-3.4533114433288574,-0.3935115039348602
2474519134.0,-0.5180186033248901,0.6048613786697388,10.006226539611816,-2.9603400230407715,-3.0618491172790527,-0.3327801823616028
2474527467.0,-0.6177918314933777,0.71816086769104,9.909117698669434,-3.019892454147339,-2.425898313522339,-0.4134393632411957
2474535800.0,-0.8446336388587952,0.5780985355377197,9.810218811035156,-3.271347522735596,-2.233715057373047,-0.32425057888031
2474544133.0,-1.1309645175933838,0.2584891617298126,9.876081466674805,-3.271706342697144,-2.349132537841797,-0.2635960876941681
2474552466.0,-1.2708088159561155,0.3704579174518585,9.94552516937256,-2.743079662322998,-2.562012195587158,-0.2652097940444946
2474560799.0,-1.2457222938537598,0.8548426628112793,9.757646560668944,-2.4779720306396484,-3.0473761558532715,-0.3513503968715668
2474569132.0,-1.0581507682800293,1.0710668563842771,9.533586502075195,-3.05039930343628,-3.348088026046753,-0.2892872095108032
2474577465.0,-0.7623629570007324,0.6700019240379333,9.5913724899292,-3.6211869716644287,-3.4207301139831543,-0.2079876065254211
2474585798.0,-0.6028984189033508,0.2252607643604278,9.958745002746582,-3.491758346557617,-3.192507028579712,-0.1140089705586433
2474594131.0,-0.5613290667533875,0.328277051448822,10.140754699707031,-2.817668199539185,-2.7223830223083496,-0.1953085213899612
2474602464.0,-0.6396414041519165,0.7885425686836243,9.887128829956056,-2.612319231033325,-2.4497714042663574,-0.2071167081594467
2474610797.0,-0.8761175870895386,0.8885883092880249,9.60057258605957,-2.999606132507324,-2.2225983142852783,-0.3236871063709259
2474619130.0,-1.0975011587142944,0.6946943998336792,9.56966781616211,-3.31425142288208,-2.2669878005981445,-0.1878291815519333
2474627463.0,-1.2189853191375732,0.5809284448623657,9.79110050201416,-3.136155366897583,-2.693977117538452,-0.2120346277952194
2474635796.0,-1.142680525779724,0.6885570883750916,9.73262882232666,-3.1340808868408203,-3.0531914234161377,-0.2716645896434784
2474644129.0,-0.8341264724731445,0.8012380003929138,9.273417472839355,-3.2889959812164307,-3.393656015396118,-0.2910289466381073
2474652462.0,-1.1275434494018557,0.4093457758426666,9.81800651550293,-3.669034242630005,-3.6318421363830566,-0.3267095685005188
2474660795.0,-0.3662733733654022,0.4893908202648163,10.312213897705078,-3.3129708766937256,-3.753228664398194,-0.3718674778938293
2474669128.0,-0.1079331561923027,0.5035061836242676,10.16478157043457,-2.8794496059417725,-3.004549741744995,-0.2722280621528625
2474677461.0,-0.2476737946271896,0.7147193551063538,9.5553560256958,-2.929500102996826,-2.0658137798309326,-0.3543729484081268
2474685794.0,-0.8470258116722107,0.5677511096000671,9.615727424621582,-3.3518781661987305,-1.8113102912902832,-0.3642087280750274
2474694127.0,-0.9480299353599548,0.2403889000415802,10.011200904846191,-3.262126445770264,-2.007694959640503,-0.3069609701633453
2474702460.0,-1.2983174324035645,0.4134242236614227,9.957436561584473,-2.677609920501709,-2.33273983001709,-0.4896417558193207
2474710793.0,-1.2612663507461548,0.9803099036216736,9.5010986328125,-2.6182358264923096,-3.0102360248565674,-0.4878487288951874
2474719126.0,-0.9168514609336852,0.8420759439468384,9.317116737365724,-3.358999729156494,-3.514580249786377,-0.4074456393718719
2474727459.0,-0.6825084090232849,0.2765085697174072,9.708781242370604,-3.7811219692230233,-3.545496702194214,-0.4333416223526001
2474735792.0,-0.4364886879920959,0.1503220200538635,10.215112686157228,-3.301111459732056,-3.3088982105255127,-0.3629536926746368
2474744125.0,-0.3029459416866302,0.4172694087028503,10.182153701782228,-2.8505055904388428,-2.660166025161743,-0.4200478196144104
2474752458.0,-0.5152817368507385,0.5644276738166809,9.780258178710938,-2.743976354598999,-2.209176778793335,-0.4863374829292297
2474760791.0,-0.7351896166801453,0.4682099223136902,9.702676773071287,-3.0904347896575928,-1.854035258293152,-0.470123678445816
2474769124.0,-0.995591640472412,0.3669102489948272,9.839068412780762,-3.028217315673828,-1.7636682987213137,-0.379500538110733
2474777457.0,-1.2710362672805786,0.4071581661701202,9.853460311889648,-2.752070426940918,-2.1169655323028564,-0.5003997087478638
2474785790.0,-1.259428858757019,0.471682608127594,9.700878143310549,-2.6891872882843018,-2.5841431617736816,-0.3683070838451385
2474794123.0,-1.0960172414779663,0.4564911127090454,9.638872146606444,-2.8667709827423096,-3.1410481929779053,-0.3167968690395355
2474802456.0,-0.7340732216835022,0.4160436689853668,9.822690963745115,-2.851940155029297,-3.238715171813965,-0.359803169965744
2474810789.0,-0.4796291291713714,0.545246958732605,9.968300819396973,-2.803093433380127,-2.8629541397094727,-0.4257597923278808
2474819122.0,-0.5544267892837524,0.5413218140602112,9.879432678222656,-2.8298861980438232,-2.277259111404419,-0.4931252598762512
2474827455.0,-0.8550211191177368,0.3192601501941681,9.829158782958984,-2.914541482925415,-1.879777312278748,-0.3516066074371338
2474835788.0,-1.07817280292511,0.191054955124855,9.89724826812744,-2.754606246948242,-1.873169183731079,-0.2812443077564239
2474844121.0,-1.16569185256958,0.5288190841674805,9.933378219604492,-2.261634349822998,-2.246880531311035,-0.3758888840675354
2474852454.0,-1.1828526258468628,0.8323172330856323,9.66221523284912,-2.3221352100372314,-2.46916127204895,-0.4233264327049255
2474860787.0,-1.0693674087524414,0.8794447183609009,9.473934173583984,-2.70463228225708,-2.911288022994995,-0.4352626502513885
2474869120.0,-0.818560779094696,0.5276514291763306,9.667527198791504,-3.219888925552368,-3.111156463623047,-0.359956830739975
2474877453.0,-0.6663461327552795,0.260479062795639,10.026575088500977,-2.9602630138397217,-2.928910970687866,-0.4373886585235595
2474885786.0,-0.6587651371955872,0.4499254524707794,10.08926486968994,-2.4204680919647217,-2.5217723846435547,-0.507110595703125
2474894119.0,-0.6787390112876892,0.6692056655883789,9.871604919433594,-2.3106346130371094,-2.328103542327881,-0.6150490045547485
2474902452.0,-0.8233510851860046,0.7625095248222351,9.649188041687012,-2.637702703475952,-2.1533119678497314,-0.6006281971931458
2474910785.0,-0.923821210861206,0.6124664545059204,9.707558631896973,-2.8615710735321045,-2.12818455696106,-0.5133861303329468
2474919118.0,-1.1007750034332275,0.5677301287651062,9.797061920166016,-2.716031312942505,-2.352693557739258,-0.5740150809288025
2474927451.0,-1.10021710395813,0.6468484997749329,9.766830444335938,-2.559348821640014,-2.5108866691589355,-0.5851059556007385
2474935784.0,-0.9985742568969728,0.6052974462509155,9.688820838928224,-2.782986640930176,-2.902374505996704,-0.4758612513542175
2474944117.0,-0.67939692735672,0.5359349250793457,9.76772689819336,-2.8451781272888184,-3.1718876361846924,-0.4801132678985595
2474952450.0,-0.4965351521968841,0.66233891248703,9.895834922790527,-2.7874433994293213,-3.024785280227661,-0.4662303328514099
2474960783.0,-0.4801482558250427,0.7407311797142029,9.885459899902344,-2.720001220703125,-2.5333502292633057,-0.6048800945281982
2474969116.0,-0.6404677033424377,0.5913525819778442,9.769819259643556,-2.905934810638428,-1.9830796718597408,-0.5223254561424255
2474977449.0,-0.8983458876609802,0.2617116272449493,9.866893768310549,-2.93631362915039,-1.942942500114441,-0.63251793384552
2474985782.0,-0.9965727925300598,0.3609563708305359,9.98371410369873,-2.4678544998168945,-2.13525390625,-0.6005769968032837
2474994115.0,-0.9917365908622742,0.7854166626930237,9.857312202453612,-2.158665418624878,-2.323108673095703,-0.6264985799789429
2475002448.0,-0.9406067728996276,0.9860254526138306,9.519229888916016,-2.404279947280884,-2.645361423492432,-0.7823867797851562
2475010781.0,-0.8155357837677002,0.7298642992973328,9.460516929626465,-3.019789695739746,-2.687752485275269,-0.6283682584762573
2475019114.0,-0.7117409110069275,0.4306803941726684,9.764144897460938,-3.2227320671081543,-2.675304412841797,-0.5448660254478455
2475027447.0,-0.7221243977546692,0.4160716831684112,10.069409370422363,-2.80304217338562,-2.343369245529175,-0.4639249742031097
2475035780.0,-0.7613309025764465,0.6120317578315735,9.959001541137695,-2.564241409301758,-2.237710952758789,-0.5547787547111511
2475044113.0,-0.8466538786888123,0.7293300628662109,9.696982383728027,-2.652841091156006,-2.287914991378784,-0.5740406513214111
2475052446.0,-0.9289531111717224,0.6179444193840027,9.670973777770996,-2.97770619392395,-2.190913677215576,-0.4271941781044006
2475060779.0,-1.024469971656799,0.5275228023529053,9.804855346679688,-3.000579595565796,-2.145089626312256,-0.4597243070602417
2475069112.0,-1.162264108657837,0.6180930733680725,9.783746719360352,-2.8670525550842285,-2.340423822402954,-0.4066003561019897
2475077445.0,-1.1219314336776731,0.6289620399475098,9.674006462097168,-2.987285614013672,-2.787187099456787,-0.4264769852161407
2475085778.0,-0.9533328413963318,0.5245881676673889,9.702886581420898,-3.1368730068206787,-3.1035232543945312,-0.5063422322273254
2475094111.0,-0.685329258441925,0.5660837888717651,9.861729621887209,-3.0203027725219727,-3.211743354797364,-0.3315763175487518
2475102444.0,-0.6016837358474731,0.7824428081512451,9.876730918884276,-2.8906946182250977,-2.8776566982269287,-0.4757075309753418
2475110777.0,-0.7278704643249512,0.6510429978370667,9.72357940673828,-3.2593343257904053,-2.3200862407684326,-0.3829583823680877
2475119110.0,-0.9958503246307372,0.3407309055328369,9.76901912689209,-3.4755184650421143,-2.3105831146240234,-0.2995584309101105
2475127443.0,-1.1638572216033936,0.2369750589132309,9.983513832092283,-3.2105133533477783,-2.395827293395996,-0.4118255972862243
2475135776.0,-1.2215580940246582,0.5778671503067017,9.937226295471191,-2.736086845397949,-2.8234059810638428,-0.4266050457954407
2475144109.0,-1.1108897924423218,0.8790203928947449,9.609310150146484,-2.842975378036499,-3.114819288253784,-0.3889521658420563
2475152442.0,-0.8795452117919922,0.7817633748054504,9.441149711608888,-3.477311849594116,-3.426262855529785,-0.4239156246185303
2475160775.0,-0.7250766158103943,0.3541511595249176,9.75243091583252,-3.7124762535095215,-3.3667354583740234,-0.3508125841617584
2475169108.0,-0.6344437599182129,0.1675887554883957,10.165715217590332,-3.4218058586120605,-3.109901189804077,-0.3045532703399658
2475177441.0,-0.6735261082649231,0.4315246045589447,10.112284660339355,-2.772740840911865,-2.7425928115844727,-0.3611863255500793
2475185774.0,-0.7913439869880676,0.6544411182403564,9.779020309448242,-2.798124551773072,-2.567545175552368,-0.4150274395942688
2475194107.0,-0.9106184244155884,0.6675384640693665,9.566817283630373,-3.214303970336914,-2.505481719970703,-0.3743776082992553
2475202440.0,-1.0346678495407104,0.4872963726520538,9.75064182281494,-3.2785961627960205,-2.4950056076049805,-0.4193818569183349
2475210773.0,-1.1187851428985596,0.4172577261924743,9.86019229888916,-3.036567449569702,-2.631990432739258,-0.2714084088802337
2475219106.0,-1.059864521026611,0.4847770631313324,9.782489776611328,-2.911928653717041,-3.2827460765838623,-0.3647979497909546
2475227439.0,-0.8444865345954895,0.5286953449249268,9.719056129455566,-3.011773109436035,-3.4426815509796143,-0.2510963678359985
2475235772.0,-0.5535430908203125,0.5263515114784241,9.877041816711426,-2.9980952739715576,-3.2756764888763428,-0.2599588930606842
2475244105.0,-0.4387800395488739,0.688906729221344,9.92485237121582,-2.8477137088775635,-2.777453899383545,-0.297663003206253
2475252438.0,-0.582054615020752,0.7186068892478943,9.777105331420898,-3.01902174949646,-2.20979118347168,-0.5070849657058716
2475260771.0,-0.8786067962646484,0.4586535394191742,9.698046684265137,-3.242377758026123,-2.1535935401916504,-0.3775025308132171
2475269104.0,-1.1020708084106443,0.2565361559391022,9.85028076171875,-3.117994785308838,-2.519979238510132,-0.3507100939750671
2475277437.0,-1.179797649383545,0.4525682926177978,9.910550117492676,-2.6751251220703125,-2.5480527877807617,-0.4080604016780853
2475285770.0,-1.0433127880096436,0.8924560546875,9.694660186767578,-2.4485671520233154,-3.0791640281677246,-0.3635172247886657
2475294103.0,-0.8666017055511475,1.0241236686706543,9.423133850097656,-2.949146270751953,-3.241046190261841,-0.3663092255592346
2475302436.0,-0.6244916319847107,0.6263006925582886,9.550823211669922,-3.506819486618042,-3.15124249458313,-0.4179731011390686
2475310769.0,-0.5546497106552124,0.262645274400711,9.990270614624023,-3.4572556018829346,-2.9063704013824463,-0.3338815569877624
2475319102.0,-0.6330305337905884,0.4470859169960022,10.19228458404541,-2.862569570541382,-2.448336124420166,-0.4154884219169616
2475327435.0,-0.7704991102218628,0.7494885921478271,9.850683212280272,-2.5784571170806885,-2.2249295711517334,-0.4430750608444214
2475335768.0,-0.9384222626686096,0.8124715089797974,9.568415641784668,-2.858062267303467,-2.211456537246704,-0.4696370363235473
2475344101.0,-1.0297017097473145,0.6607574224472046,9.645796775817873,-3.1178669929504395,-2.269702911376953,-0.4595193266868591
2475352434.0,-1.1017025709152222,0.5771498084068298,9.788043975830078,-3.0941483974456787,-2.498361110687256,-0.3254032433032989
2475360767.0,-1.128002405166626,0.6180969476699829,9.808389663696287,-3.111412763595581,-2.830834150314331,-0.32635098695755
2475369100.0,-0.9870169162750244,0.5802463889122009,9.70817756652832,-3.079958200454712,-3.0921761989593506,-0.4576495587825775
2475377433.0,-0.7091313004493713,0.4658083319664001,9.818075180053713,-3.2263691425323486,-3.242429256439209,-0.2621616721153259
2475385766.0,-0.521864652633667,0.5892232656478882,9.939172744750977,-3.0390517711639404,-2.8029143810272217,-0.4127733707427978
2475394099.0,-0.5622937679290771,0.7005506753921509,9.928915023803713,-2.99714732170105,-2.4739251136779785,-0.3850843906402588
2475402432.0,-0.8159515857696533,0.5753731727600098,9.77393627166748,-3.232234239578247,-2.0539796352386475,-0.5337492823600769
2475410765.0,-1.0656139850616455,0.2924747467041015,9.839679718017578,-3.2730891704559326,-2.1717028617858887,-0.5182271599769592
2475419098.0,-1.17284095287323,0.2480983287096023,9.974380493164062,-2.7796051502227783,-2.504918098449707,-0.472813069820404
2475427431.0,-1.0944253206253052,0.62039715051651,9.957412719726562,-2.379997730255127,-2.6875991821289062,-0.4710969924926758
2475435764.0,-0.901746153831482,0.8925962448120117,9.666516304016112,-2.3579695224761963,-2.962132453918457,-0.5970165729522705
2475444097.0,-0.8317351341247559,0.7908291220664978,9.299219131469728,-2.9606728553771973,-2.963695287704468,-0.6505759358406067
2475452430.0,-0.7739825248718262,0.5663533806800842,9.596358299255373,-3.660812377929688,-3.035799503326416,-0.4646934866905212
2475460763.0,-0.7341679930686951,0.268543541431427,10.134516716003418,-3.3672728538513184,-2.7632126808166504,-0.3676155209541321
2475469096.0,-0.92292582988739,0.2760370373725891,10.16860580444336,-2.8500189781188965,-2.630018472671509,-0.4196380078792572
2475477429.0,-0.8118123412132263,0.5826320052146912,9.814682006835938,-2.580044746398926,-2.6597819328308105,-0.4276552498340606
2475485762.0,-0.8470864295959473,0.7077917456626892,9.554494857788086,-2.950375556945801,-2.656477928161621,-0.4654106497764587
2475494095.0,-0.9568526744842528,0.6201158165931702,9.66169261932373,-3.1175851821899414,-2.570772647857666,-0.5294462442398071
2475502428.0,-1.0756807327270508,0.5857130289077759,9.758186340332031,-3.118481397628784,-2.6301465034484863,-0.4107754528522491
2475510761.0,-1.1223915815353394,0.528663158416748,9.708026885986328,-3.0639748573303223,-2.993151903152466,-0.3591116070747375
2475519094.0,-0.9398081302642822,0.4267998039722442,9.753938674926758,-3.1049578189849854,-3.3390207290649414,-0.3926918506622314
2475527427.0,-0.6341825723648071,0.5089007616043091,9.861083030700684,-2.937184333801269,-3.4189112186431885,-0.3298088610172272
2475535760.0,-0.4753926992416382,0.7408186793327332,9.883935928344728,-2.877528667449951,-2.998504638671875,-0.4179218411445617
2475544093.0,-0.6090941429138184,0.7522083520889282,9.71442985534668,-3.063692808151245,-2.377718210220337,-0.4409746527671814
2475552426.0,-0.8924345970153809,0.5044000148773193,9.697898864746094,-3.3741629123687744,-2.25177264213562,-0.4724033176898956
2475560759.0,-1.11343514919281,0.1774835586547851,9.960536003112791,-3.2378697395324707,-2.3690602779388428,-0.3253263831138611
2475569092.0,-1.1523181200027466,0.4712974429130554,10.003229141235352,-2.7431819438934326,-2.6739981174468994,-0.3039897382259369
2475577425.0,-1.054253339767456,0.9641618132591248,9.703741073608398,-2.5279200077056885,-3.000861167907715,-0.3582662642002105
2475585758.0,-0.8568664193153381,1.077293872833252,9.378700256347656,-3.086848497390747,-3.245861530303955,-0.5059836506843567
2475594091.0,-0.65480637550354,0.6291831731796265,9.587250709533691,-3.788806676864624,-3.288355588912964,-0.3189740777015686
2475602424.0,-0.5693716406822205,0.2103039175271988,10.152657508850098,-3.4695253372192383,-2.884828805923462,-0.3228930234909057
2475610757.0,-0.667603075504303,0.3607478141784668,10.273238182067873,-3.01489782333374,-2.6213607788085938,-0.4281931519508362
2475619090.0,-0.8361680507659912,0.6980811953544617,9.913886070251465,-2.63519287109375,-2.350644111633301,-0.4011957943439483
2475627423.0,-0.9835250377655028,0.780764102935791,9.539624214172363,-2.981266498565674,-2.3671905994415283,-0.3340096175670624
2475635756.0,-1.0648257732391355,0.64845871925354,9.597339630126951,-3.2767269611358643,-2.595311403274536,-0.4426652193069458
2475644089.0,-1.1341965198516846,0.5795765519142151,9.826306343078612,-3.3087189197540283,-2.817744970321656,-0.3038360476493835
2475652422.0,-1.1126868724822998,0.5967450141906738,9.81922721862793,-2.980318784713745,-3.014180898666382,-0.5059836506843567
2475660755.0,-0.96851646900177,0.5576388835906982,9.68979549407959,-3.2293403148651123,-3.31432843208313,-0.26705402135849
2475669088.0,-0.705109179019928,0.4283323287963867,9.82204818725586,-3.290660858154297,-3.3459620475769043,-0.1969478577375412
2475677421.0,-0.5266700387001038,0.6010476350784302,9.975652694702148,-3.012336254119873,-2.933265209197998,-0.3718418180942535
2475685754.0,-0.6539655923843384,0.7921430468559265,9.864402770996094,-3.008622646331787,-2.446056842803955,-0.2391600906848907
2475694087.0,-0.9299497604370116,0.725226879119873,9.64551830291748,-3.275701999664306,-2.248340606689453,-0.3376468420028686
2475702420.0,-1.2079353332519531,0.3736798167228699,9.702886581420898,-3.535840511322021,-2.4441616535186768,-0.2357790172100067
2475710753.0,-1.3037110567092896,0.2314953356981277,9.877769470214844,-3.183567762374878,-2.834548234939575,-0.141569897532463
2475719086.0,-1.1651737689971924,0.6447550058364868,9.842727661132812,-2.78257703781128,-3.169531345367432,-0.2065532058477401
2475727419.0,-0.9342496991157532,1.0043150186538696,9.538370132446287,-2.864363193511963,-3.439274787902832,-0.2307842820882797
2475735752.0,-0.6952903270721436,0.8197769522666931,9.459967613220217,-3.565322160720825,-3.443244695663452,-0.2453331649303436
2475744085.0,-0.5537591576576233,0.3404249846935272,9.855620384216309,-3.877072811126709,-3.3346405029296875,-0.2764800488948822
2475752418.0,-0.6070010662078857,0.2538027465343475,10.193585395812988,-3.2714502811431885,-2.7501492500305176,-0.2301183044910431
2475760751.0,-0.7690669894218445,0.5835719704627991,10.018153190612791,-2.8614680767059326,-2.5149075984954834,-0.3288354873657226
2475769084.0,-0.9715374112129213,0.7970288991928101,9.55951976776123,-2.9834177494049072,-2.4822494983673096,-0.3393117487430572
2475777417.0,-1.067853569984436,0.6739680171012878,9.535537719726562,-3.5791027545928955,-2.6782760620117188,-0.2383404374122619
2475785750.0,-1.1201839447021484,0.5092455148696899,9.805974006652832,-3.557817220687866,-2.94028377532959,-0.2273007482290268
2475794083.0,-1.081596612930298,0.5539403557777405,9.94041347503662,-3.251086950302124,-3.148578405380249,-0.2946661710739136
2475802416.0,-0.9983254075050354,0.6667289137840271,9.713482856750488,-3.212460517883301,-3.4737255573272705,-0.327554851770401
2475810749.0,-0.7594332098960876,0.5563364028930664,9.701576232910156,-3.438327074050904,-3.665550470352173,-0.3172323107719421
2475819082.0,-0.5469703078269958,0.5018540620803833,9.888317108154297,-3.5048980712890625,-3.4220621585845947,-0.1630602180957794
2475827415.0,-0.5106968879699707,0.6538425087928772,9.985859870910645,-3.2783148288726807,-3.0022189617156982,-0.2761726975440979
2475835748.0,-0.6668249368667603,0.6768088936805725,9.81547737121582,-3.4908106327056885,-2.569159030914306,-0.2130848467350006
2475844081.0,-0.9769868850708008,0.4523773789405823,9.72260284423828,-3.6368374824523926,-2.5198261737823486,-0.3136207461357116
2475852414.0,-1.1262428760528564,0.2275270670652389,9.876019477844238,-3.5519514083862305,-2.6840133666992188,-0.0956435576081276
2475860747.0,-1.1946823596954346,0.4285102784633636,9.94069766998291,-3.108518123626709,-3.139972448348999,-0.1468720287084579
2475869080.0,-1.0774128437042236,0.8665298223495483,9.64979362487793,-2.86139178276062,-3.4149413108825684,-0.1348077207803726
2475877413.0,-0.9187599420547484,0.9248857498168944,9.369629859924316,-3.444730281829834,-3.68570876121521,-0.0474375635385513
2475885746.0,-0.7637896537780762,0.4716317355632782,9.56166172027588,-4.063929080963135,-3.744621753692627,-0.0317104198038578
2475894079.0,-0.6565445065498352,0.1632454991340637,9.981978416442873,-3.998920440673828,-3.550645589828491,0.0439156107604503
2475902412.0,-0.6707674860954285,0.215805634856224,10.158370018005373,-3.3896851539611816,-3.260128974914551,-0.1205662041902542
2475910745.0,-0.7614147067070007,0.6462715864181519,9.92035675048828,-3.011849880218506,-3.060235023498535,-0.1526352316141128
2475919078.0,-0.8170333504676819,0.8264120817184448,9.673535346984863,-3.294682502746582,-2.922661304473877,-0.06406120210886
2475927411.0,-0.9712991118431092,0.7446724772453308,9.657258987426758,-3.617012023925781,-2.9222257137298584,-0.0177250523120164
2475935744.0,-1.0701099634170532,0.7025129199028015,9.805194854736328,-3.7339155673980713,-3.0852091312408447,-0.0937224924564361
2475944077.0,-1.162445306777954,0.6378706693649292,9.779805183410645,-3.657559394836426,-3.2989342212677,0.0117697408422827
2475952410.0,-1.0590940713882446,0.5739054679870605,9.67188835144043,-3.89689874649048,-3.743008136749268,-0.0611411780118942
2475960743.0,-0.8048915863037109,0.4656089842319488,9.817560195922852,-3.885884523391724,-4.012264728546143,0.1483960747718811
2475969076.0,-0.5365800857543945,0.5340418219566345,9.95430850982666,-3.70796799659729,-3.812141180038452,0.058592565357685
2475977409.0,-0.565165638923645,0.7451329231262207,9.869394302368164,-3.614732503890991,-3.2241663932800293,0.0697859823703765
2475985742.0,-0.8522956371307373,0.6789435744285583,9.70065212249756,-3.796695947647095,-2.7681820392608643,0.072603553533554
2475994075.0,-1.0782513618469238,0.3812637329101562,9.721197128295898,-4.149967193603516,-3.1166372299194336,0.1115627959370613
2476002408.0,-1.209670066833496,0.2579886317253113,9.938536643981934,-3.921205997467041,-3.2867419719696045,0.0971163734793663
2476010741.0,-1.1207109689712524,0.5917829871177673,9.94353199005127,-3.2434282302856445,-3.765727996826172,0.016687674447894
2476019074.0,-0.9580811262130736,1.0274837017059326,9.664759635925291,-3.4538233280181885,-3.945693492889404,-0.034835360944271
2476027407.0,-0.827438235282898,0.9217116832733154,9.519296646118164,-4.176324367523193,-4.076121807098389,0.0845654010772705
2476035740.0,-0.6423172354698181,0.4625412225723266,9.817544937133787,-4.334312438964844,-3.9577834606170654,0.1231404244899749
2476044073.0,-0.4597743451595306,0.2711468338966369,10.188779830932615,-3.9181325435638414,-3.527284860610962,0.0077739199623465
2476052406.0,-0.628497838973999,0.4904724061489105,10.061344146728516,-3.4509549140930176,-3.132108926773072,-0.0624475069344043
2476060739.0,-0.7139882445335388,0.6291609406471252,9.827021598815918,-3.3805668354034424,-2.9343156814575195,-0.0720016211271286
2476069072.0,-0.8245394229888916,0.5171722173690796,9.71910285949707,-3.6369144916534415,-2.7432334423065186,0.0394587330520153
2476077405.0,-1.0144593715667725,0.4918076694011688,9.784555435180664,-3.597109794616699,-2.682502269744873,0.0441461391746997
2476085738.0,-1.2223408222198486,0.6557947993278503,9.761420249938965,-3.443014621734619,-3.0460963249206543,-0.0335546508431434
2476094071.0,-1.186472773551941,0.629357635974884,9.654687881469728,-3.6685736179351807,-3.459766149520874,-0.0748191773891449
2476102404.0,-0.8664557337760925,0.5705087184906006,9.71500301361084,-3.7129626274108887,-4.018770694732666,-0.0123716751113533
2476110737.0,-0.6012921929359436,0.568328320980072,9.907660484313965,-3.639193534851074,-3.818211555480957,0.0197869967669248
2476119070.0,-0.3911400437355041,0.7062644958496094,9.976664543151855,-3.538632392883301,-3.4426815509796143,-0.015522226691246
2476127403.0,-0.4488182663917541,0.5850123763084412,9.847766876220703,-3.653947591781616,-2.8376989364624023,-0.1303508579730987
2476135736.0,-0.6369448304176331,0.2872480452060699,9.932218551635742,-3.8768680095672607,-2.4679315090179443,-0.1510471552610397
2476144069.0,-0.8828644156455994,0.1970160007476806,10.072696685791016,-3.370295286178589,-2.3014132976531982,-0.1594742238521576
2476152402.0,-1.0346802473068235,0.5663865804672241,9.953730583190918,-2.833882093429565,-2.410555601119995,-0.2126493602991104
2476160735.0,-1.1499910354614258,1.0233182907104492,9.524456024169922,-2.9796011447906494,-2.701840400695801,-0.2812442779541015
2476169068.0,-1.0383228063583374,0.8508272171020508,9.385573387145996,-3.72763991355896,-3.004242420196533,-0.2675919234752655
2476177401.0,-0.9562569260597228,0.3625717461109161,9.677180290222168,-4.004042625427246,-3.301008939743042,-0.265363484621048
2476185734.0,-0.7483375668525696,0.1878566145896911,10.087596893310549,-3.62864089012146,-3.235564708709717,-0.271946370601654
2476194067.0,-0.6600790619850159,0.4324416518211365,10.057775497436523,-3.030804395675659,-3.095864534378052,-0.2703582346439361
2476202400.0,-0.6819793581962585,0.7919343709945679,9.754045486450195,-3.1490652561187744,-2.9083940982818604,-0.2090633958578109
2476210733.0,-0.7338005304336548,0.665489137172699,9.677572250366213,-3.5663726329803467,-2.7322194576263428,-0.3171042501926422
2476219066.0,-0.9027510285377502,0.3744778931140899,9.781001091003418,-3.562299966812134,-2.472337245941162,-0.3618779480457306
2476227399.0,-1.1488901376724243,0.3836138546466827,9.825407028198242,-3.2719883918762207,-2.622154951095581,-0.3430258631706238
2476235732.0,-1.211387038230896,0.5381500124931335,9.686870574951172,-3.2407643795013428,-3.0854651927948,-0.1709493845701217
2476244065.0,-1.0120092630386353,0.4638898968696594,9.684965133666992,-3.3872265815734863,-3.5047447681427,-0.2487398535013198
2476252398.0,-0.7162684202194214,0.4438040554523468,9.84002685546875,-3.321884632110596,-3.631202220916748,-0.2285045683383941
2476260731.0,-0.5321167707443237,0.6274714469909668,9.845107078552246,-3.180724859237671,-3.175652980804444,-0.2594721913337707
2476269064.0,-0.6173463463783264,0.6783602237701416,9.784893035888672,-3.2212204933166504,-2.6720004081726074,-0.36697518825531
2476277397.0,-0.8051121830940247,0.3936301469802856,9.76358127593994,-3.668445587158203,-2.554815530776977,-0.2808600664138794
2476285730.0,-0.9003960490226746,0.0011292526032775,9.945262908935549,-3.4099721908569336,-2.587831974029541,-0.2576280236244201
2476294063.0,-1.0688328742980957,0.2829956412315368,9.92183780670166,-2.6632397174835205,-2.6641106605529785,-0.290465384721756
2476302396.0,-0.9819260835647584,0.9171463251113892,9.618937492370604,-2.5153942108154297,-2.964693784713745,-0.2519159913063049
2476310729.0,-0.9493086338043212,1.0275163650512695,9.410222053527832,-3.3897621631622314,-3.1745259761810303,-0.2746614813804626
2476319062.0,-0.7427400350570679,0.3263055980205536,9.680529594421388,-3.878071784973145,-3.2512149810791016,-0.224867358803749
2476327395.0,-0.685685932636261,0.0466959848999977,10.079445838928224,-3.4457039833068848,-3.162128448486328,-0.238647848367691
2476335728.0,-0.6803788542747498,0.4850576221942901,10.086983680725098,-2.7784273624420166,-2.933342218399048,-0.2602662146091461
2476344061.0,-0.716636061668396,0.844581663608551,9.730528831481934,-2.959596633911133,-2.5899577140808105,-0.2794512808322906
2476352394.0,-0.8208950161933899,0.781153678894043,9.601555824279783,-3.3860228061676025,-2.580915927886963,-0.1873169094324112
2476360727.0,-0.894817054271698,0.3809188902378082,9.793499946594238,-3.6163206100463854,-2.614086627960205,-0.1681062430143356
2476369060.0,-1.0236293077468872,0.4350499808788299,9.966556549072266,-3.179213285446167,-2.7232542037963867,-0.1802729964256286
2476377393.0,-1.0472590923309326,0.6714812517166138,9.83190631866455,-3.0269877910614014,-3.113512754440308,-0.3309871554374695
2476385726.0,-0.888191282749176,0.6856430172920227,9.69322109222412,-3.37546968460083,-3.3698859214782715,-0.2917205691337585
2476394059.0,-0.6502422094345093,0.520111620426178,9.829290390014648,-3.428619146347046,-3.303672790527344,-0.3826254308223724
2476402392.0,-0.5299238562583923,0.4852900207042694,9.959782600402832,-3.3686563968658447,-3.09084415435791,-0.24802266061306
2476410725.0,-0.5861827731132507,0.6684508919715881,9.88265895843506,-3.223474740982056,-2.6202592849731445,-0.2746358215808868
2476419058.0,-0.8043087124824524,0.5273112654685974,9.774547576904297,-3.3732149600982666,-2.2983651161193848,-0.3625438213348388
2476427391.0,-1.004863739013672,0.1888812184333801,9.88759708404541,-3.40139102935791,-2.316474437713623,-0.3171298503875732
2476435724.0,-1.1365729570388794,0.2991178631782532,9.959183692932127,-2.972275733947754,-2.60166335105896,-0.2915156185626983
2476444057.0,-1.1239441633224487,0.8206604719161987,9.713212966918944,-2.660447835922241,-2.862057685852051,-0.3803457617759704
2476452390.0,-1.018271803855896,1.035000920295715,9.440778732299805,-3.188511371612549,-3.264329433441162,-0.2670027911663055
2476460723.0,-0.7895310521125793,0.4790689051151275,9.556950569152832,-3.750922679901123,-3.389864444732666,-0.3160796463489532
2476469056.0,-0.6388057470321655,-0.0277228653430938,10.01975440979004,-3.554743766784668,-3.247347354888916,-0.2261480987071991
2476477389.0,-0.5440597534179688,0.1544481664896011,10.19223976135254,-2.751762866973877,-2.9666407108306885,-0.3171298205852508
2476485722.0,-0.6463276147842407,0.7316599488258362,9.850164413452148,-2.4643714427948,-2.483966112136841,-0.2291193455457687
2476494055.0,-0.8132836222648621,0.8886072635650635,9.534235000610352,-3.104137659072876,-2.2632224559783936,-0.218105211853981
2476502388.0,-1.033372402191162,0.574768602848053,9.603617668151855,-3.461815118789673,-2.3051528930664062,-0.2423106431961059
2476510721.0,-1.2105109691619873,0.3887684941291809,9.810310363769531,-3.2134850025177,-2.586755752563477,-0.3536557257175445
2476519054.0,-1.216802716255188,0.5011903047561646,9.804333686828612,-3.1362838745117188,-3.1155107021331787,-0.2699228227138519
2476527387.0,-1.0312787294387815,0.5642550587654114,9.678032875061035,-3.207466125488281,-3.482409238815308,-0.1365238726139068
2476535720.0,-0.6695048213005066,0.5892387628555298,9.767308235168455,-3.2530593872070312,-3.744852781295776,-0.2703582644462585
2476544053.0,-0.3953647315502167,0.7088868618011475,9.909720420837402,-3.2110259532928467,-3.383563995361328,-0.1856519728899002
2476552386.0,-0.4104914665222168,0.7974686622619629,9.893314361572266,-3.3649418354034424,-2.629429578781128,-0.3194863796234131
2476560719.0,-0.666978120803833,0.5862886905670166,9.817582130432127,-3.668624877929688,-2.327898502349853,-0.3064743280410766
2476569052.0,-0.930875599384308,0.2387079298496246,9.89153289794922,-3.67866563796997,-2.185765027999878,-0.2921303808689117
2476577385.0,-1.1765973567962646,0.2557317316532135,9.959490776062012,-3.183465003967285,-2.363399744033813,-0.2764031589031219
2476585718.0,-1.2258034944534302,0.6885448098182678,9.81375217437744,-2.8695626258850098,-2.7565269470214844,-0.153403639793396
2476594051.0,-1.083278775215149,1.0800561904907229,9.533788681030272,-3.163281440734864,-3.3436052799224854,-0.2605992555618286
2476602384.0,-0.8310607671737671,0.7790425419807434,9.598862648010254,-3.84474778175354,-3.4811275005340576,-0.2523002028465271
2476610717.0,-0.6009608507156372,0.2490912675857544,10.037680625915527,-3.859655380249024,-3.4110474586486816,-0.271510899066925
2476619050.0,-0.5327743291854858,0.3488752841949463,10.287517547607422,-3.264969825744629,-3.0073416233062744,-0.31777024269104
2476627383.0,-0.5891278982162476,0.804387092590332,10.072924613952637,-3.0508601665496826,-2.562089681625366,-0.3987624049186706
2476635716.0,-0.7299545407295227,0.94184672832489,9.781560897827148,-3.4937305450439453,-2.427051305770874,-0.3959448635578155
2476644049.0,-0.9105017781257628,0.7653296589851379,9.855371475219728,-3.860987663269043,-2.343651294708252,-0.3629537224769592
2476652382.0,-1.11424458026886,0.6390889883041382,10.004241943359377,-3.668419599533081,-2.3259005546569824,-0.4244022369384765
2476660715.0,-1.258067011833191,0.8840368390083313,9.9223051071167,-3.6494140625,-2.656810998916626,-0.431446224451065
2476669048.0,-1.21940815448761,0.9728152751922609,9.75185775756836,-3.878072261810303,-3.075860023498535,-0.3962778449058532
2476677381.0,-0.9531697034835817,0.7380930185317993,9.777978897094728,-4.203859329223633,-3.423162937164306,-0.3404387831687927
2476685714.0,-0.7086201906204224,0.5469526648521423,9.894827842712402,-4.144844055175781,-3.461430788040161,-0.3884142637252807
2476694047.0,-0.6130620837211609,0.7310634851455688,9.96131992340088,-4.016107082366943,-3.06720232963562,-0.3568062782287597
2476702380.0,-0.7110339999198914,0.6993255615234375,9.91994571685791,-4.3171000480651855,-2.6624464988708496,-0.3970975279808044
2476710713.0,-0.8608458638191223,0.1976645588874817,10.011530876159668,-4.3153076171875,-2.4642434120178223,-0.3904890418052673
2476719046.0,-1.091532826423645,0.2054849117994308,9.959994316101074,-3.724310159683228,-2.468725681304932,-0.4238387644290924
2476727379.0,-1.2295701503753662,0.7075213193893433,9.802452087402344,-3.334102869033813,-2.726149082183838,-0.5297024250030518
2476735712.0,-1.2173681259155271,0.8476735949516296,9.55884075164795,-3.699310302734375,-2.9596738815307617,-0.4516558051109314
2476744045.0,-1.036733627319336,0.645907998085022,9.498419761657717,-4.087442874908447,-3.392784595489502,-0.386979877948761
2476752378.0,-0.8336632251739502,0.2496739476919174,9.779919624328612,-4.161134719848633,-3.500108242034912,-0.3855966925621032
2476760711.0,-0.6613958477973938,0.1385750025510788,10.038912773132324,-3.563862562179565,-3.2512917518615723,-0.3883118331432342
2476769044.0,-0.7243975400924683,0.5200039148330688,9.91245937347412,-3.1742188930511475,-2.8991475105285645,-0.3439735472202301
2476777377.0,-0.7982681393623352,0.7386314868927002,9.654176712036133,-3.561710834503174,-2.694591999053955,-0.3293734788894653
2476785710.0,-0.9772886633872986,0.5468894243240356,9.583003997802734,-3.744673490524292,-2.6592187881469727,-0.2466651052236557
2476794043.0,-1.1659718751907349,0.4518122375011444,9.593629837036133,-3.729714393615722,-2.785240650177002,-0.3144659698009491
2476802376.0,-1.210241436958313,0.4451623857021332,9.69161605834961,-3.675796508789064,-3.238126277923584,-0.2622129321098327
2476810709.0,-1.0841881036758425,0.4545100629329681,9.662012100219728,-3.5724427700042725,-3.621058464050293,-0.297048270702362
2476819042.0,-0.791580855846405,0.388123095035553,9.667132377624512,-3.710273742675781,-3.7946465015411377,-0.1263038069009781
2476827375.0,-0.5721192359924316,0.5119957327842712,9.719674110412598,-3.556997299194336,-3.745902538299561,-0.1062478423118591
2476835708.0,-0.4739421308040619,0.6960886716842651,9.691217422485352,-3.5318703651428223,-3.3364078998565674,-0.2243551015853881
2476844041.0,-0.6252160668373108,0.5386180281639099,9.649683952331545,-3.9321694374084473,-2.9334959983825684,-0.0965912789106369
2476852374.0,-0.8733555674552917,0.1057152822613716,9.73449993133545,-4.135034084320068,-2.721640586853028,-0.2447952628135681
2476860707.0,-1.0690674781799316,-0.0900840982794761,9.85875415802002,-3.5872995853424072,-2.8766322135925293,-0.2855986952781677
2476869040.0,-1.1209158897399902,0.3242805004119873,9.76254653930664,-2.9779109954833984,-3.09991192817688,-0.2454868406057357
2476877373.0,-1.0297178030014038,0.8143324255943298,9.518587112426758,-3.200294017791748,-3.565424919128418,-0.1906979829072952
2476885706.0,-0.8081661462783813,0.6531230807304382,9.43659210205078,-3.8714382648468018,-3.9724607467651367,-0.3354440331459045
2476894039.0,-0.5565813183784485,-8.579273708164692e-05,9.771303176879885,-4.034600257873535,-3.9453859329223633,-0.3694084584712982
2476902372.0,-0.3968833684921264,-0.2254686951637268,10.098714828491213,-3.4241878986358643,-3.607688426971436,-0.4273735284805298
2476910705.0,-0.4178225994110107,0.1362766772508621,10.076071739196776,-2.8223044872283936,-3.052064180374145,-0.4026045501232147
2476919038.0,-0.5062636137008667,0.4382765889167785,9.765889167785645,-3.0720176696777344,-2.70176362991333,-0.4316254556179046
2476927371.0,-0.7259724736213684,0.3079656362533569,9.666864395141602,-3.375187635421753,-2.515369176864624,-0.457547128200531
2476935704.0,-0.9582511186599731,0.1274194717407226,9.789698600769045,-3.189382076263428,-2.628199577331543,-0.3906427025794983
2476944037.0,-1.0699915885925293,0.2589644193649292,9.858463287353516,-2.9360570907592773,-2.871842384338379,-0.3622877299785614
2476952370.0,-0.9883338809013368,0.3810592591762543,9.699347496032717,-2.9590845108032227,-3.296116828918457,-0.3573186099529266
2476960703.0,-0.7680326700210571,0.2101099491119384,9.681825637817385,-3.1250903606414795,-3.658097505569458,-0.3111617267131805
2476969036.0,-0.4870443940162658,0.1339684277772903,9.852487564086914,-3.0217113494873047,-3.525543451309204,-0.3244810998439789
2476977369.0,-0.2883921861648559,0.3704914152622223,9.980182647705078,-2.805424928665161,-3.1281898021698,-0.3578821122646332
2476985702.0,-0.3422401249408722,0.5995471477508545,9.864721298217772,-2.786111354827881,-2.404049634933472,-0.3400545716285705
2476994035.0,-0.6146609783172607,0.4409054219722748,9.773853302001951,-3.0253231525421143,-2.067734718322754,-0.262494683265686
2477002368.0,-0.9600010514259338,0.1331770122051239,9.840598106384276,-3.115433692932129,-2.1166322231292725,-0.3611606955528259
2477010701.0,-1.189387559890747,0.2659910321235657,9.88687229156494,-2.482147216796875,-2.421108722686768,-0.1663132309913635
2477019034.0,-1.143367052078247,0.7776598930358887,9.730138778686523,-2.225082874298096,-2.8335747718811035,-0.2131872624158859
2477027367.0,-0.965570032596588,1.0415494441986084,9.43064785003662,-2.786752223968506,-3.1721184253692627,-0.1908260881900787
2477035700.0,-0.6765652894973755,0.5913305878639221,9.61221694946289,-3.404951333999634,-3.3735742568969727,-0.2534016072750091
2477044033.0,-0.491019994020462,0.2265744656324386,10.02694606781006,-3.243659019470215,-3.151498794555664,-0.1676451712846756
2477052366.0,-0.4634014368057251,0.4659388065338135,10.166237831115724,-2.634193420410156,-2.618978977203369,-0.1269697695970535
2477060699.0,-0.6453000903129578,0.9204733967781068,9.820686340332031,-2.5224900245666504,-2.0236012935638428,-0.2425924241542816
2477069032.0,-0.8990108966827393,0.9414376616477966,9.553824424743652,-3.142405271530152,-2.0782618522644043,-0.2174136191606521
2477077365.0,-1.158874273300171,0.6240925192832947,9.623711585998535,-3.2528793811798096,-2.3186516761779785,-0.2916180193424225
2477085698.0,-1.2986233234405518,0.4945787489414215,9.850839614868164,-3.035619735717773,-2.661959409713745,-0.2903116941452026
2477094031.0,-1.2631330490112305,0.7156302332878113,9.767267227172852,-2.8514280319213867,-3.019252300262451,-0.2362400740385055
2477102364.0,-1.031112790107727,0.8204349875450134,9.633967399597168,-2.9681520462036133,-3.4295413494110107,-0.247228592634201
2477110697.0,-0.6790332198143005,0.6384698748588562,9.740065574645996,-3.2626898288726807,-3.6342501640319824,-0.360417902469635
2477119030.0,-0.487148642539978,0.6234691143035889,9.950119972229004,-3.0637190341949463,-3.247654438018799,-0.3674105703830719
2477127363.0,-0.5096775889396667,0.8108304738998413,9.934380531311035,-2.9692530632019043,-2.675790786743164,-0.3010953068733215
2477135696.0,-0.7271337509155273,0.7501009702682495,9.745715141296388,-3.356668472290039,-2.2679100036621094,-0.3858015537261963
2477144029.0,-1.0369645357131958,0.3699955344200134,9.82383632659912,-3.4973673820495605,-2.170114755630493,-0.2422594279050827
2477152362.0,-1.2679314613342283,0.2710392475128174,9.915977478027344,-3.1435837745666504,-2.50753140449524,-0.2633911967277527
2477160695.0,-1.298576593399048,0.7610281705856323,9.823086738586426,-2.705042123794556,-2.809420108795166,-0.269974023103714
2477169028.0,-1.0889755487442017,1.1307047605514526,9.516900062561035,-3.013284206390381,-3.400904655456543,-0.2389551848173141
2477177361.0,-0.8105945587158203,0.8098503351211548,9.500896453857422,-3.813318967819214,-3.574005365371704,-0.2509682476520538
2477185694.0,-0.6290751695632935,0.1413148194551468,9.889615058898926,-3.9743812084198,-3.4942939281463623,-0.3523750305175781
2477194027.0,-0.4740053713321686,0.0809703692793846,10.23090934753418,-3.2330033779144287,-3.2079782485961914,-0.3706636130809784
2477202360.0,-0.5415360331535339,0.6265442967414856,10.02360725402832,-2.846945285797119,-2.589547634124756,-0.269538551568985
2477210693.0,-0.7217696905136108,0.7495834827423096,9.663548469543455,-3.236127614974976,-2.34421443939209,-0.3432563245296478
2477219026.0,-0.996712327003479,0.5015478730201721,9.61420440673828,-3.688962697982788,-2.3175249099731445,-0.3351110517978668
2477227359.0,-1.182807207107544,0.3036474287509918,9.827786445617676,-3.6171658039093018,-2.606043577194214,-0.1834491640329361
2477235692.0,-1.213474988937378,0.4385188221931457,9.833782196044922,-2.986030578613281,-2.94507360458374,-0.3410791456699371
2477244025.0,-1.0592715740203855,0.5460001230239868,9.609429359436035,-3.0826218128204346,-3.435535192489624,-0.2916180789470672
2477252358.0,-0.7459586262702942,0.3551949262619018,9.685361862182615,-3.316019296646118,-3.677282094955444,-0.2122651785612106
2477260691.0,-0.4442827701568603,0.2249332070350647,9.94048023223877,-3.360536336898804,-3.5537705421447754,-0.2234585732221603
2477269024.0,-0.3072015643119812,0.4921830296516418,10.032833099365234,-2.9630801677703857,-2.8901309967041016,-0.305552214384079
2477277357.0,-0.4723594486713409,0.6158510446548462,9.843082427978516,-3.1455559730529785,-2.382431030273437,-0.320254772901535
2477285690.0,-0.7947571277618408,0.2952506840229034,9.763262748718262,-3.41722059249878,-2.144423723220825,-0.3524518609046936
2477294023.0,-1.0928583145141602,0.0164453145116567,9.886947631835938,-3.2113077640533447,-2.3143999576568604,-0.307242751121521
2477302356.0,-1.23368501663208,0.3373189568519592,9.90999984741211,-2.616750240325928,-2.621309518814087,-0.3402850925922394
2477310689.0,-1.1323611736297607,0.8872790932655334,9.540325164794922,-2.607733964920044,-3.09296989440918,-0.2832422256469726
2477319022.0,-0.8990366458892822,0.8682000637054443,9.383532524108888,-3.3805413246154785,-3.5089449882507324,-0.3330363035202026
2477327355.0,-0.635791003704071,0.1996062994003296,9.727293968200684,-3.7988474369049072,-3.521803855895996,-0.3316018879413605
2477335688.0,-0.4616037607192993,-0.0713626444339752,10.21328067779541,-3.131289482116699,-3.0725560188293457,-0.2196164578199386
2477344021.0,-0.4864199459552765,0.3738434016704559,10.16692066192627,-2.552304744720459,-2.6774816513061523,-0.3202035427093506
2477352354.0,-0.6332540512084961,0.8572046160697937,9.708394050598145,-2.653353214263916,-2.261558055877685,-0.2929756343364715
2477360687.0,-0.9169947504997252,0.7150984406471252,9.509785652160645,-3.3406851291656494,-2.104542255401612,-0.3628000020980835
2477369020.0,-1.1445704698562622,0.2571116089820862,9.750574111938477,-3.4232401847839355,-2.4254374504089355,-0.3146708905696869
2477377353.0,-1.2392175197601318,0.2564888596534729,9.932868957519531,-2.9317026138305664,-2.650535345077514,-0.3293990790843963
2477385686.0,-1.138211727142334,0.5956459641456604,9.79271411895752,-2.727583408355713,-3.2371270656585693,-0.2340116798877716
2477394019.0,-0.8916990160942078,0.5558401942253113,9.633352279663086,-3.1464014053344727,-3.470985174179077,-0.3360844254493713
2477402352.0,-0.5945298671722412,0.3608266413211822,9.819955825805664,-3.176651954650879,-3.3484466075897217,-0.372763991355896
2477410685.0,-0.4383304119110107,0.5024380087852478,10.009268760681152,-2.9793450832366943,-2.99074387550354,-0.1719739735126495
2477419018.0,-0.5815041065216064,0.6698712110519409,9.864927291870115,-2.898890972137451,-2.506455421447754,-0.2575255334377289
2477427351.0,-0.8400317430496216,0.5532694458961487,9.699420928955078,-3.186948537826538,-2.1925272941589355,-0.3685632050037384
2477435684.0,-1.1249651908874512,0.1899443417787552,9.84766960144043,-3.3224990367889404,-2.363604784011841,-0.300403743982315
2477444017.0,-1.224875807762146,0.3115477561950683,9.96801471710205,-2.757244348526001,-2.762546300888061,-0.2313989996910095
2477452350.0,-1.142669439315796,0.848223865032196,9.777260780334473,-2.5264854431152344,-3.0575454235076904,-0.1599608957767486
2477460683.0,-0.9581184387207032,1.125758171081543,9.476229667663574,-2.9771173000335693,-3.403337955474853,-0.229631632566452
2477469016.0,-0.6884839534759521,0.6553356051445007,9.586169242858888,-3.728894472122192,-3.354542732238769,-0.3938701152801513
2477477349.0,-0.5452637076377869,0.0965007543563842,10.056321144104004,-3.4588184356689453,-3.195863008499145,-0.2826787233352661
2477485682.0,-0.5454777479171753,0.2690434753894806,10.25892734527588,-2.841796636581421,-2.8267359733581543,-0.3597263097763061
2477494015.0,-0.6834018230438232,0.8897302746772766,9.855265617370604,-2.6147265434265137,-2.4020261764526367,-0.2367011457681656
2477502348.0,-0.8496443033218384,0.994024097919464,9.531850814819336,-3.241788625717163,-2.3122992515563965,-0.273329496383667
2477510681.0,-1.0683144330978394,0.5769107937812805,9.634682655334473,-3.6094813346862793,-2.5267162322998047,-0.2316551506519317
2477519014.0,-1.1832844018936155,0.3132623732089996,9.899731636047363,-3.33438491821289,-2.924121379852295,-0.1190549731254577
2477527347.0,-1.1238292455673218,0.5930318236351013,9.887371063232422,-2.929244041442871,-3.24096941947937,-0.2302463799715042
2477535680.0,-0.883798360824585,0.7634416818618774,9.656906127929688,-3.175986051559448,-3.4968812465667725,-0.2457942366600036
2477544013.0,-0.6418378353118896,0.547254741191864,9.669828414916992,-3.4844839572906494,-3.4879674911499023,-0.3101628124713897
2477552346.0,-0.4200047850608825,0.4721129536628723,9.941561698913574,-3.361382007598877,-3.2842319011688232,-0.3390812873840332
2477560679.0,-0.4024782180786133,0.5924449563026428,10.004175186157228,-3.210103988647461,-2.6740496158599854,-0.3401570916175842
2477569012.0,-0.6714159250259399,0.6149948835372925,9.787582397460938,-3.3453214168548584,-2.2436017990112305,-0.3258898854255676
2477577345.0,-0.9827924966812134,0.3791401386260986,9.69067096710205,-3.506922006607056,-2.2603540420532227,-0.3764268159866333
2477585678.0,-1.1627588272094729,0.2345369160175323,9.853344917297363,-3.2361793518066406,-2.4171130657196045,-0.3606484234333038
2477594011.0,-1.207358717918396,0.5524600744247437,9.886385917663574,-2.947865724563598,-3.0179460048675537,-0.322329580783844
2477602344.0,-0.9999285340309144,0.9258188605308532,9.565181732177734,-2.9955849647521973,-3.471036434173584,-0.2982777655124664
2477610677.0,-0.7377554178237915,0.7259864211082458,9.45143985748291,-3.580204486846924,-3.482588529586792,-0.2914900183677673
2477619010.0,-0.5627519488334656,0.1176086142659187,9.86802864074707,-3.911139726638794,-3.3465254306793213,-0.2723817527294159
2477627343.0,-0.4460105895996094,-0.0479191206395626,10.23672866821289,-3.038360118865967,-2.826761245727539,-0.2713572084903717
2477635676.0,-0.5584127902984619,0.5365400314331055,10.039616584777832,-2.6379587650299072,-2.524641275405884,-0.3448444604873657
2477644009.0,-0.7626479864120483,0.8853650093078613,9.59474277496338,-2.94020676612854,-2.3079702854156494,-0.2248161286115646
2477652342.0,-1.0192737579345703,0.581316351890564,9.519801139831545,-3.616576671600342,-2.363579273223877,-0.2743540704250335
2477660675.0,-1.192050218582153,0.1253108531236648,9.83871841430664,-3.588785171508789,-2.46370530128479,-0.3613143861293793
2477669008.0,-1.2518908977508545,0.2227726131677627,9.975386619567873,-3.0039093494415283,-2.851811647415161,-0.2918741703033447
2477677341.0,-1.0837746858596802,0.5912718772888184,9.732890129089355,-2.8894906044006348,-3.293452978134156,-0.2798355519771576
2477685674.0,-0.7862766981124878,0.5516653656959534,9.644777297973633,-3.207619428634644,-3.520958662033081,-0.3070122003555298
2477694007.0,-0.5187608599662781,0.3799234926700592,9.871123313903809,-3.331515550613404,-3.3413002490997314,-0.2237659841775894
2477702340.0,-0.3669280409812927,0.426166832447052,10.013044357299805,-3.036593198776245,-2.8922829627990723,-0.267079621553421
2477710673.0,-0.5656904578208923,0.5301926732063293,9.927119255065918,-3.0370798110961914,-2.332124710083008,-0.2365474700927734
2477719006.0,-0.8555641770362854,0.3537453711032867,9.75636100769043,-3.1652536392211914,-2.231973171234131,-0.268309086561203
2477727339.0,-1.127236247062683,0.1052582189440727,9.846972465515137,-3.029549121856689,-2.3249785900115967,-0.260343074798584
2477735672.0,-1.2492351531982422,0.3415409326553345,9.881500244140623,-2.757321119308472,-2.731194496154785,-0.211880937218666
2477744005.0,-1.1297812461853027,0.8890257477760315,9.671908378601074,-2.507786989212036,-3.172271251678467,-0.3246347606182098
2477752338.0,-0.931722104549408,0.9974193572998048,9.41088581085205,-3.1207876205444336,-3.4635822772979736,-0.2529405951499939
2477760671.0,-0.6851335167884827,0.4038997888565063,9.655323028564451,-3.791700601577759,-3.488633155822754,-0.2794000804424286
2477769004.0,-0.51502525806427,-0.0674864202737808,10.157488822937012,-3.3609979152679443,-3.169198751449585,-0.4238899946212768
2477777337.0,-0.4857746064662933,0.265124499797821,10.239768028259276,-2.6309144496917725,-2.7310919761657715,-0.3415401577949524
2477785670.0,-0.6375167965888977,0.9121006727218628,9.793243408203123,-2.506225109100342,-2.4418821334838867,-0.1407758593559265
2477794003.0,-0.849723219871521,0.9448115229606628,9.455462455749512,-3.2901482582092285,-2.294856309890747,-0.3343938291072845
2477802336.0,-1.08752179145813,0.4310842156410217,9.65928840637207,-3.669546842575073,-2.472004175186157,-0.1949499547481537
2477810669.0,-1.2088440656661987,0.2099780589342117,9.9490966796875,-3.169403076171875,-2.663726568222046,-0.2640059292316437
2477819002.0,-1.1636909246444702,0.5212857723236084,9.836699485778809,-2.701840400695801,-3.182927131652832,-0.2222547084093094
2477827335.0,-0.9468786716461182,0.7072792649269104,9.599085807800291,-2.996532440185547,-3.58069109916687,-0.3306029438972473
2477835668.0,-0.6283048987388611,0.529862642288208,9.6783447265625,-3.2635610103607178,-3.61552619934082,-0.3088820874691009
2477844001.0,-0.3706942200660705,0.4991987943649292,9.961824417114258,-3.230569839477539,-3.289380073547364,-0.2954602241516113
2477852334.0,-0.4075532257556915,0.6769592761993408,9.953876495361328,-2.970431566238404,-2.678378105163574,-0.3251470625400543
2477860667.0,-0.6557213664054871,0.5948522090911865,9.774532318115234,-3.200242519378662,-2.16765570640564,-0.30452761054039
2477869000.0,-0.9921143651008606,0.214198425412178,9.81676959991455,-3.3374829292297363,-2.2251596450805664,-0.3403619229793548
2477877333.0,-1.194539189338684,0.2099557816982269,9.946685791015623,-2.903322219848633,-2.465754270553589,-0.3021455109119415
2477885666.0,-1.166184663772583,0.7782618403434753,9.811945915222168,-2.5469770431518555,-2.9010169506073,-0.2793232202529907
2477893999.0,-1.0036656856536863,1.1412917375564575,9.431949615478516,-2.965001344680786,-3.197681188583374,-0.2588318288326263
2477902332.0,-0.7654650211334229,0.7570810914039612,9.457836151123049,-3.709094524383545,-3.586812734603882,-0.3503002524375915
2477910665.0,-0.5698006749153137,0.0851461142301559,9.949637413024902,-3.8364996910095215,-3.2577974796295166,-0.2678480446338653
2477918998.0,-0.4877902269363403,0.0573154650628566,10.339252471923828,-3.0310096740722656,-2.90176010131836,-0.2503535151481628
2477927331.0,-0.5924174189567566,0.7089218497276306,9.992022514343262,-2.503253698348999,-2.598461866378784,-0.2188992649316787
2477935664.0,-0.7915864586830139,1.032002568244934,9.518293380737305,-3.0358245372772217,-2.249569892883301,-0.3362892866134643
2477943997.0,-1.0037676095962524,0.6837299466133118,9.551379203796388,-3.7512047290802,-2.3089184761047363,-0.371560126543045
2477952330.0,-1.1852039098739624,0.2696353793144226,9.871625900268556,-3.5072546005249023,-2.5317366123199463,-0.2635961174964905
2477960663.0,-1.209145426750183,0.3787941038608551,9.94437313079834,-3.015282392501831,-2.906191110610962,-0.27655690908432
2477968996.0,-1.0639804601669312,0.6076793670654297,9.70293140411377,-3.099911689758301,-3.3490614891052246,-0.190928503870964
2477977329.0,-0.7807159423828125,0.5444037318229675,9.650226593017578,-3.26174259185791,-3.5773611068725586,-0.2503535449504852
2477985662.0,-0.512258768081665,0.4595533907413482,9.870098114013672,-3.2962448596954346,-3.474263906478882,-0.3040153980255127
2477993995.0,-0.4078707993030548,0.5686969757080078,9.992178916931152,-3.193096160888672,-2.836469411849976,-0.2495082765817642
2478002328.0,-0.5875257849693298,0.5961618423461914,9.84137725830078,-3.28315544128418,-2.3035905361175537,-0.3470984399318695
2478010661.0,-0.8780961632728577,0.2944450974464416,9.760553359985352,-3.583508253097534,-2.1096906661987305,-0.35432168841362
2478018994.0,-1.1453038454055786,0.0403318852186203,9.918461799621582,-3.244964838027954,-2.348236083984375,-0.3641319572925567
2478027327.0,-1.255459904670715,0.4037856161594391,9.926608085632324,-2.5592970848083496,-2.625868320465088,-0.1815536618232727
2478035660.0,-1.1105037927627563,0.9609553217887878,9.616230964660645,-2.694207668304444,-3.140766143798828,-0.3104957044124603
2478043993.0,-0.9082617163658142,0.9332313537597656,9.37929344177246,-3.456461906433105,-3.4495201110839844,-0.3692035973072052
2478052326.0,-0.6788747310638428,0.2236533313989639,9.743541717529297,-3.951866865158081,-3.544395685195923,-0.1870863884687423
2478060659.0,-0.4930824935436249,-0.1581625044345855,10.229158401489258,-3.2457332611083984,-3.168019771575928,-0.316873699426651
2478068992.0,-0.5185871720314026,0.3553388118743896,10.19208526611328,-2.592186212539673,-2.689161539077759,-0.2717413902282715
2478077325.0,-0.6384669542312622,0.8475857377052307,9.728628158569336,-2.628071546554565,-2.4679057598114014,-0.2741235494613647
2478085658.0,-0.8482168316841125,0.7740870118141174,9.48394012451172,-3.421908378601074,-2.4003612995147705,-0.3062950372695923
2478093991.0,-1.0748069286346436,0.3260209858417511,9.73935890197754,-3.551567554473877,-2.318908214569092,-0.3607252836227417
2478102324.0,-1.2111353874206543,0.2586960196495056,9.928903579711914,-3.0495026111602783,-2.696640968322754,-0.3466630578041076
2478110657.0,-1.170602560043335,0.5369023680686951,9.79007625579834,-2.9613900184631348,-3.205211877822876,-0.3001732528209686
2478118990.0,-0.9010520577430724,0.5797728896141052,9.609841346740724,-3.1010899543762207,-3.527848958969116,-0.367154449224472
2478127323.0,-0.581064760684967,0.4014258682727813,9.81019115447998,-3.208951711654663,-3.577566146850586,-0.3170786499977112
2478135656.0,-0.3595348000526428,0.5109875798225403,10.019351959228516,-3.0183048248291016,-3.1934292316436768,-0.3535277247428894
2478143989.0,-0.4154790639877319,0.6721135973930359,9.90659999847412,-3.0386807918548584,-2.557337999343872,-0.3100218772888183
2478152322.0,-0.6991066336631775,0.5182529091835022,9.727910041809082,-3.346461534500122,-2.093515396118164,-0.3629408776760101
2478160655.0,-1.0315293073654177,0.1253558099269867,9.85281467437744,-3.3775575160980225,-2.1754813194274902,-0.3078446686267853
2478168988.0,-1.2450400590896606,0.2032061070203781,9.970281600952148,-2.8034396171569824,-2.574422836303711,-0.2411195784807205
2478177321.0,-1.173924207687378,0.8365997672080994,9.72550106048584,-2.4408700466156006,-2.9745423793792725,-0.1976010054349899
2478185654.0,-1.005934715270996,1.1497758626937866,9.38535976409912,-2.934328556060791,-3.3896727561950684,-0.3585096597671509
2478193987.0,-0.7249340415000916,0.6199016571044922,9.548800468444824,-3.779418230056762,-3.625963449478149,-0.2666569948196411
2478202320.0,-0.5248771905899048,0.0107700694352388,10.05984878540039,-3.701602697372437,-3.3994314670562744,-0.3660145998001098
2478210653.0,-0.4679617583751678,0.1211621686816215,10.298661231994627,-2.698575019836426,-2.833715438842773,-0.2581018209457397
2478218986.0,-0.5966451168060303,0.7994871735572815,9.911178588867188,-2.483594417572021,-2.37493896484375,-0.2488550841808319
2478227319.0,-0.8394777774810791,0.9671237468719482,9.5065336227417,-2.979947090148926,-2.128965377807617,-0.2413245141506195
2478235652.0,-1.0651278495788574,0.5870969891548157,9.604728698730469,-3.598095893859864,-2.2481231689453125,-0.3899639248847961
2478243985.0,-1.2155051231384275,0.3026967048645019,9.910412788391112,-3.338367462158203,-2.555673360824585,-0.3239048421382904
2478252318.0,-1.1809892654418943,0.5133088827133179,9.876283645629885,-2.8861992359161377,-3.069212913513184,-0.3152215480804443
2478260651.0,-0.9532049894332886,0.6474311351776123,9.654571533203123,-3.0563290119171143,-3.419487953186035,-0.2674766778945923
2478268984.0,-0.6777710318565369,0.4701085090637207,9.719765663146973,-3.5198442935943604,-3.469153881072998,-0.3310768008232116
2478277317.0,-0.4495173990726471,0.4089392721652984,9.98438835144043,-3.245490550994873,-3.128253936767578,-0.2941923439502716
2478285650.0,-0.4880026280879974,0.6360992193222046,9.994305610656738,-2.8760814666748047,-2.755028486251831,-0.2782346308231354
2478293983.0,-0.7258761525154114,0.720808744430542,9.75464916229248,-3.116060972213745,-2.172586441040039,-0.2497003525495529
2478302316.0,-1.034420609474182,0.3734151721000671,9.685623168945312,-3.4706902503967285,-2.162930011749268,-0.2749816179275512
2478310649.0,-1.2260665893554688,0.1049864366650581,9.897171020507812,-3.218723058700561,-2.6547234058380127,-0.2425796389579773
2478318982.0,-1.2060236930847168,0.5203343033790588,9.932710647583008,-2.5707597732543945,-3.0571999549865723,-0.1866381168365478
2478327315.0,-0.986137628555298,1.0114854574203491,9.60149097442627,-2.7140462398529053,-3.324920177459717,-0.3067432940006256
2478335648.0,-0.7278152704238892,0.8929510712623596,9.459031105041504,-3.5702528953552246,-3.6008105278015137,-0.2473438531160354
2478343981.0,-0.5606304407119751,0.2319864481687545,9.813858032226562,-3.921654224395752,-3.3563740253448486,-0.2901708483695984
2478352314.0,-0.4694769084453583,-0.0220605954527854,10.24269962310791,-3.1991286277771,-3.05681586265564,-0.3743904829025268
2478360647.0,-0.5976925492286682,0.5079300403594971,10.082874298095703,-2.523117780685425,-2.386081457138061,-0.2031081020832061
2478368980.0,-0.8282275199890137,0.9095882177352904,9.608004570007324,-2.871214866638184,-2.3306262493133545,-0.3667830228805542
2478377313.0,-1.0327136516571045,0.704417884349823,9.453095436096191,-3.468820571899414,-2.3413844108581543,-0.2326669245958328
2478385646.0,-1.1583683490753174,0.2665576040744781,9.769331932067873,-3.600349903106689,-2.7108187675476074,-0.3603282570838928
2478393979.0,-1.16383957862854,0.3368345499038696,9.95516586303711,-3.026667833328247,-3.074310302734375,-0.2477793097496032
2478402312.0,-0.9635278582572936,0.6343843936920166,9.743209838867188,-2.99728798866272,-3.3304784297943115,-0.3621212840080261
2478410645.0,-0.697837233543396,0.5494857430458069,9.606427192687988,-3.3119845390319824,-3.4842145442962646,-0.2086663693189621
2478418978.0,-0.4767105877399444,0.3294358849525451,9.8733549118042,-3.4756343364715576,-3.344130516052246,-0.2402487248182296
2478427311.0,-0.4159498214721679,0.3860352039337158,10.0751953125,-2.974900960922241,-2.7130722999572754,-0.2779272496700287
2478435644.0,-0.6360898613929749,0.6589834690093994,9.825196266174316,-3.053510904312134,-2.17537808418274,-0.3765420019626617
2478443977.0,-0.9371816515922546,0.5126000642776489,9.687556266784668,-3.256913900375366,-2.200839042663574,-0.2537730038166046
2478452310.0,-1.181238055229187,0.1246009171009063,9.810786247253418,-3.338418245315552,-2.269280195236206,-0.3568958938121795
2478460643.0,-1.2272299528121948,0.235418438911438,9.986952781677246,-2.815093755722046,-2.929486989974976,-0.1727039664983749
2478468976.0,-1.0525627136230469,0.790989100933075,9.76000690460205,-2.650573968887329,-3.3080146312713623,-0.2472670376300811
2478477309.0,-0.8004844784736633,0.9471972584724426,9.463472366333008,-3.1827609539031982,-3.491079092025757,-0.2650176882743835
2478485642.0,-0.555180549621582,0.4291344285011291,9.679605484008787,-3.698810338973999,-3.4712026119232178,-0.3098682165145874
2478493975.0,-0.4513214528560638,-0.051586028188467,10.163068771362305,-3.411368131637573,-3.062732696533203,-0.2911185622215271
2478502308.0,-0.5543420314788818,0.2498016357421875,10.252079010009766,-2.740454196929932,-2.435875415802002,-0.2385581731796264
2478510641.0,-0.7716184258460999,0.8463502526283264,9.751057624816896,-2.5875372886657715,-2.1149544715881348,-0.250904232263565
2478518974.0,-1.0615901947021484,0.8597567081451416,9.407357215881348,-3.2715392112731934,-2.2489678859710693,-0.3402722775936126
2478527307.0,-1.2113887071609497,0.3985593020915985,9.631157875061035,-3.623172044754028,-2.570862531661988,-0.3338431119918823
2478535640.0,-1.1912676095962524,0.2552864849567413,9.955544471740724,-3.1821205615997314,-3.0202643871307373,-0.318244069814682
2478543973.0,-1.040379524230957,0.5391876101493835,9.86495304107666,-2.846036195755005,-3.2603464126586914,-0.2290296852588653
2478552306.0,-0.7512018084526062,0.6116006970405579,9.65080451965332,-3.188165664672852,-3.563849687576294,-0.2987772524356842
2478560639.0,-0.549610435962677,0.3808035254478454,9.77928638458252,-3.2439022064208984,-3.2808125019073486,-0.2840490639209747
2478568972.0,-0.405152827501297,0.3719299733638763,9.917813301086426,-3.0120158195495605,-2.699727296829224,-0.2855346500873565
2478577305.0,-0.6214345693588257,0.3338611423969269,9.62726879119873,-2.9381191730499268,-2.0645971298217773,-0.3756199479103088
2478585638.0,-1.015142798423767,-0.0784921422600746,9.404547691345217,-2.9579193592071533,-1.894851565361023,-0.4240052700042724
2478593971.0,-1.3369028568267822,0.1544309109449386,9.469797134399414,-2.289541482925415,-2.472375869750977,-0.2240605652332306
2478602304.0,-1.1551505327224731,0.9110371470451356,9.883645057678224,-2.518378734588623,-3.160527467727661,-0.2210636436939239
2478610637.0,-0.933591604232788,0.6180424690246582,9.85590648651123,-2.6033928394317627,-3.624836921691896,-0.2119449973106384
2478618970.0,-0.613417387008667,0.4385778903961181,9.40213108062744,-2.649523973464966,-3.9183249473571777,-0.1345387697219848
2478627303.0,-0.153204932808876,0.6553772687911987,9.612343788146973,-2.865605354309082,-3.890174388885498,-0.1941943168640136
2478635636.0,0.1725875586271286,0.4433602094650268,10.210567474365234,-3.0315091609954834,-3.011709213256836,-0.319755345582962
2478643969.0,-0.1731419265270233,0.5366829633712769,10.275959014892578,-2.386747121810913,-1.8746929168701167,-0.2708833217620849
2478652302.0,-0.5991172194480896,1.2064110040664673,9.846137046813965,-2.538870334625244,-1.397986650466919,-0.2720872461795807
2478660635.0,-1.2005447149276731,1.264965534210205,9.591023445129396,-3.400071382522583,-1.5229581594467163,-0.1074388921260833
2478668968.0,-1.490409016609192,0.4183641374111175,9.72208309173584,-3.9729602336883545,-2.2853660583496094,-0.1966789215803146
2478677301.0,-1.385168433189392,0.0833298340439796,10.007159233093262,-3.4135196208953857,-3.035043716430664,-0.1502915173768997
2478685634.0,-1.0397088527679443,0.5495533347129822,9.947388648986816,-2.963528633117676,-3.5217649936676025,-0.0024461592547595
2478693967.0,-0.6293675899505615,0.6707531809806824,9.813132286071776,-3.361419916152954,-3.812307357788086,-0.2126109451055526
2478702300.0,-0.2134385704994201,0.4072968363761902,9.901371002197266,-3.41200852394104,-3.4014296531677246,-0.2782858610153198
2478710633.0,-0.1110313087701797,0.4792747795581817,10.02245044708252,-3.1945433616638184,-2.4478116035461426,-0.3049246072769165
2478718966.0,-0.5207809209823608,0.67169189453125,10.008461952209473,-3.108095645904541,-1.5685007572174072,-0.2966769337654114
2478727299.0,-1.017914056777954,0.2578093409538269,9.804378509521484,-3.377223491668701,-1.4466533660888672,-0.4163208901882171
2478735632.0,-1.436356782913208,-0.082610547542572,9.708366394042969,-3.0935208797454834,-1.8164207935333248,-0.3529513776302337
2478743965.0,-1.5516737699508667,0.172909066081047,9.798272132873535,-2.488666296005249,-2.5191729068756104,-0.4693168699741363
2478752298.0,-1.3094713687896729,0.6720842719078064,9.750327110290527,-2.179118156433105,-3.204968214035034,-0.4319712221622467
2478760631.0,-0.9931869506835938,1.0233676433563232,9.53209114074707,-2.50943922996521,-3.584290027618408,-0.3814087808132171
2478768964.0,-0.5867129564285278,0.8195471167564392,9.50246810913086,-3.210193395614624,-3.5181539058685303,-0.3612247109413147
2478777297.0,-0.3630710244178772,0.3221531212329864,9.83653736114502,-3.34615421295166,-2.9316134452819824,-0.3203188180923462
2478785630.0,-0.4624382853507995,0.1653909385204315,10.081709861755373,-2.934635639190674,-2.4103891849517822,-0.4851720333099365
2478793963.0,-0.7115978002548218,0.5852342247962952,9.917134284973145,-2.628366470336914,-1.86757242679596,-0.3562812209129333
2478802296.0,-0.9848013520240784,0.7607235312461853,9.664794921875,-2.777543306350708,-1.7862213850021362,-0.3665269017219543
2478810629.0,-1.283907413482666,0.6051634550094604,9.578296661376951,-3.223231077194214,-2.055580377578736,-0.3074860274791717
2478818962.0,-1.4015272855758667,0.5879915356636047,9.68560028076172,-3.116573572158813,-2.620887041091919,-0.2092810869216919
2478827295.0,-1.314008355140686,0.873206377029419,9.76961898803711,-3.2095277309417725,-3.086758613586426,-0.2101520150899887
2478835628.0,-1.086946725845337,0.7970997095108032,9.637909889221191,-3.465055465698242,-3.529167890548706,-0.3230851590633392
2478843961.0,-0.7363959550857544,0.3173243403434753,9.74557876586914,-3.809028863906861,-3.615359544754028,-0.2331791669130325
2478852294.0,-0.4371152222156524,0.0575000382959842,10.033245086669922,-3.4539389610290527,-3.422356605529785,-0.1811822950839996
2478860627.0,-0.325908899307251,0.3821797966957092,10.164569854736328,-2.894549369812012,-2.718733072280884,-0.2115351557731628
2478868960.0,-0.5289679765701294,0.6956248879432678,9.923158645629885,-2.901234865188598,-2.121947288513184,-0.20815409719944
2478877293.0,-0.9735652208328248,0.4443565011024475,9.765437126159668,-3.2602946758270264,-1.901305913925171,-0.3568190634250641
2478885626.0,-1.304402232170105,0.1230015680193901,9.826589584350586,-3.0221850872039795,-2.2517857551574707,-0.2984442412853241
2478893959.0,-1.4342308044433594,0.2308415323495865,9.840706825256348,-2.4584157466888428,-2.908253192901612,-0.3724949955940246
2478902292.0,-1.213735580444336,0.6613751649856567,9.57231330871582,-2.301708221435547,-3.604525327682495,-0.3869414925575256
2478910625.0,-0.8175869584083557,0.6361883282661438,9.447476387023926,-2.942960023880005,-3.9385600090026855,-0.3661938905715942
2478918958.0,-0.4291207492351532,0.0707832649350166,9.746122360229492,-3.187653064727783,-3.9027256965637207,-0.4099942445755005
2478927291.0,-0.2142277806997299,-0.1574555039405822,10.10057258605957,-2.548449754714966,-3.18970251083374,-0.3801792562007904
2478935624.0,-0.3440011143684387,0.3367213606834411,10.017179489135742,-1.8275372982025144,-2.3435873985290527,-0.2631734609603882
2478943957.0,-0.7149786949157715,0.7564467191696167,9.475872993469238,-1.9538153409957888,-1.9771242141723635,-0.2962158322334289
2478952290.0,-1.1205151081085205,0.4648543000221252,9.204160690307615,-2.738584518432617,-2.213569641113281,-0.1942711621522903
2478960623.0,-1.2627310752868652,-0.075099691748619,9.359718322753906,-2.701341152191162,-2.612203598022461,-0.259613037109375
2478968956.0,-1.1965852975845337,-0.1382199972867965,9.545910835266112,-2.16979455947876,-3.1038174629211426,-0.1266751885414123
2478977289.0,-0.9597604870796204,0.0055224932730197,9.370430946350098,-1.8378852605819704,-3.715869188308716,-0.0776751637458801
2478985622.0,-0.5691921710968018,0.1361828446388244,9.267019271850586,-1.904456734657288,-3.71753454208374,-0.0276249498128891
2478993955.0,-0.2667184770107269,0.1345935463905334,9.427746772766112,-2.14371919631958,-3.342618942260742,0.028252501040697
2479002288.0,-0.2664617002010345,0.0506142750382423,9.564207077026367,-1.9970779418945312,-2.584463596343994,0.0667250826954841
2479010621.0,-0.595562219619751,0.0699286088347435,9.468642234802246,-1.7709298133850098,-2.122741460800171,0.0121155343949794
2479018954.0,-0.9130719900131226,0.1422557681798935,9.30577564239502,-1.8915728330612185,-2.043900728225708,0.1196184903383255
2479027287.0,-1.1832820177078247,0.0270618312060832,9.43514919281006,-1.8716193437576287,-2.445685148239136,-0.0201968234032392
2479035620.0,-1.1257500648498535,0.3915677964687347,9.667505264282228,-1.4223970174789429,-2.978077888488769,0.0502295196056366
2479043953.0,-0.9220835566520692,1.055981993675232,9.695098876953123,-1.434358835220337,-3.109863042831421,-0.004341613035649
2479052286.0,-0.6550548076629639,1.2907800674438477,9.641053199768066,-2.105400562286377,-3.453784942626953,-0.195423811674118
2479060619.0,-0.4052577614784241,1.013921141624451,9.841983795166016,-2.7260079383850098,-3.227022409439087,-0.3175781071186065
2479068952.0,-0.291556566953659,0.7090591192245483,10.290127754211426,-2.725725650787353,-2.827465772628784,-0.3441400229930877
2479077285.0,-0.3617900311946869,0.9370795488357544,10.515984535217283,-2.2114431858062744,-2.2645671367645264,-0.4242101311683655
2479085618.0,-0.5496789813041687,1.4981855154037476,10.31804656982422,-2.2809345722198486,-1.83604109287262,-0.4760533571243286
2479093951.0,-0.7523555159568787,1.6047452688217163,10.168554306030272,-3.080995798110962,-1.8017951250076287,-0.584683358669281
2479102284.0,-0.9602676630020142,1.3658732175827026,10.255398750305176,-3.473686695098877,-1.9279959201812744,-0.584452748298645
2479110617.0,-1.0877221822738647,1.221295714378357,10.453245162963867,-3.563746929168701,-2.0725884437561035,-0.6661621928215027
2479118950.0,-1.149484395980835,1.1843727827072144,10.51949977874756,-3.6832375526428223,-2.3543198108673096,-0.84090256690979
2479127283.0,-1.0098646879196167,1.0337467193603516,10.383308410644531,-3.824038982391357,-2.738687038421631,-0.820846676826477
2479135616.0,-0.7296517491340637,0.9036791920661926,10.422036170959473,-3.730700492858887,-2.821574687957764,-0.8505846261978149
2479143949.0,-0.5665693283081055,0.9210177659988404,10.4610595703125,-3.6409740447998047,-2.460055351257324,-0.7741518616676331
2479152282.0,-0.5881714820861816,1.0800544023513794,10.46201515197754,-3.774680614471436,-1.9746655225753784,-0.7231538891792297
2479160615.0,-0.8616898655891418,0.7603929042816162,10.449450492858888,-4.045064449310303,-1.5297718048095703,-0.6109635829925537
2479168948.0,-1.2409316301345823,0.3129402101039886,10.369738578796388,-3.878622770309448,-1.443118929862976,-0.6091192960739136
2479177281.0,-1.588405728340149,0.4290643632411957,10.208381652832031,-3.252994537353516,-1.8453389406204224,-0.4606335163116455
2479185614.0,-1.684791922569275,0.9148038029670716,9.95202350616455,-2.9393229484558105,-2.261416435241699,-0.4994134604930877
2479193947.0,-1.5291509628295898,1.1045267581939695,9.735401153564451,-3.440004825592041,-2.925389289855957,-0.3547187447547912
2479202280.0,-1.2608036994934082,0.6086649894714355,9.835472106933594,-3.983768939971924,-3.209297180175781,-0.1805419325828552
2479210613.0,-0.985782504081726,0.1611226201057434,10.12435531616211,-3.817046642303467,-3.146644592285156,-0.2622513473033905
2479218946.0,-0.8538323044776917,0.3723463118076324,10.196207046508787,-2.9601216316223145,-2.8951895236968994,-0.1050567701458931
2479227279.0,-0.9348349571228028,0.9368197321891784,9.839251518249512,-2.8617374897003174,-2.2923073768615723,-0.0487310774624347
2479235612.0,-1.1387637853622437,0.9891141653060912,9.510475158691406,-3.483625650405884,-2.125891923904419,0.1119854375720024
2479243945.0,-1.3501750230789185,0.5550691485404968,9.480425834655762,-3.927546262741089,-2.4354910850524902,0.1585521250963211
2479252278.0,-1.4236059188842771,0.3210198283195495,9.663068771362305,-3.579986333847046,-2.6626126766204834,0.1678244769573211
2479260611.0,-1.4020686149597168,0.5876511931419373,9.65987777709961,-3.385446071624756,-3.109504222869873,0.1666974574327469
2479268944.0,-1.2700421810150146,0.7296077013015747,9.426969528198242,-3.518128156661988,-3.363213300704956,0.098230592906475
2479277277.0,-0.9636549353599548,0.6430164575576782,9.32504653930664,-3.798373222351074,-3.5884387493133545,0.1074773222208023
2479285610.0,-0.754525899887085,0.5644893646240234,9.407320022583008,-3.855877161026001,-3.660031080245972,-0.0223996490240097
2479293943.0,-0.6364055275917053,0.5614863634109497,9.485857963562012,-3.845964193344116,-3.376020193099976,0.0540972650051116
2479302276.0,-0.6511750817298889,0.4277201294898987,9.4802827835083,-4.127413749694824,-3.14474892616272,-0.0814404562115669
2479310609.0,-0.7916330099105835,0.1239251568913459,9.497382164001465,-4.054234027862549,-2.9890401363372803,-0.1417619735002517
2479318942.0,-0.8910379409790039,0.0610196776688098,9.544482231140137,-3.731366634368897,-3.131686210632324,-0.2367139756679535
2479327275.0,-0.9244357347488404,0.5419294238090515,9.390864372253418,-3.302328109741211,-3.475147485733032,-0.291656494140625
2479335608.0,-0.8502302169799805,0.7645248770713806,9.233670234680176,-3.828726291656494,-3.7189688682556152,-0.3616858124732971
2479343941.0,-0.6636877059936523,0.3089858293533325,9.30638599395752,-4.2961602210998535,-4.103156566619873,-0.5966963768005371
2479352274.0,-0.5066124200820923,-0.2103757262229919,9.61728858947754,-4.323849678039551,-3.9132792949676514,-0.54390549659729
2479360607.0,-0.3802251815795898,-0.3594413101673126,9.852251052856444,-3.611107349395752,-3.802445650100708,-0.5726701617240906
2479368940.0,-0.3465704023838043,0.1195459440350532,9.731392860412598,-2.932919502258301,-3.490413188934326,-0.5764099359512329
2479377273.0,-0.4220851957798004,0.5632829666137695,9.532197952270508,-3.157044172286988,-3.1076600551605225,-0.5716456770896912
2479385606.0,-0.6320306062698364,0.2138100266456604,9.4712495803833,-3.842097043991089,-3.06160569190979,-0.6540210843086243
2479393939.0,-0.849855899810791,-0.2207081019878387,9.665176391601562,-3.505551815032959,-2.977565050125122,-0.7039176225662231
2479402272.0,-0.933989942073822,-0.0167020540684461,9.849761962890623,-3.04797887802124,-3.078613519668579,-0.5764099955558777
2479410605.0,-0.9884912371635436,0.1555212289094925,9.695481300354004,-2.875185251235962,-3.351097822189331,-0.6198517084121704
2479418938.0,-0.8238434791564941,0.2164700329303741,9.576448440551758,-3.054049253463745,-3.545407295227051,-0.5668814778327942
2479427271.0,-0.6461391448974609,0.1463103294372558,9.751822471618652,-2.887608289718628,-3.7034215927124015,-0.4116592407226562
2479435604.0,-0.5244423151016235,0.1862926185131073,9.97363567352295,-2.6290578842163086,-3.180506706237793,-0.5036910772323608
2479443937.0,-0.5816830396652222,0.4012975692749023,9.959639549255373,-2.6022398471832275,-2.692504405975342,-0.3060773015022278
2479452270.0,-0.761221706867218,0.3115949332714081,9.962235450744627,-2.809715032577514,-2.3852360248565674,-0.2626867890357971
2479460603.0,-0.9847907423973083,0.0593937076628208,9.991780281066896,-2.78043794631958,-2.3920235633850098,-0.3311024010181427
2479468936.0,-1.1881896257400513,0.2248113751411438,10.008301734924316,-2.210726261138916,-2.570862531661988,-0.3066408336162567
2479477269.0,-1.1612122058868408,0.686836838722229,9.96902084350586,-2.009270191192627,-3.01821517944336,-0.2008028179407119
2479485602.0,-1.0542006492614746,0.9336329698562622,9.805464744567873,-2.608156681060791,-3.2964370250701904,-0.130081906914711
2479493935.0,-0.7845113277435303,0.6379042267799377,9.871246337890623,-2.8975722789764404,-3.370129108428955,-0.0275993403047323
2479502268.0,-0.6413649916648865,0.2137316316366195,10.167062759399414,-2.813070774078369,-3.429118633270264,-0.1047238111495971
2479510601.0,-0.4629179239273071,0.4662292003631592,10.379167556762695,-2.141798257827759,-2.8769781589508057,-0.003931785468012
2479518934.0,-0.5854892730712891,0.8749826550483704,10.191177368164062,-1.994132280349732,-2.6166093349456787,0.0898547321557998
2479527267.0,-0.7317972779273987,1.023552656173706,9.867552757263184,-2.4555985927581787,-2.3748114109039307,0.0317360386252403
2479535600.0,-0.8775301575660706,0.8457553386688232,9.93150806427002,-2.689687013626098,-2.3338027000427246,-0.0192234851419925
2479543933.0,-1.002092719078064,0.8128998875617981,10.057271003723145,-2.7173759937286377,-2.410773754119873,-0.0800316855311393
2479552266.0,-1.078456997871399,0.940590798854828,10.04033088684082,-2.4796245098114014,-2.802953004837036,-0.0528037436306476
2479560599.0,-0.9319316744804382,1.0383505821228027,9.918201446533203,-2.7757246494293213,-3.0810465812683105,0.0303784813731908
2479568932.0,-0.6931561231613159,0.906047821044922,9.78345012664795,-2.9577653408050537,-3.1466193199157715,-0.1876114755868911
2479577265.0,-0.5168920159339905,0.9872131943702698,9.908937454223633,-2.875108003616333,-3.029280185699463,-0.2010333240032196
2479585598.0,-0.4427572190761566,1.062552809715271,9.992865562438965,-3.143519639968872,-2.673344850540161,-0.1585393100976944
2479593931.0,-0.5273630619049072,0.8618353605270386,9.943100929260254,-3.3229217529296875,-2.3139514923095703,-0.23576620221138
2479602264.0,-0.8214566111564636,0.5979661345481873,9.876336097717283,-3.458702325820923,-2.074765682220459,-0.2860213220119476
2479610597.0,-1.1014410257339478,0.5515740513801575,9.775779724121094,-3.1893179416656494,-1.9626520872116089,-0.3644008636474609
2479618930.0,-1.2342314720153809,0.8774230480194092,9.638875961303713,-3.0109403133392334,-2.5052897930145264,-0.4001583755016327
2479627263.0,-1.187927007675171,1.121177315711975,9.472723960876465,-3.413417100906372,-2.867910385131836,-0.3678844571113586
2479635596.0,-0.9852756857872008,0.8163483738899231,9.472381591796877,-3.894144773483277,-3.169236660003662,-0.4651929438114166
2479643929.0,-0.7878507375717163,0.2680616080760956,9.698234558105469,-3.937689065933228,-3.270617723464966,-0.5116059184074402
2479652262.0,-0.5963965654373169,0.1527693271636963,9.916862487792969,-3.3919267654418945,-3.015525579452514,-0.490704745054245
2479660595.0,-0.6272263526916504,0.5357215404510498,9.851804733276367,-3.057020425796509,-2.425065755844116,-0.5200842022895813
2479668928.0,-0.8358341455459595,0.8119165301322937,9.550016403198242,-3.298024654388428,-2.178861856460572,-0.5140647888183594
2479677261.0,-1.0913859605789185,0.5996972918510437,9.392573356628418,-3.678960084915161,-2.134011745452881,-0.5472609996795654
2479685594.0,-1.2902705669403076,0.3072322607040405,9.48222827911377,-3.650963306427002,-2.4264235496521,-0.4581234157085418
2479693927.0,-1.3496383428573608,0.3336231410503387,9.638429641723633,-3.488748788833618,-2.811328887939453,-0.3970334529876709
2479702260.0,-1.210046887397766,0.3445559740066528,9.644737243652344,-3.431936264038086,-3.195286273956299,-0.4347375929355621
2479710593.0,-0.913323938846588,0.3053670525550842,9.58749771118164,-3.456731081008911,-3.5657706260681152,-0.4256958067417145
2479718926.0,-0.6091253161430359,0.2985413372516632,9.62651252746582,-3.4049646854400635,-3.479988574981689,-0.2299262136220932
2479727259.0,-0.4549005031585693,0.3754693269729614,9.784780502319336,-3.282451629638672,-3.078357458114624,-0.2435529679059982
2479735592.0,-0.5984076857566833,0.4195631742477417,9.80508804321289,-3.3914146423339844,-2.6459381580352783,-0.2813596129417419
2479743925.0,-0.842279314994812,0.17167329788208,9.80629539489746,-3.507498025894165,-2.238466024398804,-0.27382892370224
2479752258.0,-1.0837194919586182,-0.1001382619142532,9.883243560791016,-3.0908308029174805,-2.585564613342285,-0.1845889389514923
2479760591.0,-1.1521503925323486,0.1687817871570587,9.834601402282717,-2.6489851474761963,-2.9355573654174805,-0.2930139899253845
2479768924.0,-1.0095818042755127,0.6672619581222534,9.7285795211792,-2.578546524047852,-3.280069351196289,-0.1323359459638595
2479777257.0,-0.8143180012702942,0.774443507194519,9.616669654846191,-3.162858724594116,-3.573582887649536,-0.0247305445373058
2479785590.0,-0.5923756957054138,0.2990222573280334,9.815996170043944,-3.5350592136383057,-3.5114428997039795,-0.0005250917747616
2479793923.0,-0.4591761827468872,-0.0503079891204834,10.095699310302734,-3.1714906692504883,-3.2852437496185303,-0.1811823099851608
2479802256.0,-0.4046798348426819,0.2897196114063263,10.152603149414062,-2.583899974822998,-2.8654518127441406,-0.2311556488275528
2479810589.0,-0.5518350601196289,0.7019568085670471,9.908835411071776,-2.5514466762542725,-2.535489082336426,-0.1710390448570251
2479818922.0,-0.7087230086326599,0.708512008190155,9.690025329589844,-2.8945236206054688,-2.395481586456299,-0.0351555347442626
2479827255.0,-0.9145523905754088,0.4471156597137451,9.774680137634276,-3.125692367553711,-2.448938369750977,-0.190019205212593
2479835588.0,-1.0355969667434692,0.2974583208560943,9.919954299926758,-2.9543325901031494,-2.5973215103149414,-0.1939893811941146
2479843921.0,-1.094886064529419,0.5127533674240112,9.896235466003418,-2.7566933631896973,-2.825160264968872,-0.2409659028053283
2479852254.0,-0.9529536366462708,0.6189098954200745,9.732269287109377,-2.974184036254883,-3.285320281982422,-0.2374311685562133
2479860587.0,-0.7137033343315125,0.3480043411254883,9.69661808013916,-3.2753305435180664,-3.399662494659424,-0.3422702252864837
2479868920.0,-0.4784816205501556,0.1954913139343261,9.84658432006836,-2.884406328201294,-3.2866525650024414,-0.2911698222160339
2479877253.0,-0.4128330051898956,0.4420506656169891,10.004384994506836,-2.5506527423858643,-2.729952096939087,-0.2705503702163696
2479885586.0,-0.5424790382385254,0.6474928259849548,10.025168418884276,-2.802799224853516,-2.131680488586426,-0.3804354071617126
2479893919.0,-0.8537301421165466,0.3726284205913543,9.8919038772583,-2.932253360748291,-1.8719522953033447,-0.3285665810108185
2479902252.0,-1.2117592096328735,0.2358734905719757,9.869938850402832,-2.679492473602295,-1.9675192832946773,-0.2550537586212158
2479910585.0,-1.3322067260742188,0.6548985242843628,9.842278480529783,-2.1695895195007324,-2.4735281467437744,-0.4297428131103515
2479918918.0,-1.2944440841674805,1.0696418285369873,9.625648498535156,-2.431572198867798,-2.9136319160461426,-0.3018509149551391
2479927251.0,-0.9990290403366088,1.0165842771530151,9.518163681030272,-3.184348821640014,-3.410855531692505,-0.3434996902942657
2479935584.0,-0.6855583786964417,0.5224331021308899,9.853226661682127,-3.4361884593963623,-3.4643123149871826,-0.3714448511600494
2479943917.0,-0.5088333487510681,0.3627338707447052,10.149494171142578,-3.0031538009643555,-2.8845083713531494,-0.289530485868454
2479952250.0,-0.6479658484458923,0.7413870692253113,10.111316680908203,-2.705132246017456,-2.269075632095337,-0.2302591800689697
2479960583.0,-0.8927268385887146,0.9500976204872132,9.762171745300291,-2.917628049850464,-1.911168098449707,-0.2431175410747528
2479968916.0,-1.2262319326400757,0.7005900144577026,9.587340354919434,-3.2299416065216064,-2.0639564990997314,-0.3243657946586609
2479977249.0,-1.4278221130371094,0.4547556936740875,9.699762344360352,-3.218569278717041,-2.579519748687744,-0.3074860870838165
2479985582.0,-1.3340543508529663,0.5981220006942749,9.826282501220703,-2.891988039016724,-3.131481170654297,-0.2136355340480804
2479993915.0,-1.1091374158859253,0.7568110227584839,9.70504093170166,-2.9448561668396,-3.5094704627990723,-0.1281096041202545
2480002248.0,-0.8196814656257629,0.6965755224227905,9.641196250915527,-3.2231290340423584,-3.723477602005005,-0.1607933640480041
2480010581.0,-0.5582771897315979,0.49337038397789,9.795353889465332,-3.2695677280426025,-3.407423496246338,-0.2855347096920013
2480018914.0,-0.4546073675155639,0.4735336899757385,9.960119247436523,-2.901029825210572,-3.0152437686920166,-0.2352027148008346
2480027247.0,-0.6579556465148926,0.6798163056373596,9.827714920043944,-2.893549919128418,-2.4916372299194336,-0.2835879623889923
2480035580.0,-0.9220543503761292,0.584999144077301,9.655966758728027,-3.087654829025269,-2.407878875732422,-0.2735216021537781
2480043913.0,-1.1580839157104492,0.3272246718406677,9.680977821350098,-3.207247972488404,-2.59371018409729,-0.3587145507335663
2480052246.0,-1.1779218912124634,0.4708729386329651,9.732507705688477,-2.830616235733032,-3.240187883377075,-0.295011967420578
2480060579.0,-0.9567975401878356,0.9458782076835632,9.666056632995604,-2.623473882675171,-3.579704523086548,-0.2599460780620575
2480068912.0,-0.6854098439216614,1.0227100849151611,9.555405616760254,-2.9740304946899414,-3.570457696914673,-0.3358666598796844
2480077245.0,-0.4465233087539673,0.5913900136947632,9.661250114440918,-3.738871574401856,-3.3316049575805664,-0.3356617391109466
2480085578.0,-0.329853892326355,0.2406510412693023,9.9656343460083,-3.344207525253296,-3.215316772460937,-0.2147369682788849
2480093911.0,-0.3957692980766296,0.4125816822052002,10.160370826721191,-2.9788708686828613,-2.549807071685791,-0.3529256880283355
2480102244.0,-0.6322137117385864,0.8464400172233582,9.877156257629396,-2.8285162448883057,-2.227478265762329,-0.3177318274974823
2480110577.0,-0.9486443996429444,0.9796899557113647,9.570989608764648,-3.2479233741760254,-2.1753017902374268,-0.2095628529787063
2480118910.0,-1.0938327312469482,0.6762047410011292,9.581019401550291,-3.688539505004883,-2.512257099151612,-0.3698311448097229
2480127243.0,-1.0731513500213623,0.438274085521698,9.83339786529541,-3.6170248985290527,-2.9941890239715576,-0.2037228345870971
2480135576.0,-0.8961622714996338,0.5121884346008301,9.948655128479004,-3.388930082321167,-3.278993606567383,-0.2085895389318466
2480143909.0,-0.6923854947090149,0.5512337684631348,9.841978073120115,-3.454374074935913,-3.403914451599121,-0.3169633448123932
2480152242.0,-0.4864499568939209,0.3934395313262939,9.881587028503418,-3.56963849067688,-3.073106527328491,-0.3095864653587341
2480160575.0,-0.3970574140548706,0.3573837578296661,10.020662307739258,-3.27499794960022,-2.834202527999878,-0.3373523354530334
2480168908.0,-0.5274524688720703,0.570403516292572,10.04144287109375,-3.110093116760254,-2.217462539672852,-0.3533355593681335
2480177241.0,-0.8430286049842834,0.5498645901679993,9.838354110717772,-3.4302711486816406,-1.829253435134888,-0.4168076515197754
2480185574.0,-1.2127326726913452,0.1829164028167724,9.709481239318848,-3.582061052322388,-2.131066083908081,-0.4559206366539001
2480193907.0,-1.3520677089691162,-0.0451958887279033,9.871929168701172,-3.1391396522521973,-2.5752933025360107,-0.3890930116176605
2480202240.0,-1.2365325689315796,0.3378897607326507,9.931452751159668,-2.576112985610962,-2.97518277168274,-0.3456768989562988
2480210573.0,-1.014116883277893,0.7951259016990662,9.659308433532717,-2.661024332046509,-3.253302335739136,-0.4061521291732788
2480218906.0,-0.7747340202331543,0.6953485012054443,9.488088607788086,-3.3333215713500977,-3.38519024848938,-0.3640423417091369
2480227239.0,-0.6353460550308228,0.1029752567410469,9.813494682312012,-3.685901403427124,-3.1549184322357178,-0.3282848596572876
2480235572.0,-0.610944926738739,-0.1289046257734298,10.205633163452148,-3.0408318042755127,-2.583848237991333,-0.214608833193779
2480243905.0,-0.8234297633171082,0.4064866900444031,10.022939682006836,-2.3159236907958984,-2.26290225982666,-0.282665878534317
2480252238.0,-1.056483268737793,0.8203194737434387,9.581323623657228,-2.638458490371704,-2.3234803676605225,-0.2888901531696319
2480260571.0,-1.200389742851257,0.617165744304657,9.450637817382812,-3.215060472488404,-2.5900473594665527,-0.338120698928833
2480268904.0,-1.244744896888733,0.2399337887763977,9.739945411682127,-3.1780478954315186,-2.7838447093963623,-0.3066152036190033
2480277237.0,-1.1905021667480469,0.3856969773769378,9.907323837280272,-2.8046178817749023,-3.112962007522583,-0.2109972685575485
2480285570.0,-1.0128486156463623,0.6607470512390137,9.73195743560791,-2.867936372756958,-3.344156265258789,-0.2246496677398681
2480293903.0,-0.7384232878684998,0.5494856238365173,9.66972541809082,-3.043675661087036,-3.5913078784942627,-0.2937312424182892
2480302236.0,-0.5520971417427063,0.4395670592784881,9.815959930419922,-3.0645511150360107,-3.290724754333496,-0.2070526927709579
2480310569.0,-0.5329883694648743,0.5802783966064453,9.967586517333984,-2.799238681793213,-2.854283571243286,-0.2103056609630584
2480318902.0,-0.7411922216415405,0.7047109007835388,9.875409126281738,-2.8955225944519043,-2.348633050918579,-0.2457813769578933
2480327235.0,-0.9665697813034058,0.5203549265861511,9.675567626953123,-3.165496587753296,-2.3499906063079834,-0.2387886941432953
2480335568.0,-1.1224786043167114,0.3124231398105621,9.794626235961914,-3.0568408966064453,-2.720397710800171,-0.1820787638425827
2480343901.0,-1.1186844110488892,0.5166747570037842,9.886152267456056,-2.679389476776123,-3.0177536010742188,-0.2801300585269928
2480352234.0,-0.9318581819534302,0.9379640221595764,9.761189460754396,-2.706080198287964,-3.3350634574890137,-0.1988305151462555
2480360567.0,-0.6838340759277344,0.9863614439964294,9.598136901855469,-3.078665018081665,-3.5735573768615723,-0.3471881449222564
2480368900.0,-0.5002248883247375,0.4771109223365783,9.792258262634276,-3.5397210121154785,-3.3117287158966064,-0.4025149345397949
2480377233.0,-0.4241414666175842,0.1113794669508934,10.130748748779297,-3.29274845123291,-2.992575168609619,-0.433431327342987
2480385566.0,-0.5492960810661316,0.4359548985958099,10.18625831604004,-2.5639724731445312,-2.4599273204803467,-0.3476492166519165
2480393899.0,-0.7516527771949768,0.9340729117393494,9.774765968322754,-2.639867067337036,-2.321866035461426,-0.341527372598648
2480402232.0,-0.9943045973777772,0.972446084022522,9.458637237548828,-3.1702866554260254,-2.325477838516236,-0.3589450716972351
2480410565.0,-1.0814300775527954,0.5868558287620544,9.604849815368652,-3.39402723312378,-2.6939902305603027,-0.3699080049991607
2480418898.0,-1.0708367824554443,0.4179401695728302,9.886100769042969,-3.17820143699646,-3.059377193450928,-0.3507997691631317
2480427231.0,-0.9122779369354248,0.5713495016098022,9.893985748291016,-2.923724174499512,-3.177279472351074,-0.1787233352661132
2480435564.0,-0.7074793577194214,0.6380752325057983,9.739558219909668,-3.014014482498169,-3.3396992683410645,-0.12401133030653
2480443897.0,-0.5167129039764404,0.5667547583580017,9.710357666015623,-3.106353759765625,-3.0804834365844727,-0.2752633988857269
2480452230.0,-0.4661726653575897,0.6340063810348511,9.87646484375,-3.0795609951019287,-2.73653507232666,-0.2604070901870727
2480460563.0,-0.6120172142982483,0.7225232124328613,9.878783226013184,-3.108350992202759,-2.3051400184631348,-0.3562555611133575
2480468896.0,-0.9320092797279358,0.5585290193557739,9.742238998413086,-3.323639154434204,-2.0705907344818115,-0.2328206002712249
2480477229.0,-1.1786872148513794,0.3050529062747955,9.680124282836914,-3.2914164066314697,-2.199122905731201,-0.2079235613346099
2480485562.0,-1.256344199180603,0.3292529284954071,9.81411361694336,-2.813659429550171,-2.722165822982788,-0.2561295330524444
2480493895.0,-1.1132442951202393,0.7844684720039368,9.796528816223145,-2.8467278480529785,-3.0660111904144287,-0.3401698768138885
2480502228.0,-0.8757056593894958,1.001517653465271,9.59061050415039,-3.039705276489258,-3.2369861602783203,-0.3574594855308532
2480510561.0,-0.6692063808441162,0.6272157430648804,9.572225570678713,-3.571559429168701,-3.329453945159912,-0.2629173398017883
2480518894.0,-0.6101094484329224,0.0968958437442779,9.916640281677246,-3.637874841690064,-2.978179931640625,-0.2710114121437073
2480527227.0,-0.6161398887634277,0.1314192116260528,10.208580017089844,-2.822906017303467,-2.60121488571167,-0.337710827589035
2480535560.0,-0.7815730571746826,0.68152916431427,9.922781944274902,-2.650830268859864,-2.39166522026062,-0.1929648369550705
2480543893.0,-1.0169943571090698,0.9310905933380128,9.486599922180176,-3.056226253509521,-2.307598829269409,-0.207360029220581
2480552226.0,-1.1659096479415894,0.641977846622467,9.51449203491211,-3.551093816757202,-2.500013589859009,-0.2560015022754669
2480560559.0,-1.1886855363845823,0.2778775691986084,9.881510734558104,-3.544075489044189,-3.0204434394836426,-0.3738782107830047
2480568892.0,-1.084406852722168,0.3923507630825043,9.99631404876709,-2.886199474334717,-3.054254531860352,-0.3371729850769043
2480577225.0,-0.9355843663215636,0.6679629683494568,9.74349880218506,-2.97152066230774,-3.44079852104187,-0.2923736572265625
2480585558.0,-0.7311718463897705,0.6199710369110107,9.7046537399292,-3.332271337509156,-3.585801124572754,-0.297931969165802
2480593891.0,-0.5494557023048401,0.4953620433807373,9.885987281799316,-3.2739219665527344,-3.36154842376709,-0.323751151561737
2480602224.0,-0.4715431332588196,0.6302235126495361,9.981255531311035,-3.127562522888184,-2.803286075592041,-0.319294273853302
2480610557.0,-0.6606453061103821,0.7256056666374207,9.81721305847168,-3.325611114501953,-2.339770555496216,-0.3833298087120056
2480618890.0,-0.9640434980392456,0.4501388370990753,9.80378532409668,-3.412750720977783,-2.321353912353516,-0.3545137941837311
2480627223.0,-1.1498634815216064,0.0894979238510131,9.88776683807373,-3.3912353515625,-2.5283684730529785,-0.276185542345047
2480635556.0,-1.1815462112426758,0.3611562848091125,9.95207405090332,-2.83914566040039,-2.9866325855255127,-0.1971143335103988
2480643889.0,-1.032024383544922,0.9229431748390198,9.73348331451416,-2.718144178390503,-3.23396372795105,-0.2262889742851257
2480652222.0,-0.8762548565864563,1.0584090948104858,9.47292137145996,-3.2329649925231934,-3.2647266387939453,-0.4444454312324524
2480660555.0,-0.6898547410964966,0.4560741782188415,9.657144546508787,-3.9309780597686768,-3.375072717666626,-0.3778483867645263
2480668888.0,-0.5941767692565918,-0.0904483795166015,10.150955200195312,-3.547149181365967,-3.218364715576172,-0.2997249662876129
2480677221.0,-0.5652511715888977,0.2567882537841797,10.215622901916504,-2.679082155227661,-2.8565890789031982,-0.2973172068595886
2480685554.0,-0.6588104367256165,0.8888326287269592,9.778117179870604,-2.5682499408721924,-2.4305734634399414,-0.3281824290752411
2480693887.0,-0.8754359483718872,0.8727740049362183,9.457785606384276,-3.325457811355591,-2.429779052734375,-0.4053836762905121
2480702220.0,-1.019185185432434,0.3709247708320617,9.686297416687012,-3.618100643157959,-2.479983329772949,-0.4188055694103241
2480710553.0,-1.110194444656372,0.1954463571310043,9.988289833068848,-3.197873592376709,-2.8066418170928955,-0.4249530136585235
2480718886.0,-1.078687071800232,0.5882484316825867,9.812151908874512,-2.675650119781494,-3.058121919631958,-0.3112001121044159
2480727219.0,-0.9361701607704164,0.7550257444381714,9.552489280700684,-3.0251309871673584,-3.256043195724488,-0.3701128959655761
2480735552.0,-0.6827596426010132,0.4588907063007355,9.650727272033691,-3.45767879486084,-3.485649347305298,-0.318679541349411
2480743885.0,-0.4953802525997162,0.3698515892028808,9.956103324890137,-3.155507326126098,-3.136655330657959,-0.2304128557443618
2480752218.0,-0.5485527515411377,0.5760707855224609,9.98681354522705,-3.000131130218506,-2.689225673675537,-0.1710646748542785
2480760551.0,-0.743019163608551,0.6379396319389343,9.748496055603027,-3.175281286239624,-2.4325199127197266,-0.2828707993030548
2480768884.0,-0.972173035144806,0.31247079372406,9.72304630279541,-3.3508925437927246,-2.42893385887146,-0.3032853603363037
2480777217.0,-1.1112397909164429,0.1533349901437759,9.876776695251465,-3.018317222595215,-2.5583624839782715,-0.2749559879302978
2480785550.0,-1.109718918800354,0.6246305704116821,9.89760684967041,-2.538588285446167,-3.01342511177063,-0.1823349446058273
2480793883.0,-0.9547343254089355,0.9912477135658264,9.579608917236328,-2.75738525390625,-3.0911386013031006,-0.2648896276950836
2480802216.0,-0.7673563957214355,0.7742119431495667,9.50690460205078,-3.4753520488739014,-3.3644423484802246,-0.2829988896846771
2480810549.0,-0.6490572690963745,0.1264761239290237,9.881851196289062,-3.6242735385894775,-3.121747732162476,-0.3560763299465179
2480818882.0,-0.5901678204536438,-0.0085486788302659,10.252851486206056,-2.90138840675354,-2.8227784633636475,-0.308638721704483
2480827215.0,-0.6763111352920532,0.6569830775260925,10.017662048339844,-2.449015855789185,-2.3469431400299072,-0.2273135483264923
2480835548.0,-0.8737009167671204,1.0403501987457275,9.559555053710938,-2.810842037200928,-2.335979461669922,-0.1717050224542617
2480843881.0,-1.0301932096481323,0.6874063014984131,9.50033187866211,-3.5195114612579346,-2.535771131515503,-0.4249017834663391
2480852214.0,-1.1323894262313845,0.2598318755626678,9.825894355773926,-3.423124551773072,-2.716735601425171,-0.3580998182296753
2480860547.0,-1.1000834703445437,0.3505310118198395,10.008907318115234,-2.976541042327881,-3.037118673324585,-0.115917220711708
2480868880.0,-0.9533607959747314,0.614298939704895,9.757868766784668,-2.940373659133911,-3.3371124267578125,-0.331204891204834
2480877213.0,-0.7354022860527039,0.5916460752487183,9.640220642089844,-3.313854694366455,-3.4888253211975098,-0.2609706521034241
2480885546.0,-0.54398512840271,0.4339144825935364,9.858235359191896,-3.346179962158203,-3.212857961654663,-0.2311812788248062
2480893879.0,-0.4988993406295776,0.548962414264679,10.039056777954102,-3.0267698764801025,-2.8035929203033447,-0.3283360600471496
2480902212.0,-0.6950657367706299,0.6773841977119446,9.839091300964355,-3.032430648803711,-2.380471706390381,-0.2578456699848175
2480910545.0,-0.9547434449195862,0.4857331216335296,9.67201328277588,-3.371998786926269,-2.2824971675872803,-0.2681938409805298
2480918878.0,-1.111716389656067,0.1255898624658584,9.849967002868652,-3.2700283527374268,-2.494198799133301,-0.2954217791557312
2480927211.0,-1.1488828659057615,0.3497749865055084,10.004605293273926,-2.569735050201416,-2.904231548309326,-0.2364834100008011
2480935544.0,-0.9710139036178588,0.9525525569915771,9.718823432922363,-2.519556999206543,-3.2141637802124023,-0.2191169708967209
2480943877.0,-0.7895624041557312,1.0512206554412842,9.457476615905762,-3.299100637435913,-3.339289665222168,-0.3617626428604126
2480952210.0,-0.5896428823471069,0.3680766820907593,9.765912055969238,-3.723631381988525,-3.210475444793701,-0.2868410646915436
2480960543.0,-0.5040252208709717,-0.0638749897480011,10.210869789123535,-3.3186957836151123,-3.044008255004883,-0.292296826839447
2480968876.0,-0.6403405666351318,0.387787252664566,10.190567016601562,-2.463948965072632,-2.5121548175811768,-0.2772869169712066
2480977209.0,-0.8129730820655823,0.9599351286888124,9.686738967895508,-2.5407915115356445,-2.2695112228393555,-0.2427077293395996
2480985542.0,-1.0236761569976809,0.9231704473495485,9.42836856842041,-3.322230100631714,-2.339053153991699,-0.2463192790746688
2480993875.0,-1.1370896100997925,0.4836962521076202,9.694527626037598,-3.391056060791016,-2.6123318672180176,-0.3281567990779876
2481002208.0,-1.1544055938720703,0.3849227428436279,9.975621223449709,-3.1547133922576904,-3.001591444015503,-0.3943952322006225
2481010541.0,-1.0484222173690796,0.6150033473968506,9.801187515258787,-2.8659896850585938,-3.1843490600585938,-0.3207798898220062
2481018874.0,-0.8334270715713501,0.6509447693824768,9.633091926574709,-3.194082260131836,-3.4629297256469727,-0.2311044484376907
2481027207.0,-0.5830490589141846,0.4944176375865936,9.746163368225098,-3.3581929206848145,-3.479220390319824,-0.3384793102741241
2481035540.0,-0.4771690368652344,0.5899618268013,9.951627731323242,-3.056252241134644,-2.89004135131836,-0.4010805189609527
2481043873.0,-0.6155129075050354,0.7636227607727051,9.868401527404783,-3.017983913421631,-2.4275503158569336,-0.3356617093086242
2481052206.0,-0.8518775105476379,0.6280030012130737,9.699052810668944,-3.4008657932281494,-2.288875102996826,-0.2476512193679809
2481060539.0,-1.0928494930267334,0.2536777853965759,9.751420021057127,-3.449481964111328,-2.389667510986328,-0.3790522813796997
2481068872.0,-1.2086827754974363,0.259996235370636,9.954761505126951,-3.040192127227783,-2.683436870574951,-0.3888881206512451
2481077205.0,-1.1446576118469238,0.770293653011322,9.808271408081056,-2.6327974796295166,-3.1053032875061035,-0.1880725175142288
2481085538.0,-0.9563429355621338,1.082741141319275,9.486326217651367,-3.1231822967529297,-3.444333553314209,-0.3281824290752411
2481093871.0,-0.7073011994361877,0.6531783938407898,9.525996208190918,-3.8980636596679688,-3.4481496810913086,-0.3090229332447052
2481102204.0,-0.5379739999771118,0.0214109607040882,10.005017280578612,-3.82757306098938,-3.3674392700195312,-0.1937588602304458
2481110537.0,-0.4937064349651336,0.1219681352376937,10.265871047973633,-3.0351719856262207,-2.975259780883789,-0.3215483129024505
2481118870.0,-0.6332793831825256,0.7577386498451233,9.929651260375977,-2.571630477905273,-2.3338537216186523,-0.286636084318161
2481127203.0,-0.843702495098114,0.9502941966056824,9.507963180541992,-3.095031976699829,-2.235469579696656,-0.3541807830333709
2481135536.0,-1.0442436933517456,0.5644025206565857,9.56182098388672,-3.548839807510376,-2.4264237880706787,-0.3150935471057892
2481143869.0,-1.166179895401001,0.2784065902233124,9.973901748657228,-3.444333553314209,-2.6256003379821777,-0.3301547169685364
2481152202.0,-1.161494493484497,0.4578005075454712,9.95326805114746,-2.9812793731689453,-3.08980679512024,-0.2428870052099228
2481160535.0,-1.033825159072876,0.7117876410484314,9.695384979248049,-2.894472599029541,-3.278122901916504,-0.3535148799419403
2481168868.0,-0.7714235186576843,0.6288735270500183,9.617947578430176,-3.22807240486145,-3.451531410217285,-0.3535661101341247
2481177201.0,-0.5792759656906128,0.5519246459007263,9.91737461090088,-3.136014938354492,-3.306426286697388,-0.352618396282196
2481185534.0,-0.5300773978233337,0.8730815649032593,9.935763359069824,-2.938323736190796,-2.7998788356781006,-0.3595597445964813
2481193867.0,-0.6738009452819824,0.9593244791030884,9.743348121643066,-3.480091094970703,-2.5422513484954834,-0.4616582095623016
2481202200.0,-0.9274561405181884,0.3315583169460296,9.747897148132324,-3.896937131881714,-2.4105687141418457,-0.3755943477153778
2481210533.0,-1.155583143234253,-0.0372149683535099,9.920648574829102,-3.4139037132263184,-2.6206822395324707,-0.409738153219223
2481218866.0,-1.1138142347335815,0.4409635066986084,10.033302307128906,-2.6207075119018555,-2.842219352722168,-0.3888881206512451
2481227199.0,-0.9752455949783324,1.0552431344985962,9.514705657958984,-2.688457489013672,-3.300432682037353,-0.3080752193927765
2481235532.0,-0.7884882092475891,0.9870057702064514,9.368258476257324,-3.663360834121704,-3.4075002670288086,-0.4041798114776611
2481243865.0,-0.6172983646392822,0.2753773033618927,9.801758766174316,-3.972703695297241,-3.3021998405456543,-0.4237234592437744
2481252198.0,-0.5681087970733643,-0.1110205054283142,10.276988983154297,-3.3965630531311035,-2.95487117767334,-0.2243422567844391
2481260531.0,-0.6893367171287537,0.3820852041244507,10.08245849609375,-2.5632803440093994,-2.654236555099488,-0.3156570494174957
2481268864.0,-0.7745469808578491,0.8318172097206116,9.5906343460083,-2.8284645080566406,-2.60910439491272,-0.3875817656517029
2481277197.0,-0.9142977595329284,0.6581076979637146,9.533507347106934,-3.5338809490203857,-2.665865659713745,-0.3144275546073913
2481285530.0,-0.9863213300704956,0.2928664088249206,9.83344554901123,-3.5047318935394287,-2.6860499382019043,-0.2072319984436035
2481293863.0,-0.9810605645179749,0.3761557340621948,10.04633331298828,-3.024362325668335,-2.819371461868286,-0.360738068819046
2481302196.0,-0.9283128380775452,0.5691511034965515,9.764741897583008,-2.9206504821777344,-3.0296647548675537,-0.258229911327362
2481310529.0,-0.795953631401062,0.5604146718978882,9.60830783843994,-3.302379608154297,-3.2245633602142334,-0.3033878207206726
2481318862.0,-0.6304560899734497,0.4232494831085205,9.810616493225098,-3.286498546600342,-3.035351037979126,-0.2742131948471069
2481327195.0,-0.5858690142631531,0.5720611214637756,9.95192813873291,-3.0955700874328613,-2.9687283039093018,-0.2450129687786102
2481335528.0,-0.6525945663452148,0.6135236620903015,9.852706909179688,-3.025975465774536,-2.62854528427124,-0.1824629753828048
2481343861.0,-0.8306819200515747,0.488996297121048,9.71719741821289,-3.281528949737549,-2.352731227874756,-0.243732213973999
2481352194.0,-1.058019995689392,0.3364802002906799,9.80212116241455,-3.233374118804932,-2.385645627975464,-0.4041285514831543
2481360527.0,-1.1168886423110962,0.5688424110412598,9.88849639892578,-2.9352505207061768,-2.708871841430664,-0.1803114116191864
2481368860.0,-1.0573745965957642,0.8557263016700745,9.671659469604492,-2.873366594314575,-3.105457305908203,-0.3160412907600403
2481377193.0,-0.8784781098365784,0.8027247786521912,9.488639831542969,-3.4205124378204346,-3.407782077789306,-0.3335101306438446
2481385526.0,-0.7100916504859924,0.3761464655399322,9.69174098968506,-3.7699668407440186,-3.39925217628479,-0.3587658107280731
2481393859.0,-0.5404795408248901,0.1455823928117752,10.085623741149902,-3.429656505584717,-3.1065328121185303,-0.3806147277355194
2481402192.0,-0.530276894569397,0.4175097644329071,10.18647575378418,-2.784254550933838,-2.688943862915039,-0.3025681376457214
2481410525.0,-0.7251712679862976,0.7683255672454834,9.79538631439209,-2.84805965423584,-2.0892889499664307,-0.4019769728183746
2481418858.0,-1.0455448627471924,0.7359767556190491,9.522300720214844,-3.3592422008514404,-2.1287858486175537,-0.2728299796581268
2481427191.0,-1.258559226989746,0.4704572856426239,9.63269329071045,-3.498610019683838,-2.480649471282959,-0.3159387707710266
2481435524.0,-1.2372124195098877,0.3574654459953308,9.879584312438965,-3.290699481964112,-3.1044585704803467,-0.34590744972229
2481443857.0,-1.0638805627822876,0.4744860231876373,9.815577507019045,-3.197437763214112,-3.3160831928253174,-0.2158383727073669
2481452190.0,-0.8174317479133606,0.3935948312282562,9.740769386291504,-3.258758306503296,-3.632700681686402,-0.2817437946796417
2481460523.0,-0.5558696389198303,0.3461720049381256,9.848040580749512,-3.1723361015319824,-3.586210966110229,-0.3556920886039734
2481468856.0,-0.3984036743640899,0.57359379529953,10.003907203674316,-2.877413272857666,-2.9537181854248047,-0.2356125265359878
2481477189.0,-0.4973307847976684,0.7443122267723083,9.873284339904783,-2.8836376667022705,-2.442125082015991,-0.2425796091556549
2481485522.0,-0.8777653574943542,0.5035245418548584,9.723226547241213,-3.3936171531677246,-2.0475378036499023,-0.2636345028877258
2481493855.0,-1.1853339672088623,0.119719922542572,9.800533294677734,-3.309832572937012,-2.3563685417175293,-0.2847405970096588
2481502188.0,-1.259909987449646,0.2140518724918365,9.948615074157717,-2.852900505065918,-2.789966344833374,-0.2503919303417206
2481510521.0,-1.149523138999939,0.7819894552230835,9.822400093078612,-2.511744260787964,-3.227226972579956,-0.1988304704427719
2481518854.0,-0.9833812713623048,1.0892252922058103,9.455799102783203,-2.971571922302246,-3.468871593475342,-0.2221394777297973
2481527187.0,-0.6869422197341919,0.8085437417030334,9.538339614868164,-3.553731679916382,-3.511570930480957,-0.3558713793754577
2481535520.0,-0.538068950176239,0.2290187627077102,10.002761840820312,-3.655676126480103,-3.2889063358306885,-0.4286926686763763
2481543853.0,-0.524260938167572,0.3129163980484009,10.190192222595217,-2.7917847633361816,-2.663047790527344,-0.1865612715482711
2481552186.0,-0.656547486782074,0.9421117901802064,9.8324613571167,-2.557722330093384,-2.376783609390259,-0.4280779361724853
2481560519.0,-0.8970087766647339,1.1011840105056765,9.529237747192385,-3.1935956478118896,-2.247636318206787,-0.3943439424037933
2481568852.0,-1.1032015085220337,0.6111803650856018,9.601323127746582,-3.661337375640869,-2.480956554412842,-0.4809969067573547
2481577185.0,-1.1937642097473145,0.3072009980678558,9.890007019042969,-3.500633716583252,-2.829284429550171,-0.4208546876907348
2481585518.0,-1.1523804664611816,0.5321259498596191,9.85387897491455,-3.0153207778930664,-3.1396780014038086,-0.4223915636539459
2481593851.0,-0.9498752355575562,0.6559866666793823,9.63063907623291,-3.175947666168213,-3.484112501144409,-0.3285410106182098
2481602184.0,-0.6391846537590027,0.4910885989665985,9.718810081481934,-3.399944305419922,-3.629883050918579,-0.390066385269165
2481610517.0,-0.4087726771831512,0.480038434267044,9.985329627990724,-3.436521291732788,-3.220951795578003,-0.2785932421684265
2481618850.0,-0.432709127664566,0.6081902384757996,9.95624542236328,-3.1021525859832764,-2.631337404251098,-0.3274908065795898
2481627183.0,-0.6582927107810974,0.5736180543899536,9.762968063354492,-3.267927885055542,-2.3126962184906006,-0.2483427971601486
2481635516.0,-0.9451504349708556,0.2286565750837326,9.758771896362305,-3.4178221225738525,-2.244459629058838,-0.3537197411060333
2481643849.0,-1.1371747255325315,0.1648654043674469,9.952679634094238,-3.213061809539795,-2.502548933029175,-0.2401206195354461
2481652182.0,-1.150526762008667,0.6018551588058472,9.85556697845459,-2.7568728923797607,-2.8143255710601807,-0.2599460780620575
2481660515.0,-1.0254921913146973,0.922542154788971,9.5255765914917,-3.009045124053955,-3.278660774230957,-0.2016993016004562
2481668848.0,-0.7938697934150696,0.67378169298172,9.518396377563477,-3.52542781829834,-3.425865411758423,-0.207308828830719
2481677181.0,-0.6139973998069763,0.1949178874492645,9.93952465057373,-3.7016794681549072,-3.308885335922241,-0.2696026563644409
2481685514.0,-0.4826025366783142,0.2053426206111908,10.206939697265623,-3.009326934814453,-3.0787415504455566,-0.1192470714449882
2481693847.0,-0.6245847344398499,0.5479389429092407,9.958786010742188,-2.764198541641236,-2.5626399517059326,-0.1533652245998382
2481702180.0,-0.8075277209281921,0.6828266382217407,9.621612548828123,-3.067112445831299,-2.2939465045928955,-0.223240852355957
2481710513.0,-1.0238913297653198,0.53557950258255,9.67129611968994,-3.2392914295196533,-2.4123613834381104,-0.2605608105659485
2481718846.0,-1.1512919664382937,0.504052996635437,9.858430862426758,-3.302942514419556,-2.4981689453125,-0.2916564643383026
2481727179.0,-1.1497808694839478,0.5459502339363098,9.81434440612793,-3.2060441970825195,-2.877797842025757,-0.1562083959579467
