SampleTimeFine,Acc_X,Acc_Y,Acc_Z,Gyr_X,Gyr_Y,Gyr_Z
2473944157.0,0.0,0.0,0.0,0.0,0.0,0.0
2473952490.0,-0.382176399230957,0.8456019163131714,9.877976417541504,-0.4498499631881714,-0.2024164944887161,0.3207926750183105
2473960823.0,-0.6990971565246582,0.7582515478134155,9.833621978759766,-0.9503265023231506,-0.124267466366291,0.3323190808296203
2473969156.0,-0.8056890964508057,0.52912437915802,9.67717456817627,-1.0863381624221802,-0.3524391055107116,0.3593933582305908
2473977489.0,-1.0510530471801758,0.7244184613227844,9.663912773132324,-0.8205904364585876,-0.8156725168228149,0.3534764349460602
2473985822.0,-0.8887550234794617,1.1675585508346558,9.950620651245115,-0.6839896440505981,-1.1697635650634766,0.1351407021284103
2473994155.0,-0.5621789693832397,1.452640175819397,10.165223121643066,-1.4697833061218262,-1.296502947807312,0.1872400492429733
2474002488.0,-0.3470384776592254,0.9832485914230348,9.96236801147461,-2.16272521018982,-1.3739348649978638,0.2601893842220306
2474010821.0,-0.2773205935955047,0.5476750731468201,9.795975685119627,-1.9941834211349487,-0.9447938203811646,0.1901344656944275
2474019154.0,-0.3924697041511535,0.5324430465698242,9.906960487365724,-1.6091501712799072,-0.5453142523765564,0.116237387061119
2474027487.0,-0.6372396349906921,0.845086932182312,10.050681114196776,-1.6410657167434692,0.0355269461870193,0.1819123029708862
2474035820.0,-0.928335189819336,0.7570680379867554,9.838929176330566,-2.0428507328033447,-0.2886340320110321,0.3165151178836822
2474044153.0,-1.023274302482605,0.3189857006072998,9.479249000549316,-2.292563438415528,-0.5000282526016235,0.1162630021572113
2474052486.0,-1.0493890047073364,0.0617668814957141,9.455005645751951,-1.8151909112930296,-0.9024022817611694,0.1202332079410553
2474060819.0,-0.9142137169837952,0.0495647341012954,9.634106636047363,-1.4951156377792358,-1.095482349395752,0.0778928846120834
2474069152.0,-0.7351385951042175,0.0568377152085304,9.614797592163086,-1.3879456520080566,-1.345938205718994,-0.0292642619460821
2474077485.0,-0.4977135360240936,0.0315637588500976,9.496888160705566,-1.126193881034851,-1.4156858921051023,0.0012294832849875
2474085818.0,-0.3454250991344452,0.2561075389385223,9.62759780883789,-0.9174378514289856,-0.9577546715736388,0.003227393142879
2474094151.0,-0.4724738001823425,0.4528394043445587,9.82734203338623,-0.8326802849769592,-0.5262059569358826,0.1307606548070907
2474102484.0,-0.6585121750831604,0.29368856549263,9.693089485168455,-1.155932068824768,-0.2464473694562912,0.2026086151599884
2474110817.0,-0.9458562135696412,-0.0131254671141505,9.488203048706056,-1.1949937343597412,-0.4453418552875519,0.2674638628959656
2474119150.0,-1.040137767791748,0.090633675456047,9.462288856506348,-0.7273033857345581,-0.6588621735572815,0.2569620013236999
2474127483.0,-0.9667925834655762,0.6514448523521423,9.715118408203123,-0.4574317634105682,-1.0923830270767212,0.331550657749176
2474135816.0,-0.7622125744819641,1.054856777191162,9.871315956115724,-0.9875183701515198,-1.3984731435775757,0.3437430262565613
2474144149.0,-0.5379647612571716,0.803960382938385,9.770938873291016,-1.7231591939926147,-1.373294234275818,0.3174628317356109
2474152482.0,-0.3458835482597351,0.2464096695184707,9.559425354003906,-1.8485666513442995,-1.1895380020141602,0.3228930830955505
2474160815.0,-0.3845272958278656,0.1489052176475525,9.637941360473633,-1.5101767778396606,-0.8155187964439392,0.3631329834461212
2474169148.0,-0.546155571937561,0.6046654582023621,9.854985237121582,-1.208774209022522,-0.3948306441307068,0.5083913803100586
2474177481.0,-0.7925136089324951,0.8009933233261108,9.81531047821045,-1.7125036716461182,-0.4198557138442993,0.3583175241947174
2474185814.0,-0.8113003969192505,0.4944928288459778,9.583919525146484,-1.9217718839645384,-0.7385479807853699,0.320254772901535
2474194147.0,-0.8947763442993164,0.2283909022808075,9.43801212310791,-1.8838117122650144,-0.9549371004104614,0.3814215660095215
2474202480.0,-0.7471889853477478,0.2018073201179504,9.70990753173828,-1.452826738357544,-1.1559064388275146,0.1706932932138443
2474210813.0,-0.7803229093551636,0.4217987954616546,9.711490631103516,-1.415122389793396,-1.289996862411499,0.286956250667572
2474219146.0,-0.5812878608703613,0.370354413986206,9.56142807006836,-1.5818198919296265,-1.563992261886597,0.2287863343954086
2474227479.0,-0.2920239567756653,0.2015182226896286,9.511068344116213,-1.4970110654830933,-1.4658899307250977,0.1152896732091903
2474235812.0,-0.3008700907230377,0.3558038473129272,9.651323318481444,-1.2389732599258425,-1.017820119857788,0.1102948933839798
2474244145.0,-0.3101831078529358,0.397898256778717,9.835179328918455,-1.2950685024261477,-0.653303861618042,0.1300947070121765
2474252478.0,-0.6055668592453003,0.0895535945892334,9.54970359802246,-1.4511358737945557,-0.3968285024166107,0.0643429607152938
2474260811.0,-0.8127560615539551,-0.1212907582521438,9.32059097290039,-1.0522454977035522,-0.6726425886154175,0.0205938462167978
2474269144.0,-0.941120982170105,0.23384790122509,9.44057273864746,-0.7263299822807312,-0.9580876231193542,0.1044804602861404
2474277477.0,-1.0430418252944946,0.6808934211730957,9.632633209228516,-0.840671956539154,-1.3909425735473633,0.0638562887907028
2474285810.0,-0.7050464749336243,0.5532066226005554,9.595026969909668,-1.204727053642273,-1.9068387746810915,0.096309520304203
2474294143.0,-0.3535887598991394,-0.002393334871158,9.349924087524414,-1.415250539779663,-1.8778947591781616,0.0882410332560539
2474302476.0,-0.1628490835428238,-0.1493816971778869,9.353378295898438,-0.9595990180969238,-1.4699883460998535,0.1956671476364135
2474310809.0,-0.1476275324821472,0.2139844447374344,9.656660079956056,-0.5487977266311646,-0.902376651763916,0.1748427599668502
2474319142.0,-0.4470026195049286,0.5222219228744507,9.70941925048828,-0.6754858493804932,-0.4526163637638092,0.3130572140216827
2474327475.0,-0.6482981443405151,0.3064277470111847,9.462953567504885,-1.203395128250122,-0.4878103137016296,0.3753766119480133
2474335808.0,-0.8521754145622253,0.0630451589822769,9.27354621887207,-1.0181787014007568,-0.6534574627876282,0.352016419172287
2474344141.0,-0.919276237487793,0.1823617368936538,9.417197227478027,-0.6827090382575989,-1.0368257761001587,0.3867237269878387
2474352474.0,-0.8627258539199829,0.3881776332855224,9.577506065368652,-0.7210278511047363,-1.3378442525863647,0.5207117795944214
2474360807.0,-0.5731601119041443,0.2985123693943023,9.536761283874512,-0.9023510217666626,-1.523496150970459,0.4013750255107879
2474369140.0,-0.258713960647583,0.143900841474533,9.48153591156006,-0.8112924695014954,-1.607715725898743,0.4493249058723449
2474377473.0,-0.0967636629939079,0.3266846537590027,9.61613941192627,-0.4455724060535431,-1.0368257761001587,0.350172221660614
2474385806.0,-0.2101219147443771,0.6199297308921814,9.83517360687256,-0.5233884453773499,-0.6065835356712341,0.4375167489051819
2474394139.0,-0.5082452297210693,0.5119861960411072,9.76894474029541,-0.7864210605621338,-0.044760875403881,0.5550348162651062
2474402472.0,-0.7699105739593506,0.0818642899394035,9.496536254882812,-0.9820881485939026,-0.182462990283966,0.3831377029418945
2474410805.0,-0.9709411859512328,0.0700406357645988,9.408921241760254,-0.5063549876213074,-0.5962609648704529,0.4105705320835113
2474419138.0,-0.9436745643615724,0.6134063601493835,9.647611618041992,-0.0488847605884075,-1.004731059074402,0.2467931509017944
2474427471.0,-0.7169508337974548,0.961413562297821,9.823176383972168,-0.6600916385650635,-1.4211673736572266,0.1704114973545074
2474435804.0,-0.4216462075710296,0.5662999749183655,9.72675323486328,-1.2705302238464355,-1.4568737745285034,0.1810414344072342
2474444137.0,-0.1690187454223632,0.0323941148817539,9.586065292358398,-1.246170997619629,-1.3151757717132568,0.2706656754016876
2474452470.0,-0.2811353504657745,0.1361186057329177,9.72424030303955,-0.4854794442653656,-0.6466185450553894,0.251813530921936
2474460803.0,-0.4954915046691894,0.666580855846405,9.923147201538086,-0.3154009282588959,-0.1904034316539764,0.1529426127672195
2474469136.0,-0.727773129940033,0.7113788723945618,9.862168312072754,-0.7476666569709778,-0.3666805922985077,0.1187219768762588
2474477469.0,-0.8831329345703125,0.4317598938941955,9.57104778289795,-1.11712646484375,-0.5406268239021301,0.2072191536426544
2474485802.0,-0.9851539134979248,0.3304899632930755,9.54145622253418,-0.9113671779632568,-0.7792490720748901,0.1212577745318412
2474494135.0,-0.9404558539390564,0.4731748402118683,9.76095485687256,-0.6701579689979553,-1.144098162651062,0.0875750705599784
2474502468.0,-0.7448712587356567,0.5045878291130066,9.78022575378418,-0.9232266545295716,-1.579949975013733,0.0727956518530845
2474510801.0,-0.4574788510799408,0.3888018727302551,9.65103816986084,-1.0813945531845093,-1.5523892641067505,0.2015840113162994
2474519134.0,-0.3020288050174713,0.4136703610420227,9.663941383361816,-0.9742758274078368,-1.2831323146820068,0.1839358210563659
2474527467.0,-0.3317846059799194,0.6060389280319214,9.865952491760254,-0.9004555344581604,-0.7939772009849548,0.2548616230487823
2474535800.0,-0.5590948462486267,0.5018935203552246,9.85480785369873,-1.2168937921524048,-0.4374271035194397,0.2291705310344696
2474544133.0,-0.8059179782867432,0.1549019664525985,9.581991195678713,-1.2840286493301392,-0.3477004170417785,0.267694354057312
2474552466.0,-1.0266976356506348,0.1234580725431442,9.419614791870115,-0.69825679063797,-0.414527952671051,0.2069886177778244
2474560799.0,-1.0440289974212646,0.58378666639328,9.660122871398926,-0.4485692679882049,-0.963492214679718,0.2467419207096099
2474569132.0,-0.8813445568084717,0.9130030870437622,9.800960540771484,-0.7062996625900269,-1.347628831863403,0.3207670450210571
2474577465.0,-0.6240178942680359,0.6674771308898926,9.67383098602295,-1.3685044050216677,-1.5165547132492063,0.4026557505130768
2474585798.0,-0.3747628629207611,0.1560653895139694,9.489957809448242,-1.4414538145065308,-1.4278526306152344,0.3977378308773041
2474594131.0,-0.3260695040225982,0.1312761306762695,9.58785629272461,-0.846896231174469,-0.9261722564697266,0.3444858193397522
2474602464.0,-0.4211736917495727,0.5842227339744568,9.812899589538574,-0.4856842458248138,-0.5469278693199158,0.3166943788528442
2474610797.0,-0.635187029838562,0.7797026634216309,9.792686462402344,-0.8245093822479248,-0.2014175206422805,0.3798334300518036
2474619130.0,-0.8418467044830322,0.5788366794586182,9.553680419921877,-1.1779601573944092,-0.3006214797496795,0.375248521566391
2474627463.0,-1.0183931589126587,0.3843079507350921,9.4552001953125,-1.1841845512390137,-0.6708240509033203,0.3999150097370147
2474635796.0,-0.9727652072906494,0.4900555908679962,9.558515548706056,-0.9475345611572266,-1.0234551429748535,0.3703562021255493
2474644129.0,-0.7429385781288147,0.6533781886100769,9.535189628601074,-0.9146459102630616,-1.4547220468521118,0.2105746120214462
2474652462.0,-0.7002556920051575,0.3667077720165252,9.421034812927246,-1.5172977447509766,-1.5802319049835205,0.2806039452552795
2474660795.0,-0.561535656452179,0.32889524102211,9.798089981079102,-1.2185075283050537,-1.868289470672608,0.2092939019203186
2474669128.0,0.3201041221618652,0.3991931080818176,9.970849990844728,-0.8103704452514648,-1.2493215799331665,0.2104721814393997
2474677461.0,-0.1470840573310852,0.6286347508430481,9.585610389709473,-0.8529925346374512,-0.3579205274581909,0.2487654685974121
2474685794.0,-0.4615944027900696,0.5109275579452515,9.649206161499023,-1.189563512802124,-0.0030096725095063,0.1228714734315872
2474694127.0,-0.7171797752380371,0.1118776202201843,9.548365592956545,-1.2471442222595217,-0.0938633605837822,0.288621187210083
2474702460.0,-1.0278635025024414,0.0940526723861694,9.420350074768066,-0.6921862959861755,-0.2840490341186523,0.0453115738928318
2474710793.0,-1.0994563102722168,0.7136105298995972,9.654678344726562,-0.3799999952316284,-0.9118028283119202,0.1244083493947982
2474719126.0,-0.8244897127151489,0.7576977014541626,9.638567924499512,-1.1402047872543335,-1.2981421947479248,0.2136739492416381
2474727459.0,-0.4920353591442108,0.2287008017301559,9.427526473999023,-1.529541015625,-1.664041519165039,0.1880084723234176
2474735792.0,-0.2371373176574707,0.0091699790209531,9.572622299194336,-1.0904364585876465,-1.5589720010757446,0.0427245460450649
2474744125.0,-0.0910485386848449,0.2924368381500244,9.874506950378418,-0.7935930490493774,-0.8878021240234375,0.0708745867013931
2474752458.0,-0.2355145066976547,0.4482042789459228,9.829394340515137,-0.7180565595626831,-0.2825377881526947,-0.0608978420495986
2474760791.0,-0.4244927167892456,0.3506251573562622,9.636359214782717,-0.9914886355400084,0.0778928846120834,0.1202332079410553
2474769124.0,-0.7361921668052673,0.2053581029176712,9.535374641418455,-0.9988654255867004,0.1054025888442993,0.1652118116617202
2474777457.0,-1.007714033126831,0.2020177394151687,9.547049522399902,-0.690316379070282,-0.0753955021500587,0.1268929243087768
2474785790.0,-1.0244301557540894,0.3007484376430511,9.586912155151367,-0.6158815026283264,-0.577767550945282,0.1522510200738906
2474794123.0,-0.8735910058021545,0.3115349113941192,9.557493209838867,-0.6398307681083679,-0.936238706111908,0.1421846151351928
2474802456.0,-0.5623851418495178,0.297765702009201,9.534761428833008,-0.7671847939491272,-1.3551596403121948,0.0513565428555011
2474810789.0,-0.2742757797241211,0.3791292011737823,9.73124885559082,-0.5839405059814453,-0.9480211734771729,0.1170570477843284
2474819122.0,-0.3218992352485657,0.4626460373401642,9.836898803710938,-0.7276619076728821,-0.3439095020294189,0.1870607584714889
2474827455.0,-0.533909797668457,0.2553779184818268,9.719382286071776,-0.9407467246055604,0.0981025174260139,0.1468207836151123
2474835788.0,-0.770575761795044,0.0123815713450312,9.49793815612793,-0.7418011426925659,0.0108348233625292,0.1846017986536026
2474844121.0,-0.966227650642395,0.287680059671402,9.519410133361816,-0.4958787858486175,-0.1434012949466705,0.130888745188713
2474852454.0,-0.998315155506134,0.6352869272232056,9.672718048095703,-0.143939197063446,-0.4807663559913635,0.088625244796276
2474860787.0,-0.8554728627204895,0.716249942779541,9.652268409729004,-0.36470827460289,-0.8888779282569885,0.0108348214998841
2474869120.0,-0.6447286605834961,0.4460942149162292,9.609543800354004,-1.0126458406448364,-1.138744831085205,0.1325792521238327
2474877453.0,-0.4667803049087524,0.1560392081737518,9.530440330505373,-1.071942925453186,-0.937263250350952,0.1748683750629425
2474885786.0,-0.4654783904552459,0.2569588720798492,9.674028396606444,-0.4619655609130859,-0.6609625220298767,0.1300947070121765
2474894119.0,-0.5183021426200867,0.5246182680130005,9.79080581665039,-0.1331043690443039,-0.3745953738689422,0.0810946673154831
2474902452.0,-0.5683863759040833,0.6376544833183289,9.749146461486816,-0.5285881757736206,-0.1805419325828552,0.0318641103804111
2474910785.0,-0.7258919477462769,0.4862501919269562,9.598877906799316,-0.7888543009757996,-0.1571561247110366,-0.0006275487248785
2474919118.0,-0.859471321105957,0.3935923278331756,9.51564884185791,-0.7040200233459473,-0.177878051996231,0.039497148245573
2474927451.0,-0.9280956983566284,0.4711291491985321,9.595602989196776,-0.5349149107933044,-0.5533571839332581,-0.0052893394604325
2474935784.0,-0.7916839718818665,0.4523743391036987,9.630925178527832,-0.5891658067703247,-0.9105475544929504,-0.1597687900066375
2474944117.0,-0.5197041034698486,0.4343921542167663,9.564760208129885,-0.6492311954498291,-1.2353873252868652,0.0327093750238418
2474952450.0,-0.3077009916305542,0.5153408646583557,9.62531566619873,-0.5685976147651672,-0.8964598774909973,-0.0558518432080745
2474960783.0,-0.2770367562770843,0.631138265132904,9.775826454162598,-0.4630925953388214,-0.4713403582572937,-0.0214006956666708
2474969116.0,-0.4112598598003387,0.4891543090343475,9.769896507263184,-0.6098108887672424,-0.1091038286685943,0.0873701572418212
2474977449.0,-0.5775706171989441,0.1767896711826324,9.593228340148926,-0.8834221363067627,0.0003585992672014,-0.0457854382693767
2474985782.0,-0.7488669157028198,0.1571408063173294,9.501328468322754,-0.4862734079360962,-0.1208863705396652,0.0922112390398979
2474994115.0,-0.8738914132118225,0.5250687599182129,9.61949348449707,-0.0804927423596382,-0.2308739274740219,-0.0512412786483764
2475002448.0,-0.7285599708557129,0.8524186015129089,9.732780456542969,-0.1785183846950531,-0.6053540110588074,-0.201443150639534
2475010781.0,-0.5446603298187256,0.6809650659561157,9.715885162353516,-0.770540177822113,-0.7581172585487366,-0.0784948244690895
2475019114.0,-0.4691692888736725,0.3140384256839752,9.509511947631836,-1.3438379764556885,-0.8034545183181763,0.0981025248765945
2475027447.0,-0.4784680306911468,0.232617512345314,9.567205429077148,-0.8168250918388367,-0.4589686393737793,0.0443382412195205
2475035780.0,-0.6012322306632996,0.4139135777950287,9.73409652709961,-0.3650924563407898,-0.3588938415050506,0.0696963220834732
2475044113.0,-0.6348934769630432,0.582091212272644,9.756548881530762,-0.5557647943496704,-0.1342313885688781,0.0502807386219501
2475052446.0,-0.630830705165863,0.4790330529212951,9.676594734191896,-0.9660537242889404,-0.1549533158540725,0.0388311818242073
2475060779.0,-0.7287030220031738,0.3662899434566498,9.521127700805664,-0.7880091071128845,-0.1876883208751678,0.166594997048378
2475069112.0,-0.929104208946228,0.4360873699188232,9.590216636657717,-0.7563756108283997,-0.30469411611557,0.1238960549235344
2475077445.0,-0.9541105031967164,0.4511870741844177,9.617426872253418,-0.7882397174835205,-0.7741774320602417,0.0731798782944679
2475085778.0,-0.7155846953392029,0.4026478230953216,9.588085174560549,-0.9767091870307922,-1.0843400955200195,0.159909650683403
2475094111.0,-0.5068719387054443,0.373821884393692,9.60329246520996,-0.9170024394989014,-1.2069299221038818,0.1439007669687271
2475102444.0,-0.4216028749942779,0.636767566204071,9.746950149536133,-0.8797080516815186,-0.8989442586898804,0.1255353540182113
2475110777.0,-0.5129233002662659,0.5778780579566956,9.814801216125488,-1.0679214000701904,-0.5375019311904907,0.1207198873162269
2475119110.0,-0.6786618232727051,0.2781310677528381,9.691800117492676,-1.3388944864273071,-0.4007731080055237,0.1659033894538879
2475127443.0,-0.8546717166900635,0.0480027273297309,9.52637767791748,-1.1941739320755005,-0.6443901062011719,0.1354480683803558
2475135776.0,-0.9972994327545166,0.2852053046226501,9.544288635253906,-0.7134717702865601,-0.8118559718132019,0.133988082408905
2475144109.0,-0.9747392535209656,0.6740407943725586,9.708259582519531,-0.658272922039032,-1.0344181060791016,0.1868302226066589
2475152442.0,-0.7473555207252502,0.7321522831916809,9.706278800964355,-1.0650783777236938,-1.4287748336791992,0.220256820321083
2475160775.0,-0.4925947487354278,0.3387317359447479,9.60370922088623,-1.5678600072860718,-1.563223958015442,0.1823221296072006
2475169108.0,-0.3857482671737671,0.0434236340224742,9.579618453979492,-1.3235259056091309,-1.25221586227417,0.2745589911937713
2475177441.0,-0.4520739912986755,0.2213876396417617,9.701915740966797,-0.8332950472831726,-0.828223466873169,0.2261480689048767
2475185774.0,-0.5761328935623169,0.5063497424125671,9.785146713256836,-0.6658293008804321,-0.5606060028076172,0.1346796602010727
2475194107.0,-0.6558298468589783,0.5675065517425537,9.698410987854004,-0.9740709066390992,-0.6099645495414734,0.2192578464746475
2475202440.0,-0.7787157297134399,0.3503033220767975,9.53215789794922,-1.18290376663208,-0.5843247175216675,0.2386990487575531
2475210773.0,-0.8871096968650818,0.2577243149280548,9.484212875366213,-1.0146950483322144,-0.7601152062416077,0.2955882549285888
2475219106.0,-0.8883187174797058,0.3324784338474273,9.596790313720703,-0.887878954410553,-0.9911299347877502,0.1754575073719024
2475227439.0,-0.6726176142692566,0.389829933643341,9.636202812194824,-0.7599871754646301,-1.3786221742630005,0.1363701820373535
2475235772.0,-0.3627707362174988,0.3943219184875488,9.601804733276367,-0.8738681077957153,-1.2834653854370115,0.2461272031068802
2475244105.0,-0.2373098284006118,0.5185811519622803,9.700729370117188,-0.7447980046272278,-0.8554258942604065,0.1419797241687774
2475252438.0,-0.3596950173377991,0.6227551102638245,9.789087295532228,-0.840031623840332,-0.5246179103851318,0.1288908272981643
2475260771.0,-0.6183418035507202,0.3912676572799682,9.653519630432127,-1.1941227912902832,-0.2215503454208374,0.241721510887146
2475269104.0,-0.8301947116851807,0.1083441153168678,9.459277153015137,-1.1062147617340088,-0.2953449189662933,0.2691031396389007
2475277437.0,-0.9322942495346068,0.1914960592985153,9.418277740478516,-0.6052771210670471,-0.5730288028717041,0.1464365571737289
2475285770.0,-0.9285606145858764,0.6360450983047485,9.603042602539062,-0.3270041048526764,-0.7930294871330261,0.1573738604784011
2475294103.0,-0.7406125068664551,0.8987189531326294,9.72084903717041,-0.6261783838272095,-1.0858001708984375,0.1907492130994796
2475302436.0,-0.4833761155605316,0.6087056994438171,9.65422534942627,-1.276677489280701,-1.2759602069854736,0.3665396869182586
2475310769.0,-0.2945969998836517,0.2050505429506302,9.520262718200684,-1.2291886806488037,-1.0096490383148191,0.233781099319458
2475319102.0,-0.4091213643550873,0.2783312797546386,9.66459846496582,-0.7515344023704529,-0.6061224341392517,0.3476107716560364
2475327435.0,-0.5815191864967346,0.5592949986457825,9.773272514343262,-0.4142462313175201,-0.3579973578453064,0.135832279920578
2475335768.0,-0.7189894914627075,0.6643202900886536,9.740570068359377,-0.761037290096283,-0.328540951013565,0.1288395971059799
2475344101.0,-0.7966979742050171,0.5392671227455139,9.593107223510742,-1.0454834699630735,-0.4587894082069397,0.1502274870872497
2475352434.0,-0.871330738067627,0.4183125495910644,9.55754280090332,-1.156136989593506,-0.6269724369049072,0.1680550128221511
2475360767.0,-0.9542537331581116,0.4457506537437439,9.627153396606444,-0.8831660747528076,-0.7648282647132874,0.1720508337020874
2475369100.0,-0.7873706221580505,0.4379900395870209,9.688583374023438,-0.8941032290458679,-1.2109001874923706,-0.0043416125699877
2475377433.0,-0.522429347038269,0.3518410921096802,9.606931686401367,-0.9295020699501038,-1.2756785154342651,0.1527120769023895
2475385766.0,-0.354187399148941,0.4388697743415832,9.686243057250977,-0.8916699886322021,-1.0548326969146729,0.2210508733987808
2475394099.0,-0.3846441209316253,0.5858249664306641,9.793200492858888,-0.9001482725143433,-0.6268444061279297,0.1133173778653144
2475402432.0,-0.5688870549201965,0.5082952976226807,9.78691291809082,-1.103525161743164,-0.1636621505022049,0.1925421953201294
2475410765.0,-0.7596462368965149,0.1860168278217315,9.615302085876465,-1.1655373573303225,-0.224931389093399,0.1375740468502044
2475419098.0,-0.8958505392074585,0.031544130295515,9.489298820495604,-0.7864723205566406,-0.3422958552837372,0.1196184903383255
2475427431.0,-0.9309496879577636,0.337900310754776,9.550253868103027,-0.3113026022911072,-0.6487700939178467,0.1216419860720634
2475435764.0,-0.8092870712280273,0.7048125267028809,9.756836891174316,-0.3037976324558258,-0.9230730533599854,-0.0412773415446281
2475444097.0,-0.5767337083816528,0.7299047112464905,9.694019317626951,-0.8368810415267944,-1.0062936544418335,-0.1543641835451126
2475452430.0,-0.5016359090805054,0.4849480092525482,9.558732986450195,-1.4186315536499023,-1.0514003038406372,0.074178822338581
2475460763.0,-0.5243605971336365,0.1960093528032302,9.6069974899292,-1.3810553550720217,-0.8983808755874634,0.1570408791303634
2475469096.0,-0.6275762319564819,0.076306477189064,9.611224174499512,-0.7559400796890259,-0.5912661552429199,0.0913915857672691
2475477429.0,-0.6549715399742126,0.364058256149292,9.701186180114746,-0.4507720470428467,-0.5731825232505798,0.1029692143201828
2475485762.0,-0.6303585767745972,0.5878134965896606,9.66844081878662,-0.6212860941886902,-0.688933253288269,0.0081965550780296
2475494095.0,-0.6717592477798462,0.4660649299621582,9.532844543457031,-0.9301681518554688,-0.6387293934822083,0.1959488987922668
2475502428.0,-0.8317539691925049,0.4245499968528747,9.582071304321287,-0.926146686077118,-0.6046111583709717,0.1357554346323013
2475510761.0,-0.9082751274108888,0.3753525912761688,9.611682891845703,-0.9442047476768494,-0.8574492335319519,0.0888813883066177
2475519094.0,-0.7150338888168335,0.2940963804721832,9.53303050994873,-0.8847285509109497,-1.254111409187317,0.1459499150514602
2475527427.0,-0.4607646763324737,0.3285086154937744,9.586647987365724,-0.8886475563049316,-1.397960901260376,0.1580142080783844
2475535760.0,-0.3241310715675354,0.6052306294441223,9.70984172821045,-0.675101637840271,-1.1583398580551147,0.247612789273262
2475544093.0,-0.3608823716640472,0.6652215719223022,9.789816856384276,-0.8961780071258545,-0.6362447738647461,0.0960533693432807
2475552426.0,-0.5488519668579102,0.4214240610599518,9.707688331604004,-1.1863105297088623,-0.3146580755710602,0.2218704968690872
2475560759.0,-0.7773781418800354,0.0440329015254974,9.542049407958984,-1.2684295177459717,-0.4096100032329559,0.1988176852464676
2475569092.0,-0.9315861463546752,0.1875762790441513,9.488883018493652,-0.7056594491004944,-0.6939536929130554,0.2034282684326172
2475577425.0,-0.9303057789802552,0.7386668920516968,9.667001724243164,-0.3633507192134857,-0.8949229121208191,0.0690815895795822
2475585758.0,-0.7191540002822876,0.963323414325714,9.773687362670898,-0.8036337494850159,-1.2732452154159546,0.0850904881954193
2475594091.0,-0.4319652020931244,0.6077948212623596,9.655327796936035,-1.5554628372192385,-1.4489331245422363,0.20634825527668
2475602424.0,-0.307743489742279,0.1071766167879104,9.583444595336914,-1.530591368675232,-1.0179224014282229,0.1869070678949356
2475610757.0,-0.4272534549236297,0.173957273364067,9.675601959228516,-0.9447426795959472,-0.6117575764656067,0.2182076871395111
2475619090.0,-0.6055024862289429,0.5284305810928345,9.84069538116455,-0.6342212557792664,-0.3898358941078186,0.1938229352235794
2475627423.0,-0.7220723628997803,0.6609012484550476,9.751564025878906,-0.8872130513191223,-0.3047197461128235,0.208115667104721
2475635756.0,-0.8392072916030884,0.5287166833877563,9.561641693115234,-1.1678427457809448,-0.6968737244606018,0.1747402995824813
2475644089.0,-0.8989764451980591,0.39364954829216,9.502315521240234,-1.137284755706787,-0.7479228377342224,0.1622661650180816
2475652422.0,-0.943030834197998,0.446208655834198,9.608321189880373,-0.9416176676750184,-1.0092649459838867,0.1708469539880752
2475660755.0,-0.7574236392974854,0.4353476762771606,9.659340858459473,-0.9806538224220276,-1.3602567911148071,0.2834727466106415
2475669088.0,-0.4806321859359741,0.3184337317943573,9.606975555419922,-1.080779790878296,-1.4166080951690674,0.3495574593544006
2475677421.0,-0.3634287416934967,0.4354866147041321,9.635051727294922,-0.9651827812194824,-1.136772394180298,0.2705375254154205
2475685754.0,-0.4112884700298309,0.6404512524604797,9.770934104919434,-0.8514299392700195,-0.6046624183654785,0.2328333854675293
2475694087.0,-0.6832038164138794,0.6436342597007751,9.732222557067873,-1.1948400735855105,-0.3648876249790191,0.1852933764457702
2475702420.0,-0.8941196799278259,0.3002191185951233,9.54885196685791,-1.5205763578414917,-0.4472373127937317,0.2305281162261963
2475710753.0,-1.022463083267212,0.0269662179052829,9.340361595153809,-1.162745475769043,-0.7926965951919556,0.2254309058189392
2475719086.0,-1.0130356550216677,0.360145628452301,9.521478652954102,-0.6075055599212646,-1.2249112129211426,0.2255589365959167
2475727419.0,-0.8322976231575012,0.8153166770935059,9.72464656829834,-0.6830419301986694,-1.4024176597595217,0.1909284889698028
2475735752.0,-0.5403974056243896,0.7694873213768005,9.732420921325684,-1.308874487876892,-1.597111463546753,0.2769923210144043
2475744085.0,-0.3293389678001404,0.2990833222866058,9.554640769958496,-1.648365497589111,-1.4860482215881348,0.3723796904087066
2475752418.0,-0.3569722175598144,0.0863407403230667,9.584724426269531,-1.3899693489074707,-1.0157197713851929,0.3139280974864959
2475760751.0,-0.5609475374221802,0.3879629373550415,9.716135025024414,-0.6886002421379089,-0.6558396220207214,0.2755067050457001
2475769084.0,-0.7258776426315308,0.6592346429824829,9.759854316711426,-0.8835757970809937,-0.5900366902351379,0.3351366519927978
2475777417.0,-0.8077490925788879,0.5696595907211304,9.632447242736816,-1.2700177431106567,-0.7375490665435791,0.2659525871276855
2475785750.0,-0.9062967896461488,0.3593534231185913,9.514391899108888,-1.399549126625061,-0.9879539012908936,0.347866952419281
2475794083.0,-0.931851089000702,0.3496880531311035,9.54845142364502,-1.0523478984832764,-1.163001537322998,0.3299369513988495
2475802416.0,-0.8183074593544006,0.5042845010757446,9.67353630065918,-0.9537587761878968,-1.4610742330551147,0.3501721918582916
2475810749.0,-0.5783097147941589,0.4571422040462494,9.646440505981444,-1.3279316425323486,-1.6751837730407717,0.3333692252635956
2475819082.0,-0.3494198024272918,0.3745563328266144,9.599723815917969,-1.4405317306518557,-1.6804603338241575,0.3521188795566559
2475827415.0,-0.3025296032428741,0.498395711183548,9.728802680969238,-1.1136173009872437,-1.1807777881622314,0.3042971193790436
2475835748.0,-0.4448353052139282,0.5643736124038696,9.804165840148926,-1.24927020072937,-0.8904404044151306,0.3038872480392456
2475844081.0,-0.638817310333252,0.3683824837207794,9.71191692352295,-1.4975491762161257,-0.7020477652549744,0.3804738521575928
2475852414.0,-0.8624122738838196,0.0677778795361518,9.463730812072754,-1.5775678157806396,-0.7841670513153076,0.3964315354824066
2475860747.0,-0.9490249156951904,0.1631849557161331,9.429550170898438,-1.0053460597991943,-1.150450587272644,0.3509662747383117
2475869080.0,-0.9216764569282532,0.6346980333328247,9.66230297088623,-0.7186201810836792,-1.4811813831329346,0.3418475687503814
2475877413.0,-0.7372868657112122,0.8000071048736572,9.721135139465332,-1.1659470796585083,-1.8374754190444944,0.3937932252883911
2475885746.0,-0.5373362898826599,0.4206427633762359,9.579545974731444,-1.9315311908721924,-1.871747612953186,0.4242742359638214
2475894079.0,-0.4308269917964935,0.0759678408503532,9.515647888183594,-1.7875279188156128,-1.8069946765899656,0.576397180557251
2475902412.0,-0.450447678565979,0.0879655331373214,9.610833168029783,-1.2668161392211914,-1.4408135414123535,0.4827002584934234
2475910745.0,-0.4745625257492065,0.384136289358139,9.775132179260254,-0.7164172530174255,-1.2052137851715088,0.4218664169311523
2475919078.0,-0.5888649225234985,0.6593061685562134,9.843241691589355,-1.0614666938781738,-1.0116982460021973,0.4952768087387085
2475927411.0,-0.7348840832710266,0.6041144132614136,9.640765190124512,-1.4674779176712036,-1.0387979745864868,0.5460954308509827
2475935744.0,-0.8799921274185181,0.547791063785553,9.59235954284668,-1.6363011598587036,-1.1731958389282229,0.5460185408592224
2475944077.0,-0.9135417938232422,0.5044054985046387,9.653772354125977,-1.5609185695648191,-1.2639728784561155,0.6084405183792114
2475952410.0,-0.8537637591362,0.4391507506370544,9.629857063293455,-1.6081258058547974,-1.7852739095687866,0.6042655110359192
2475960743.0,-0.6198428869247437,0.337715595960617,9.55679702758789,-1.6825608015060425,-2.157013177871704,0.641534149646759
2475969076.0,-0.3967384397983551,0.4148951768875122,9.619256973266602,-1.4480624198913574,-1.8801746368408203,0.6365649700164795
2475977409.0,-0.3334971666336059,0.5852182507514954,9.79042911529541,-1.4018797874450684,-1.4119205474853516,0.5152302980422974
2475985742.0,-0.5446069836616516,0.5817027688026428,9.791964530944824,-1.659610390663147,-1.158314228057861,0.6541106700897217
2475994075.0,-0.8003009557723999,0.2770956158638,9.57148265838623,-1.938549280166626,-1.0452529191970823,0.7047500014305115
2476002408.0,-0.9599384665489196,0.0715929716825485,9.410283088684082,-1.7242605686187744,-1.3470654487609863,0.6978341937065125
2476010741.0,-0.9717200994491576,0.3162986934185028,9.496828079223633,-1.0492743253707886,-1.5823065042495728,0.6284452080726624
2476019074.0,-0.7668116688728333,0.8640069365501404,9.823471069335938,-0.94074684381485,-1.89953875541687,0.534902036190033
2476027407.0,-0.6146336793899536,0.879111647605896,9.874510765075684,-1.7063820362091064,-2.03957200050354,0.7780324816703796
2476035740.0,-0.4923913180828094,0.3859568536281585,9.53905963897705,-2.140620231628418,-2.2217659950256348,0.7096936702728271
2476044073.0,-0.3173331916332245,0.1605820059776306,9.538326263427734,-1.7830452919006348,-1.7501823902130127,0.5299072861671448
2476052406.0,-0.35701784491539,0.341993898153305,9.69798469543457,-1.2363094091415403,-1.2242708206176758,0.4517326056957245
2476060739.0,-0.4264366626739502,0.5019212365150452,9.834646224975586,-1.2948637008666992,-1.049453616142273,0.3989929854869842
2476069072.0,-0.5358849763870239,0.402660071849823,9.653615951538086,-1.4200915098190308,-0.905271053314209,0.5452501773834229
2476077405.0,-0.757077693939209,0.3358477056026459,9.479153633117676,-1.4282370805740356,-0.8133928775787354,0.5805723071098328
2476085738.0,-0.9916148781776428,0.4525770545005798,9.559074401855469,-1.3431206941604614,-0.961724817752838,0.6776246428489685
2476094071.0,-1.0380409955978394,0.5154969096183777,9.597325325012209,-1.4497016668319702,-1.440250039100647,0.5587745904922485
2476102404.0,-0.6991040706634521,0.4317911863327026,9.626120567321776,-1.4917091131210327,-1.955736517906189,0.4117232263088226
2476110737.0,-0.4205974340438843,0.4653862416744232,9.63575839996338,-1.4901208877563477,-1.9033299684524536,0.5793171525001526
2476119070.0,-0.2731407880783081,0.5700895190238953,9.728837966918944,-1.288254976272583,-1.6274644136428833,0.5242721438407898
2476127403.0,-0.2471447438001632,0.5410311222076416,9.837525367736816,-1.4314898252487185,-1.042051076889038,0.4270405173301697
2476135736.0,-0.3442290425300598,0.2420453876256942,9.743314743041992,-1.6162453889846802,-0.7061716318130493,0.4710713624954223
2476144069.0,-0.5931494832038879,0.033339399844408,9.541570663452148,-1.527005314826965,-0.3707020282745361,0.4359030127525329
2476152402.0,-0.8691278100013733,0.2740967869758606,9.492901802062988,-0.8601132035255432,-0.3723669648170471,0.3661299049854278
2476160735.0,-1.0102460384368896,0.7838943600654602,9.757135391235352,-0.737651526927948,-0.6333247423171997,0.2043759822845459
2476169068.0,-0.8752118349075317,0.8070158362388611,9.732495307922363,-1.4448604583740234,-1.0986074209213257,0.283421516418457
2476177401.0,-0.6901348829269409,0.2749879658222198,9.483253479003906,-1.8980790376663208,-1.3661223649978638,0.3992234468460083
2476185734.0,-0.5773239731788635,0.04237687215209,9.491615295410156,-1.5530037879943848,-1.3778536319732666,0.4113133549690246
2476194067.0,-0.4803491830825805,0.2142491042613983,9.616196632385254,-1.0197666883468628,-1.1961718797683716,0.3524006307125091
2476202400.0,-0.4899697303771972,0.6380192637443542,9.903318405151367,-1.0032711029052734,-0.979526698589325,0.2739954888820648
2476210733.0,-0.5053708553314209,0.6126843690872192,9.75822639465332,-1.4729595184326172,-0.8458717465400696,0.3289636671543121
2476219066.0,-0.6498928070068359,0.28720822930336,9.504512786865234,-1.4812839031219482,-0.5427784323692322,0.3083697557449341
2476227399.0,-0.8880826830863953,0.2166381478309631,9.470600128173828,-1.225090503692627,-0.5774601101875305,0.2325516492128372
2476235732.0,-0.985268235206604,0.3538298010826111,9.595561027526855,-0.9727902412414552,-0.9976360201835632,0.2868281900882721
2476244065.0,-0.8303659558296204,0.3345557153224945,9.60141944885254,-1.1704297065734863,-1.5681161880493164,0.2440011948347091
2476252398.0,-0.5358210206031799,0.2791728973388672,9.502326965332031,-1.2353615760803225,-1.6180638074874878,0.2757884562015533
2476260731.0,-0.3564905226230621,0.4596416056156158,9.611882209777832,-0.9501472115516664,-1.3732688426971436,0.1419028490781784
2476269064.0,-0.3576635122299194,0.5968762636184692,9.775654792785645,-1.1380019187927246,-0.9185134768486024,0.3394398093223572
2476277397.0,-0.5076181888580322,0.4008218944072723,9.743001937866213,-1.5270822048187256,-0.6529709100723267,0.2851632535457611
2476285730.0,-0.635422945022583,-0.0671652629971504,9.434948921203612,-1.392479419708252,-0.6026645302772522,0.3006854951381683
2476294063.0,-0.7258991003036499,-0.0298559665679931,9.385259628295898,-0.664394736289978,-0.7803248167037964,0.2980472147464752
2476302396.0,-0.8272334337234497,0.6491848826408386,9.696823120117188,-0.3444474041461944,-0.7814775109291077,0.2390064150094986
2476310729.0,-0.7628006935119629,0.91641503572464,9.850451469421388,-0.9936914443969728,-1.1169215440750122,0.2450513690710067
2476319062.0,-0.5726626515388489,0.3567865788936615,9.57158374786377,-1.5966248512268066,-1.4301323890686035,0.2733551263809204
2476327395.0,-0.4381896257400512,-0.0760340318083763,9.403656959533691,-1.4030581712722778,-1.27483332157135,0.3305516839027405
2476335728.0,-0.4312449097633362,0.2485755980014801,9.69678020477295,-0.7269448041915894,-0.972226619720459,0.3389019072055816
2476344061.0,-0.5469993352890015,0.6713873147964478,9.861245155334473,-0.7623435854911804,-0.6933133006095886,0.2069630026817321
2476352394.0,-0.5841369032859802,0.7242253422737122,9.79611873626709,-1.2324161529541016,-0.7553253769874573,0.3297320604324341
2476360727.0,-0.6714468598365784,0.3098636567592621,9.50308322906494,-1.497958779335022,-0.7511502504348755,0.2675918936729431
2476369060.0,-0.8085360527038574,0.2117955982685089,9.518845558166504,-1.1549330949783323,-0.7095527052879333,0.2840362787246704
2476377393.0,-0.8464890122413635,0.448862075805664,9.734810829162598,-0.8491246700286865,-0.9249684810638428,0.2874685525894165
2476385726.0,-0.7332981824874878,0.5621352791786194,9.757535934448242,-1.0174870491027832,-1.3649441003799438,0.1689514815807342
2476394059.0,-0.5149508714675903,0.3980787098407745,9.620051383972168,-1.3036236763000488,-1.4299532175064087,0.2510195076465606
2476402392.0,-0.3427141606807709,0.3355613350868225,9.562349319458008,-1.1876167058944702,-1.0336240530014038,0.2562704086303711
2476410725.0,-0.3575636148452759,0.5295463800430298,9.76687717437744,-1.0990430116653442,-0.6855778694152832,0.3549621105194092
2476419058.0,-0.5659615397453308,0.4679389894008636,9.816847801208496,-1.1535241603851318,-0.4642964005470276,0.3230979740619659
2476427391.0,-0.7235960960388184,0.0814135894179344,9.557562828063965,-1.4884049892425537,-0.3782838582992553,0.360853374004364
2476435724.0,-0.8752003908157349,0.0418012142181396,9.424993515014648,-0.9108037352561952,-0.644569456577301,0.2720744013786316
2476444057.0,-0.9567070603370668,0.5737009048461914,9.605746269226074,-0.5492588877677917,-0.8171581625938416,0.2540419995784759
2476452390.0,-0.8516961932182312,0.8612523674964905,9.775912284851074,-0.8470243215560913,-1.221043348312378,0.1863691657781601
2476460723.0,-0.6229550242424011,0.4947509765625,9.581872940063477,-1.675747275352478,-1.5483163595199585,0.3056290447711944
2476469056.0,-0.3881685435771942,-0.1067262962460517,9.395770072937012,-1.4706283807754517,-1.4431699514389038,0.2369060516357422
2476477389.0,-0.3544735312461853,-0.0745613276958465,9.538179397583008,-0.8066051006317139,-1.14799165725708,0.1987408697605133
2476485722.0,-0.3981059193611145,0.5142034292221069,9.84272575378418,-0.4338155090808868,-0.5302274823188782,0.2377257198095321
2476494055.0,-0.574280321598053,0.7794309854507446,9.81867218017578,-0.8806045651435852,-0.3168864846229553,0.2503791153430938
2476502388.0,-0.7741021513938904,0.484397679567337,9.592606544494627,-1.2460172176361084,-0.3578180074691772,0.303272545337677
2476510721.0,-0.96599143743515,0.217167466878891,9.399500846862791,-1.2758067846298218,-0.6305328011512756,0.2395955622196197
2476519054.0,-0.9952608942985536,0.2884312272071838,9.53873062133789,-1.0320616960525513,-0.97934752702713,0.126431867480278
2476527387.0,-0.8480455279350281,0.4334219098091125,9.685846328735352,-0.9266077280044556,-1.3766498565673828,0.336750328540802
2476535720.0,-0.5081203579902649,0.4503734111785888,9.634431838989258,-1.1206868886947632,-1.8469274044036863,0.2751481533050537
2476544053.0,-0.2422689944505691,0.5771602392196655,9.700992584228516,-1.0982999801635742,-1.5353044271469116,0.2861878275871277
2476552386.0,-0.186789333820343,0.7049269676208496,9.894721031188965,-1.1735033988952637,-0.8834221363067627,0.328015923500061
2476560719.0,-0.3609038293361664,0.5391026139259338,9.848084449768066,-1.4550292491912842,-0.5062780380249023,0.3435637056827545
2476569052.0,-0.6406156420707703,0.1717112213373184,9.601040840148926,-1.599365472793579,-0.2420160919427871,0.276736170053482
2476577385.0,-0.8749929666519165,0.0361790806055069,9.461580276489258,-1.1615158319473269,-0.438835859298706,0.4088031947612762
2476585718.0,-1.0161900520324707,0.4115316569805145,9.573222160339355,-0.6663158535957336,-0.7481533885002136,0.3060132265090942
2476594051.0,-0.9483811259269714,0.8929752111434937,9.81447982788086,-0.9853667616844176,-1.151167631149292,0.2209483832120895
2476602384.0,-0.7117745280265808,0.7736929655075073,9.812406539916992,-1.6597384214401243,-1.583126187324524,0.1641360074281692
2476610717.0,-0.409481793642044,0.1913345009088516,9.557287216186523,-1.9510490894317627,-1.57831072807312,0.2182845026254654
2476619050.0,-0.3027648627758026,0.1478638648986816,9.71640968322754,-1.268480896949768,-1.1334171295166016,0.2801941037178039
2476627383.0,-0.3822264671325683,0.6039860844612122,9.975075721740724,-0.8944875597953796,-0.8120609521865845,0.2998402416706085
2476635716.0,-0.5156626105308533,0.8509810566902161,9.988667488098145,-1.3580282926559448,-0.5177021026611328,0.2461784034967422
2476644049.0,-0.6608642339706421,0.6475306749343872,9.817420959472656,-1.696545958518982,-0.4493889510631561,0.3167712390422821
2476652382.0,-0.8824067115783691,0.4837693870067596,9.662514686584473,-1.6858139038085938,-0.2870971858501434,0.2410811930894851
2476660715.0,-1.063863754272461,0.6383912563323975,9.785404205322266,-1.4201170206069946,-0.4875028431415558,0.1414930075407028
2476669048.0,-1.0419896841049194,0.7936212420463562,9.913721084594728,-1.6204204559326172,-1.055524230003357,0.1800424605607986
2476677381.0,-0.8266934752464294,0.6632640361785889,9.76173496246338,-1.913473010063172,-1.5559239387512207,0.115801952779293
2476685714.0,-0.5495549440383911,0.3826667368412018,9.62238597869873,-1.9571454524993896,-1.646137237548828,0.1694637835025787
2476694047.0,-0.3626681268215179,0.5670152306556702,9.778883934020996,-1.810862421989441,-1.240715265274048,0.2126237750053405
2476702380.0,-0.5461416244506836,0.6165832281112671,9.935969352722168,-2.075380563735962,-0.8139562606811523,0.1889049708843231
2476710713.0,-0.5984975099563599,0.136490449309349,9.703391075134276,-2.1112148761749268,-0.5755902528762817,0.255809336900711
2476719046.0,-0.7732623815536499,-0.0242504142224788,9.414454460144045,-1.672852873802185,-0.4278217256069183,0.1885463893413543
2476727379.0,-1.0289722681045532,0.4570666551589966,9.635902404785156,-1.3081445693969729,-0.6482707262039185,0.1039041504263877
2476735712.0,-0.979085385799408,0.6723839640617371,9.67768096923828,-1.395783543586731,-1.0501195192337036,0.1358835101127624
2476744045.0,-0.851962685585022,0.5516560077667236,9.580892562866213,-1.7583277225494385,-1.4158397912979126,0.1577068716287613
2476752378.0,-0.6457532048225403,0.2093657404184341,9.48482894897461,-2.0585265159606934,-1.7438554763793943,0.2093963623046875
2476760711.0,-0.4536715149879455,-0.0114878406748175,9.449884414672852,-1.5746477842330933,-1.3743700981140137,0.2070142328739166
2476769044.0,-0.4615800976753235,0.2988457679748535,9.7268648147583,-1.0761436223983765,-1.02040696144104,0.1114731431007385
2476777377.0,-0.5387879014015198,0.6067899465560913,9.81877899169922,-1.2902017831802368,-0.7891361117362976,0.2802709341049194
2476785710.0,-0.7238563299179077,0.4424305260181427,9.52922534942627,-1.6944968700408936,-0.774305522441864,0.3199730217456817
2476794043.0,-0.9022806286811828,0.2850823700428009,9.331440925598145,-1.6677043437957764,-0.931884229183197,0.3740959167480469
2476802376.0,-0.9703856110572816,0.2572616636753082,9.456645011901855,-1.5876600742340088,-1.2238354682922363,0.378450334072113
2476810709.0,-0.8748615980148315,0.3042018413543701,9.538400650024414,-1.406849026679993,-1.7002344131469729,0.3901048004627228
2476819042.0,-0.6505231857299805,0.2691037654876709,9.47279930114746,-1.5852776765823364,-1.84436583518982,0.2681041955947876
2476827375.0,-0.4031286835670471,0.3256365656852722,9.45041847229004,-1.4077967405319214,-1.9239236116409304,0.1875730454921722
2476835708.0,-0.2914125919342041,0.5487034320831299,9.653555870056152,-1.3394323587417605,-1.3872541189193726,0.3647979199886322
2476844041.0,-0.3698624968528747,0.4985702335834503,9.721394538879396,-1.6667311191558838,-1.1064196825027466,0.3652333319187164
2476852374.0,-0.5671305060386658,0.0452375262975692,9.498978614807127,-1.9357320070266724,-0.9327296018600464,0.3317556083202362
2476860707.0,-0.7534376978874207,-0.2666665017604828,9.274580955505373,-1.6981340646743774,-0.9244304895401,0.4479161202907562
2476869040.0,-0.9061793684959412,0.0377670116722583,9.388671875,-0.9164389371871948,-1.167022943496704,0.3462019860744476
2476877373.0,-0.8647746443748474,0.5997858643531799,9.656024932861328,-0.9230218529701232,-1.5779520273208618,0.2268396615982055
2476885706.0,-0.6813555359840393,0.5819922685623169,9.679954528808594,-1.5234451293945312,-1.776206374168396,0.2485092878341674
2476894039.0,-0.3710415959358215,-0.0191317982971668,9.427648544311523,-1.9288928508758545,-2.0856518745422363,0.2244831621646881
2476902372.0,-0.1529798954725265,-0.3443482220172882,9.35171604156494,-1.4572322368621826,-1.7544854879379272,0.1245876401662826
2476910705.0,-0.1350170224905014,-0.0692752078175544,9.665587425231934,-0.817298948764801,-1.2034080028533936,0.1734724044799804
2476919038.0,-0.2862995862960815,0.3126651644706726,9.832878112792969,-0.813136637210846,-0.7606787085533142,0.187573030591011
2476927371.0,-0.4587404429912567,0.2337692081928253,9.66554355621338,-1.2523183822631836,-0.5983868837356567,0.1593717634677887
2476935704.0,-0.6490632891654968,0.0029898884240537,9.401460647583008,-1.0677164793014526,-0.7518930435180664,0.2069374024868011
2476944037.0,-0.8071339726448059,0.0689104869961738,9.501771926879885,-0.756862223148346,-0.9036831259727478,0.1792484074831009
2476952370.0,-0.7821061611175537,0.2183476835489273,9.684083938598633,-0.7308893799781799,-1.1891024112701416,0.1578349173069
2476960703.0,-0.5639755725860596,0.1435141414403915,9.590786933898926,-0.8592678904533386,-1.604462742805481,0.1938229203224182
2476969036.0,-0.2531088292598724,0.0195678360760211,9.474329948425291,-0.8397754430770874,-1.5692943334579468,0.1429786533117294
2476977369.0,-0.0484676919877529,0.2330037951469421,9.686214447021484,-0.5396022200584412,-1.209798812866211,0.1666462123394012
2476985702.0,-0.0764138177037239,0.4753564894199371,9.88002872467041,-0.5345562696456909,-0.6735903024673462,0.1646739095449447
2476994035.0,-0.3093032240867615,0.3803882002830505,9.7920560836792,-0.8258925676345825,-0.2169141322374344,0.3398752510547638
2477002368.0,-0.6340280175209045,0.0286113712936639,9.52865982055664,-1.1100313663482666,-0.1245492100715637,0.4213029146194458
2477010701.0,-0.8866592645645142,0.0024963421747088,9.3849515914917,-0.54298335313797,-0.2116632163524627,0.3788345456123352
2477019034.0,-0.970890998840332,0.4955415725708008,9.571439743041992,-0.0594122074544429,-0.6784313321113586,0.2742003798484802
2477027367.0,-0.8182637691497803,0.9215078949928284,9.775961875915527,-0.4481594562530517,-1.0939968824386597,0.3096248507499695
2477035700.0,-0.5530133247375488,0.5896063446998596,9.600059509277344,-1.191920042037964,-1.308182954788208,0.3628768622875213
2477044033.0,-0.2693310976028442,0.1362233757972717,9.472004890441896,-1.1717360019683838,-1.3187105655670166,0.2430790960788726
2477052366.0,-0.2261085212230682,0.2396273910999298,9.673948287963867,-0.4936247766017914,-0.5853750109672546,0.3114947378635406
2477060699.0,-0.3959811627864837,0.7494752407073975,9.901372909545898,-0.251032292842865,-0.2411451935768127,0.3917184472084045
2477069032.0,-0.6978599429130554,0.8521468043327332,9.775096893310549,-0.8059647083282471,0.0023052811156958,0.3603154420852661
2477077365.0,-0.8868809938430786,0.5304691195487976,9.492788314819336,-1.1630783081054688,-0.1830777376890182,0.3862370252609253
2477085698.0,-1.0626835823059082,0.3022362291812897,9.456816673278809,-1.0512977838516235,-0.6221569180488586,0.4527828097343445
2477094031.0,-1.0772897005081177,0.492745041847229,9.599000930786133,-0.6190320253372192,-0.942565381526947,0.3935370743274688
2477102364.0,-0.9295691847801208,0.666737973690033,9.695049285888672,-0.81743985414505,-1.423651933670044,0.282986044883728
2477110697.0,-0.5619547963142395,0.5393619537353516,9.55948257446289,-0.990105390548706,-1.754715919494629,0.2443853914737701
2477119030.0,-0.2923653125762939,0.4775524139404297,9.620966911315918,-0.9151837825775146,-1.3360000848770142,0.3368015587329864
2477127363.0,-0.283774733543396,0.6454868316650391,9.813607215881348,-0.8002271056175232,-0.8383154273033142,0.182783156633377
2477135696.0,-0.5035744309425354,0.6744129657745361,9.861130714416504,-1.129779815673828,-0.4236722290515899,0.2511731684207916
2477144029.0,-0.746527910232544,0.2954624891281128,9.631267547607422,-1.4567967653274536,-0.3741599321365356,0.2139300853013992
2477152362.0,-0.9791884422302246,0.0688246563076973,9.402684211730955,-1.231980800628662,-0.4394762814044952,0.2988925278186798
2477160695.0,-1.0779262781143188,0.4367454349994659,9.543981552124023,-0.5921370387077332,-0.9223557710647584,0.2354972660541534
2477169028.0,-0.9838735461235046,0.924555003643036,9.802727699279783,-0.7706938982009888,-1.4493173360824585,0.3342657387256622
2477177361.0,-0.6865761280059814,0.7985201478004456,9.746710777282717,-1.3426340818405151,-1.7672412395477295,0.2068605571985244
2477185694.0,-0.3867190182209015,0.1431013345718383,9.480467796325684,-1.7937265634536743,-1.7013357877731323,0.2573718428611755
2477194027.0,-0.2455707043409347,-0.0825314447283744,9.5216064453125,-1.176705241203308,-1.2851815223693848,0.2437962889671325
2477202360.0,-0.2695477306842804,0.4172682464122772,9.860966682434082,-0.722795307636261,-0.821205198764801,0.2406201511621475
2477210693.0,-0.4888468980789184,0.6706647276878357,9.899927139282228,-1.0608007907867432,-0.3655535578727722,0.2583707869052887
2477219026.0,-0.6753571033477783,0.4064531624317169,9.612441062927246,-1.4674522876739502,-0.3072043061256408,0.3266327381134033
2477227359.0,-0.9025744795799256,0.1334147155284881,9.411959648132324,-1.404313325881958,-0.573951005935669,0.3025553524494171
2477235692.0,-0.9907617568969728,0.1974041610956192,9.54075527191162,-0.9575241208076476,-0.9612381458282472,0.2645950615406036
2477244025.0,-0.9103066325187684,0.3902735412120819,9.669150352478027,-0.9322940707206726,-1.304135799407959,0.2312452942132949
2477252358.0,-0.6018003225326538,0.2674694955348968,9.595014572143556,-1.2077752351760864,-1.832762360572815,0.2840874791145324
2477260691.0,-0.2400397509336471,0.1140953823924064,9.5154447555542,-1.0902059078216553,-1.659891963005066,0.3147989511489868
2477269024.0,-0.0967565029859542,0.30853071808815,9.712924003601074,-0.7843719124794006,-1.0375685691833496,0.320203572511673
2477277357.0,-0.1940637826919555,0.5131735801696777,9.902396202087402,-1.03108811378479,-0.4856330752372741,0.3764523863792419
2477285690.0,-0.4916935861110687,0.2653919458389282,9.68365478515625,-1.374882459640503,-0.1645074039697647,0.3426415920257568
2477294023.0,-0.7377728223800659,-0.1449452042579651,9.434206008911133,-1.2594647407531738,-0.2330511063337326,0.3250190019607544
2477302356.0,-0.9480019211769104,0.0570513345301151,9.441917419433594,-0.5930336117744446,-0.6028438210487366,0.2651073336601257
2477310689.0,-0.992721676826477,0.6436916589736938,9.647176742553713,-0.3653998970985412,-1.0163856744766235,0.2504816055297851
2477319022.0,-0.7677011489868164,0.801677405834198,9.770158767700195,-1.0504525899887085,-1.511918544769287,0.169745534658432
2477327355.0,-0.4279007911682129,0.2129353284835815,9.54499626159668,-1.647469162940979,-1.654538631439209,0.3258386850357055
2477335688.0,-0.2136903703212738,-0.2070320546627044,9.463789939880373,-1.2884856462478638,-1.2120271921157837,0.273329496383667
2477344021.0,-0.2119673490524292,0.1270702481269836,9.721063613891602,-0.4752593040466308,-0.8372652530670166,0.3187947571277618
2477352354.0,-0.4205227792263031,0.6915869116783142,9.938946723937988,-0.5304067730903625,-0.325569748878479,0.2286839187145233
2477360687.0,-0.6439419984817505,0.6677749752998352,9.758593559265137,-1.1238117218017578,-0.1917353570461273,0.2501486241817474
2477369020.0,-0.8588489890098572,0.1787280887365341,9.407740592956545,-1.418708324432373,-0.3650668263435364,0.2214350253343582
2477377353.0,-0.9781870245933532,0.0286614410579204,9.420236587524414,-0.8760195970535278,-0.6482066512107849,0.3186922967433929
2477385686.0,-0.9491608142852784,0.3531358540058136,9.675186157226562,-0.6774324774742126,-1.1084431409835815,0.2005594670772552
2477394019.0,-0.7382163405418396,0.433891624212265,9.685672760009766,-0.8315020799636841,-1.4067721366882324,0.2896201312541961
2477402352.0,-0.3956674039363861,0.2781237661838531,9.587686538696287,-0.9716630578041076,-1.5101256370544434,0.2694873511791229
2477410685.0,-0.2234333604574203,0.3506538271903991,9.651860237121582,-0.7769181728363037,-1.0572402477264404,0.3403875827789306
2477419018.0,-0.3253828287124634,0.5565269589424133,9.820603370666504,-0.8160054683685303,-0.5211343765258789,0.2867513597011566
2477427351.0,-0.5954238772392273,0.4854850172996521,9.7554349899292,-1.1123108863830566,-0.277415007352829,0.3019405901432037
2477435684.0,-0.7994734048843384,0.0931800454854965,9.47788143157959,-1.2284457683563232,-0.4158598780632019,0.2417471259832382
2477444017.0,-0.9608056545257568,0.0250134915113449,9.403520584106444,-0.6537906527519226,-0.625896692276001,0.2873148918151855
2477452350.0,-0.9905043244361876,0.5692877769470215,9.62934398651123,-0.2452947199344635,-0.9762225151062012,0.2711266577243805
2477460683.0,-0.8287211060523987,0.9563422203063964,9.807798385620115,-0.6845788359642029,-1.281518578529358,0.096975490450859
2477469016.0,-0.567472517490387,0.6731426119804382,9.720224380493164,-1.414379596710205,-1.4241644144058228,0.2790158689022064
2477477349.0,-0.3066172301769256,0.0665632635354995,9.491101264953612,-1.477774739265442,-1.3780840635299685,0.2725867033004761
2477485682.0,-0.301377922296524,0.035034492611885,9.570430755615234,-0.773280918598175,-0.9650291204452516,0.1767638325691223
2477494015.0,-0.4282907843589782,0.6414526700973511,9.865838050842283,-0.4096868634223938,-0.445546805858612,0.2729708850383758
2477502348.0,-0.6498359441757202,0.8798424005508423,9.837739944458008,-0.9355471134185792,-0.4574317932128906,0.2343702316284179
2477510681.0,-0.8039295077323914,0.5110419988632202,9.548437118530272,-1.5559494495391846,-0.5471584796905518,0.2629813253879547
2477519014.0,-0.9589816331863404,0.1719758063554763,9.39254093170166,-1.3038029670715332,-0.7930806875228882,0.2764288187026977
2477527347.0,-0.9164294004440308,0.3532789051532745,9.628012657165527,-0.9407210946083068,-0.9749929904937744,0.2079619616270065
2477535680.0,-0.7547978162765503,0.606844961643219,9.71186065673828,-0.8620598316192627,-1.4652493000030518,0.3269400894641876
2477544013.0,-0.4745363891124725,0.4692635834217071,9.602569580078123,-1.1983363628387451,-1.5539898872375488,0.3127113878726959
2477552346.0,-0.213686466217041,0.3315954804420471,9.573795318603516,-1.218251347541809,-1.4977538585662842,0.1645970642566681
2477560679.0,-0.1765393167734146,0.4717514514923095,9.780804634094238,-1.0146437883377075,-0.7858831286430359,0.1720764338970184
2477569012.0,-0.3973547220230102,0.4969151616096496,9.784624099731444,-1.0238651037216189,-0.3090997636318207,0.3003781139850616
2477577345.0,-0.717265784740448,0.2947614192962646,9.61825466156006,-1.3700923919677734,-0.3698567152023315,0.3726614415645599
2477585678.0,-0.9052995443344116,0.0605058968067169,9.42945671081543,-1.0592381954193115,-0.6162912845611572,0.2885443270206451
2477594011.0,-0.9820281267166138,0.2806704044342041,9.520684242248535,-0.8026092052459717,-0.768670380115509,0.3353927731513977
2477602344.0,-0.8881327509880066,0.7223799228668213,9.705649375915527,-0.6768689751625061,-1.2638704776763916,0.2529918253421783
2477610677.0,-0.6325266361236572,0.7009273767471313,9.713810920715332,-1.2886393070220947,-1.4595118761062622,0.3222014307975769
2477619010.0,-0.3247944414615631,0.1107727289199829,9.552209854125977,-1.6783342361450195,-1.518014669418335,0.3294759094715118
2477627343.0,-0.1869529485702514,-0.1907457411289215,9.513307571411133,-1.2463501691818235,-1.1009894609451294,0.2529661655426025
2477635676.0,-0.2860420346260071,0.2856203317642212,9.781657218933104,-0.6139347553253174,-0.4885018467903137,0.1614721268415451
2477644009.0,-0.5267496705055237,0.7429801225662231,9.903604507446287,-0.6877805590629578,-0.3200114369392395,0.3116227686405182
2477652342.0,-0.7349545955657959,0.5416848063468933,9.697230339050291,-1.3075681924819946,-0.4583282768726349,0.2931548655033111
2477660675.0,-0.927387535572052,0.0446909628808498,9.377427101135254,-1.456386923789978,-0.4740810990333557,0.4014775156974792
2477669008.0,-0.9694462418556212,-0.0136047070845961,9.4401216506958,-0.991001844406128,-0.9253782629966736,0.2690775096416473
2477677341.0,-0.9237968325614928,0.3700165748596191,9.65223217010498,-0.7359610199928284,-1.2085436582565308,0.2623153626918793
2477685674.0,-0.6459938883781433,0.4699420034885406,9.688227653503418,-1.0761947631835938,-1.5192185640335083,0.2412348687648773
2477694007.0,-0.312610775232315,0.2707012593746185,9.569550514221191,-1.2567496299743652,-1.5199613571166992,0.3335229158401489
2477702340.0,-0.1410898268222808,0.2976441085338592,9.703754425048828,-1.010058879852295,-1.0322664976119995,0.2447952330112457
2477710673.0,-0.2774228453636169,0.4157019257545471,9.85244846343994,-0.9376218318939208,-0.5116058588027954,0.2964078783988952
2477719006.0,-0.5688512921333313,0.3020860254764557,9.741377830505373,-1.0835973024368286,-0.1948090642690658,0.2924889326095581
2477727339.0,-0.8292719721794128,-0.0145274242386221,9.460429191589355,-1.1789079904556274,-0.3151446878910064,0.2812955379486084
2477735672.0,-0.9776647686958312,0.0975148454308509,9.469749450683594,-0.623155951499939,-0.6909056305885315,0.2284021377563476
2477744005.0,-1.0063120126724243,0.6445999145507812,9.70959758758545,-0.4508233368396759,-0.924763560295105,0.3976353704929352
2477752338.0,-0.809691846370697,0.9075429439544678,9.784443855285645,-0.8433359265327454,-1.4330781698226929,0.2869050800800323
2477760671.0,-0.506362795829773,0.4003631472587585,9.611177444458008,-1.547343134880066,-1.5714973211288452,0.2938720881938934
2477769004.0,-0.2610110640525818,-0.151432380080223,9.452784538269045,-1.3888936042785645,-1.3615119457244873,0.2402103096246719
2477777337.0,-0.2474811375141143,0.0173100568354129,9.621684074401855,-0.5414465665817261,-0.9145691990852356,0.2725098431110382
2477785670.0,-0.4240992069244385,0.6943121552467346,9.890515327453612,-0.3248525261878967,-0.4851720333099365,0.1627528369426727
2477794003.0,-0.6165536046028137,0.8695424795150757,9.81716251373291,-0.9912835955619812,-0.305718719959259,0.2824481427669525
2477802336.0,-0.8062093257904053,0.3981594145298004,9.518338203430176,-1.6951627731323242,-0.3917056620121002,0.3612119257450104
2477810669.0,-0.9544394612312316,0.0459356606006622,9.383113861083984,-1.0959948301315308,-0.7557352185249329,0.3202548027038574
2477819002.0,-0.9566712975502014,0.2905484735965729,9.599994659423828,-0.5812510251998901,-1.0255554914474487,0.3003780841827392
2477827335.0,-0.8085874915122986,0.5518083572387695,9.715325355529783,-0.6858339309692383,-1.5148130655288696,0.2305024713277816
2477835668.0,-0.4333684146404266,0.4424721598625183,9.60058879852295,-1.1156151294708252,-1.6938053369522097,0.1554527878761291
2477844001.0,-0.1544230729341507,0.3729516863822937,9.620502471923828,-1.116562843322754,-1.2801610231399536,0.28375443816185
2477852334.0,-0.1704237759113311,0.5226367115974426,9.784222602844238,-0.7904936671257019,-0.7387785315513611,0.2667466402053833
2477860667.0,-0.392684131860733,0.5388235449790955,9.812268257141112,-1.1268854141235352,-0.1891483217477798,0.2616493999958038
2477869000.0,-0.6809290647506714,0.1254036724567413,9.534955024719238,-1.430977463722229,-0.1929648220539093,0.2590879797935486
2477877333.0,-0.9161289930343628,-0.0397197380661964,9.354803085327148,-0.9507875442504884,-0.4168076515197754,0.3571136593818664
2477885666.0,-0.9948174357414246,0.4825018048286438,9.581281661987305,-0.3562811911106109,-0.736626923084259,0.3371089100837707
2477893999.0,-0.9041765928268432,0.9775075316429138,9.760819435119627,-0.6492311954498291,-1.1015273332595823,0.2196420580148697
2477902332.0,-0.6362302899360657,0.7672452926635742,9.708089828491213,-1.420347809791565,-1.618883728981018,0.2296572178602218
2477910665.0,-0.3495568335056305,0.0733589902520179,9.479308128356934,-1.635789155960083,-1.567527174949646,0.2938977181911468
2477918998.0,-0.2288122922182083,-0.1263692826032638,9.543773651123049,-1.1066246032714844,-1.0494792461395264,0.2599076330661773
2477927331.0,-0.3098754584789276,0.4655427932739258,9.806719779968262,-0.288172960281372,-0.5680597424507141,0.3007367253303528
2477935664.0,-0.5573280453681946,0.9164437055587769,9.87819766998291,-0.5867580771446228,-0.3687809407711029,0.3140817582607269
2477943997.0,-0.7477002143859863,0.632529616355896,9.668516159057615,-1.6127105951309204,-0.4463152289390564,0.3274779915809631
2477952330.0,-0.9095625281333924,0.1301746964454651,9.382027626037598,-1.5314109325408936,-0.5761281847953796,0.291361927986145
2477960663.0,-1.003129005432129,0.1381285488605499,9.568479537963867,-0.9960991144180298,-0.8835245966911316,0.2964591383934021
2477968996.0,-0.9385532140731812,0.4401002824306488,9.66003704071045,-0.8176447749137878,-1.244659662246704,0.3039385080337524
2477977329.0,-0.6238184571266174,0.452457457780838,9.624072074890137,-1.0118775367736816,-1.62103533744812,0.1501506567001342
2477985662.0,-0.3044241368770599,0.3313903212547302,9.573548316955566,-1.100374698638916,-1.62684965133667,0.238801509141922
2477993995.0,-0.21928471326828,0.4332834482192993,9.725255966186523,-0.938569724559784,-1.0880544185638428,0.1675427109003067
2478002328.0,-0.3144749104976654,0.5163493156433105,9.856494903564451,-1.0339313745498655,-0.4083549380302429,0.294128268957138
2478010661.0,-0.5607328414916992,0.2551562190055847,9.691436767578123,-1.471422553062439,-0.2337426841259002,0.2253028154373169
2478018994.0,-0.8333419561386108,-0.1069421544671058,9.428526878356934,-1.32690691947937,-0.4124532043933868,0.3037079274654388
2478027327.0,-0.9910836815834044,0.0882443785667419,9.463539123535156,-0.5794323682785034,-0.6672891974449158,0.2221522480249405
2478035660.0,-0.9959260821342468,0.7032102942466736,9.70272445678711,-0.4252859354019165,-1.0463286638259888,0.2356765568256378
2478043993.0,-0.7832114100456238,0.8842592835426331,9.780643463134766,-1.0916147232055664,-1.5179636478424072,0.2570900917053222
2478052326.0,-0.4876124858856201,0.247783288359642,9.553999900817873,-1.6666284799575806,-1.659251689910889,0.1997397989034652
2478060659.0,-0.2315462082624435,-0.2852194905281067,9.42485809326172,-1.3648159503936768,-1.3575671911239624,0.2025061398744583
2478068992.0,-0.22650907933712,0.0978365838527679,9.742236137390137,-0.4560999274253845,-0.9354702830314636,0.2163378447294235
2478077325.0,-0.4514588415622711,0.6831108331680298,9.88968563079834,-0.4379650354385376,-0.4547936022281647,0.1785824596881866
2478085658.0,-0.5802600979804993,0.719211220741272,9.782843589782717,-1.111644983291626,-0.3504924178123474,0.2951784431934356
2478093991.0,-0.8181021213531494,0.2564472258090973,9.43885612487793,-1.594370722770691,-0.5061244368553162,0.3959960639476776
2478102324.0,-0.9696966409683228,0.054161325097084,9.451201438903809,-1.0421278476715088,-0.7150853872299194,0.3310639560222626
2478110657.0,-0.9741027355194092,0.3106050491333008,9.617547988891602,-0.6330685615539551,-1.0657185316085815,0.3560890853404999
2478118990.0,-0.7845791578292847,0.448458731174469,9.652308464050291,-0.7879579067230225,-1.5397100448608398,0.2103697061538696
2478127323.0,-0.3961443305015564,0.3004169464111328,9.569225311279297,-1.0376710891723633,-1.6886311769485474,0.2822176218032837
2478135656.0,-0.1683420985937118,0.3707145154476166,9.66159439086914,-0.9382110238075256,-1.3877406120300293,0.1354224532842636
2478143989.0,-0.1723047047853469,0.564073383808136,9.877562522888184,-0.8566809892654419,-0.7033028602600098,0.2727403938770294
2478152322.0,-0.4181194305419922,0.4744981527328491,9.817011833190918,-1.1936360597610474,-0.2509554624557495,0.2073215991258621
2478160655.0,-0.719296932220459,0.0182469170540571,9.498805046081545,-1.3073632717132568,-0.0873317271471023,0.3280414938926697
2478168988.0,-0.9439462423324584,-0.0678017139434814,9.352371215820312,-0.808167576789856,-0.4202399849891662,0.2258151024580001
2478177321.0,-1.0356172323226929,0.5105985403060913,9.619558334350586,-0.3213177919387817,-0.8319887518882751,0.2402871549129486
2478185654.0,-0.8790200352668762,1.009831190109253,9.798601150512695,-0.6401638388633728,-1.289484620094299,0.1938997656106948
2478193987.0,-0.5846996307373047,0.6549676060676575,9.62855339050293,-1.5027742385864258,-1.625850796699524,0.1371129900217056
2478202320.0,-0.2840621769428253,-0.045470580458641,9.477648735046388,-1.542297124862671,-1.4502394199371338,0.2666954100131988
2478210653.0,-0.1941353529691696,-0.0819430574774742,9.58042335510254,-0.7791465520858765,-0.915952205657959,0.1283529251813888
2478218986.0,-0.3602815568447113,0.5727138519287109,9.87010097503662,-0.4257726073265075,-0.5665740370750427,0.2106002271175384
2478227319.0,-0.6070185899734497,0.8488423228263855,9.858614921569824,-0.8415428400039673,-0.2635064423084259,0.2438731342554092
2478235652.0,-0.8076704144477844,0.4910426735877991,9.54218578338623,-1.5314239263534546,-0.4602109491825104,0.2336914837360382
2478243985.0,-0.9642890691757202,0.1413401812314987,9.40998649597168,-1.3874845504760742,-0.6187758445739746,0.2991998493671417
2478252318.0,-0.9757407903671264,0.2803699970245361,9.576919555664062,-0.8540939092636108,-1.0256836414337158,0.2906703650951385
2478260651.0,-0.8432558178901672,0.5101979970932007,9.72702980041504,-0.8433358669281006,-1.3294427394866943,0.3737116456031799
2478268984.0,-0.4958434998989105,0.3812175691127777,9.612183570861816,-1.201960802078247,-1.5514925718307495,0.3213562071323395
2478277317.0,-0.2551480531692505,0.2565667927265167,9.589665412902832,-1.1080845594406128,-1.310385823249817,0.2347288727760315
2478285650.0,-0.2345489859580993,0.4588690102100372,9.749502182006836,-0.8225371241569519,-0.8462046384811401,0.2923864722251892
2478293983.0,-0.4592980742454529,0.6198154091835022,9.851097106933594,-1.0390286445617676,-0.3312048614025116,0.3625694811344147
2478302316.0,-0.7099981904029846,0.3086309432983398,9.618779182434082,-1.2773946523666382,-0.2693977355957031,0.4170765876770019
2478310649.0,-0.945212423801422,-0.0572728142142295,9.37443733215332,-1.11653733253479,-0.5193414688110352,0.3155674040317535
2478318982.0,-0.9749754071235656,0.1993709504604339,9.480548858642578,-0.5856822729110718,-0.921945869922638,0.3385433256626129
2478327315.0,-0.8834905028343201,0.780489444732666,9.749438285827637,-0.5423686504364014,-1.2957346439361572,0.3446139395236969
2478335648.0,-0.6093096733093262,0.8567752242088318,9.795635223388672,-1.114641785621643,-1.5730853080749512,0.1897502392530441
2478343981.0,-0.3303693830966949,0.2394552081823349,9.587055206298828,-1.6428842544555664,-1.5788486003875732,0.2385197281837463
2478352314.0,-0.2126969397068023,-0.1631205826997757,9.476930618286133,-1.2547261714935305,-0.9741222262382508,0.3395934998989105
2478360647.0,-0.3169565796852112,0.2364803850650787,9.741957664489746,-0.4567145705223083,-0.4888860583305359,0.3401314318180084
2478368980.0,-0.634864866733551,0.7650394439697266,9.901315689086914,-0.5473377704620361,-0.2915540039539337,0.2161329090595245
2478377313.0,-0.7911685705184937,0.6581761240959167,9.689414024353027,-1.1862335205078125,-0.4220585525035858,0.3093430995941162
2478385646.0,-0.9382956624031068,0.1478635668754577,9.408184051513672,-1.3708610534667969,-0.7469494938850403,0.2182332724332809
2478393979.0,-0.9113436937332152,0.1058549210429191,9.46989917755127,-0.9512741565704346,-0.9737378358840942,0.1873425096273422
2478402312.0,-0.8316252827644348,0.4575530588626861,9.706758499145508,-0.6365777254104614,-1.3215792179107666,0.2884162962436676
2478410645.0,-0.5639988780021667,0.4893269538879394,9.697787284851074,-1.0414108037948608,-1.595241665840149,0.2724842131137848
2478418978.0,-0.2445346862077713,0.2466611266136169,9.593777656555176,-1.2172523736953735,-1.3896106481552124,0.2457173317670822
2478427311.0,-0.1831056326627731,0.2454569637775421,9.659764289855955,-0.9523756504058838,-0.8239971399307251,0.2364705950021743
2478435644.0,-0.3520557880401611,0.5199472904205322,9.808708190917969,-0.7875992655754089,-0.3449340462684631,0.3331899046897888
2478443977.0,-0.6744703650474548,0.4570737183094024,9.749359130859377,-1.168944001197815,-0.198318213224411,0.25624480843544
2478452310.0,-0.8671748042106628,0.0334109812974929,9.47394847869873,-1.2641009092330933,-0.385635107755661,0.2486117631196975
2478460643.0,-0.9981291890144348,-0.0308001413941383,9.403277397155762,-0.7849353551864624,-0.7754837274551392,0.3423342108726501
2478468976.0,-0.9195051789283752,0.5341744422912598,9.62469482421875,-0.3725462555885315,-1.3193250894546509,0.2999427020549774
2478477309.0,-0.6643599271774292,0.8240495324134827,9.845892906188965,-0.7217963337898254,-1.5503913164138794,0.1880597174167633
2478485642.0,-0.3813192844390869,0.4534167349338531,9.663192749023438,-1.4972929954528809,-1.567783236503601,0.2344982922077179
2478493975.0,-0.1513588428497314,-0.1321024447679519,9.507257461547852,-1.4699369668960571,-1.162438154220581,0.3256337940692901
2478502308.0,-0.2565369307994842,-0.0011160305002704,9.635858535766602,-0.6587852835655212,-0.5228249430656433,0.2488935142755508
2478510641.0,-0.5442810654640198,0.6146367192268372,9.837419509887695,-0.3751844763755798,-0.1253688633441925,0.2408250272274017
2478518974.0,-0.8165470957756042,0.7656188607215881,9.765110969543455,-1.013209581375122,-0.2285686582326889,0.3272218406200409
2478527307.0,-0.9558272361755372,0.3283584117889404,9.45677375793457,-1.4335647821426392,-0.5697502493858337,0.4382852017879486
2478535640.0,-0.9821854829788208,0.0451129786670208,9.420980453491213,-1.1120803356170654,-0.9477138519287108,0.3003012537956238
2478543973.0,-0.871001660823822,0.282766193151474,9.632819175720217,-0.678636372089386,-1.2101573944091797,0.2296316027641296
2478552306.0,-0.6363312005996704,0.5241031050682068,9.75370979309082,-0.8041204810142517,-1.4143539667129517,0.2441292703151703
2478560639.0,-0.3249725103378296,0.3182007968425751,9.582908630371094,-1.0280656814575195,-1.4553366899490356,0.2120602428913116
2478568972.0,-0.1982624977827072,0.2449276447296142,9.537193298339844,-0.9685383439064026,-0.995330810546875,0.1537878811359405
2478577305.0,-0.3837283849716186,0.2638112604618072,9.616747856140137,-0.8403646349906921,-0.3220605850219726,0.3272474408149719
2478585638.0,-0.6485052108764648,-0.1498878449201584,9.136141777038574,-0.9083192348480223,0.0494610853493213,0.2028647363185882
2478593971.0,-0.9181606769561768,-0.159608706831932,9.003131866455078,-0.4544861912727356,-0.2474463135004043,0.2631350457668304
2478602304.0,-1.1139336824417114,0.6716877222061157,9.789287567138672,-0.2485989779233932,-0.936520516872406,0.3817289769649505
2478610637.0,-0.7751678824424744,0.595216691493988,9.79769229888916,-0.4746445715427398,-1.5575376749038696,0.1803242117166519
2478618970.0,-0.4097287654876709,0.2947154939174652,9.31476879119873,-0.3780276775360107,-1.806046724319458,0.2544774115085602
2478627303.0,-0.0045395498163998,0.5283262729644775,9.580219268798828,-0.5377452969551086,-1.8875900506973269,0.3229058980941772
2478635636.0,0.2881881296634674,0.4617876708507538,9.900744438171388,-0.8869569301605225,-1.2410224676132202,0.3038872480392456
2478643969.0,0.1917963325977325,0.3500315248966217,9.824508666992188,-0.5133477449417114,-0.143093928694725,0.345561683177948
2478652302.0,-0.3398886322975158,0.976834774017334,10.054637908935549,-0.3097401261329651,0.5808283686637878,0.4111596941947937
2478660635.0,-0.8974955081939697,1.1908053159713743,10.087441444396973,-1.3117945194244385,0.5598503351211548,0.4681001305580139
2478668968.0,-1.2808880805969238,0.4191890954971313,9.52471923828125,-1.99433708190918,-0.181848257780075,0.5938147902488708
2478677301.0,-1.1269385814666748,-0.1280286163091659,9.303446769714355,-1.4111266136169434,-1.0712000131607056,0.5296767354011536
2478685634.0,-0.8907809853553772,0.2838083803653717,9.71417236328125,-0.8165433406829834,-1.5192440748214722,0.4592632055282593
2478693967.0,-0.59539794921875,0.5655454993247986,9.848906517028809,-1.0407447814941406,-1.75494647026062,0.3524518311023712
2478702300.0,-0.0722365900874137,0.3394737541675567,9.666338920593262,-1.3075681924819946,-1.6336119174957275,0.3323446810245514
2478710633.0,0.09262216091156,0.3656461834907532,9.679863929748535,-1.0613130331039429,-0.7019452452659607,0.2779656946659088
2478718966.0,-0.2524595856666565,0.5680859684944153,9.94290256500244,-1.024915099143982,0.2763263583183288,0.199483647942543
2478727299.0,-0.6825240850448608,0.2162232249975204,9.705751419067385,-1.298346996307373,0.5778058767318726,0.381831407546997
2478735632.0,-1.0936839580535889,-0.2465585023164749,9.262073516845703,-1.1356712579727173,0.2848559319972992,0.1972808390855789
2478743965.0,-1.2918821573257446,-0.1422700434923172,9.223698616027832,-0.5328400135040283,-0.3291300535202026,0.1890842616558075
2478752298.0,-1.170562744140625,0.3612829446792602,9.498953819274902,-0.0289825033396482,-0.9898492693901062,0.0933126509189605
2478760631.0,-0.8841915130615234,0.853040874004364,9.751813888549805,-0.1582319289445877,-1.4751365184783936,0.2430790662765503
2478768964.0,-0.4882084429264068,0.7886776328086853,9.691669464111328,-0.9546553492546082,-1.5097670555114746,0.2024805247783661
2478777297.0,-0.1422968059778213,0.305681973695755,9.54689884185791,-1.3104369640350342,-1.0844169855117798,0.1553759425878524
2478785630.0,-0.1482140570878982,0.0010586207499727,9.512508392333984,-0.9401063919067384,-0.5166006684303284,0.1303764581680297
2478793963.0,-0.3890002071857452,0.375531405210495,9.744439125061035,-0.60286945104599,-0.0172255728393793,0.222690150141716
2478802296.0,-0.7341253161430359,0.6099587082862854,9.809615135192873,-0.8103702664375305,0.2533504068851471,0.3623645305633545
2478810629.0,-1.0247734785079956,0.4846909344196319,9.535905838012695,-1.1707626581192017,-0.0774958580732345,0.3479693830013275
2478818962.0,-1.1136547327041626,0.3706889450550079,9.410429954528809,-1.1254512071609497,-0.497441291809082,0.3947409987449646
2478827295.0,-1.133732795715332,0.6304515600204468,9.6752290725708,-0.9056808352470398,-0.9864426255226136,0.3664116263389587
2478835628.0,-0.9419807195663452,0.6739636659622192,9.770163536071776,-1.1223517656326294,-1.516144871711731,0.2991998493671417
2478843961.0,-0.5989499688148499,0.2514008581638336,9.57748794555664,-1.5772347450256348,-1.860656261444092,0.278401106595993
2478852294.0,-0.2271975576877594,-0.0537363365292549,9.488951683044434,-1.3859989643096924,-1.5914506912231443,0.3529897332191467
2478860627.0,-0.0780732780694961,0.181689366698265,9.714025497436523,-0.9070640802383424,-0.9358032941818236,0.4196892082691192
2478868960.0,-0.2772727906703949,0.5567057728767395,9.981427192687988,-0.8542731404304504,-0.1688105911016464,0.3012746274471283
2478877293.0,-0.6788048148155212,0.4018109440803528,9.77336597442627,-1.2284458875656128,0.034502375870943,0.3005574345588684
2478885626.0,-1.0052746534347534,-0.0344265885651111,9.4076566696167,-1.1056256294250488,-0.1513417214155197,0.3568319380283355
2478893959.0,-1.190118670463562,-0.0276314318180084,9.258260726928713,-0.5023847222328186,-0.633452832698822,0.1799656152725219
2478902292.0,-1.0857586860656738,0.3981415331363678,9.490814208984377,-0.1484472900629043,-1.3381003141403198,0.0773293748497963
2478910625.0,-0.7088187336921692,0.564857542514801,9.644701957702637,-0.5098642110824585,-1.8746418952941888,0.1655960381031036
2478918958.0,-0.2285205125808715,0.0737393125891685,9.466126441955566,-0.8600108027458191,-1.9088627099990845,0.0951825082302093
2478927291.0,0.0790174528956413,-0.2660571336746216,9.356805801391602,-0.4977486133575439,-1.304443359375,0.2541956603527069
2478935624.0,-0.0523087419569492,0.0989595800638198,9.563286781311035,0.3397215604782104,-0.3436789512634277,0.2269677221775055
2478943957.0,-0.4451214075088501,0.6433767676353455,9.73888874053955,0.1692588329315185,0.0952593386173248,0.3309870958328247
2478952290.0,-0.7950170636177063,0.4347283244132995,9.399715423583984,-0.4063825905323028,-0.1129459738731384,0.29535773396492
2478960623.0,-0.96130633354187,-0.1800656616687774,8.970423698425293,-0.6059430837631226,-0.6588108539581299,0.3296551704406738
2478968956.0,-0.9098487496376038,-0.3145033419132232,8.9966459274292,-0.0776495561003685,-1.0902059078216553,0.2945637106895447
2478977289.0,-0.7366355061531067,-0.1738570034503936,9.12484645843506,0.253017395734787,-1.4837687015533447,0.4552161693572998
2478985622.0,-0.3402791917324066,0.005789553746581,9.199178695678713,0.3439223170280456,-1.7963647842407229,0.4716348648071289
2478993955.0,-0.0132470903918147,0.0624874643981456,9.271037101745604,0.1561443656682968,-1.4448091983795166,0.4861581325531006
2479002288.0,0.0153857236728072,-0.0205999035388231,9.255399703979492,0.11349668353796,-0.7616521120071411,0.581058919429779
2479010621.0,-0.1943713575601577,-0.0596117936074733,9.264119148254396,0.2929756045341491,-0.1138680726289749,0.5807002782821655
2479018954.0,-0.6005169153213501,0.0177318975329399,9.279876708984377,0.1825270354747772,0.046412993222475,0.6510626673698425
2479027287.0,-0.9181534647941588,-0.1214979887008667,9.048624992370604,0.1171595156192779,-0.2547720074653625,0.6878702044487
2479035620.0,-0.961520791053772,0.0793963745236396,9.166875839233398,0.5426120162010193,-0.7279181480407715,0.4621320068836212
2479043953.0,-0.8576688170433044,0.8009252548217773,9.688776016235352,0.8293632864952087,-1.03764545917511,0.4677927196025848
2479052286.0,-0.5896516442298889,1.1977647542953491,10.022433280944824,0.2487398535013198,-1.2065969705581665,0.2778632342815399
2479060619.0,-0.3145891726016998,0.9770711660385132,9.978652000427246,-0.4670115709304809,-1.2450952529907229,0.2405945360660553
2479068952.0,-0.1602737456560135,0.6250655055046082,9.920849800109863,-0.6225923895835876,-0.9353933334350586,0.2494314163923263
2479077285.0,-0.1881483793258667,0.7182741761207581,10.131529808044434,-0.2794640660285949,-0.2576407790184021,0.1359091252088546
2479085618.0,-0.3830919563770294,1.2737210988998413,10.483542442321776,-0.2099470645189285,0.1035327389836311,0.0549937598407268
2479093951.0,-0.6536053419113159,1.5032843351364136,10.526259422302246,-0.7882652282714844,0.0764584839344024,0.0789430662989616
2479102284.0,-0.8063685894012451,1.2610318660736084,10.270902633666992,-1.3447344303131104,0.1388291418552398,-0.0780593752861023
2479110617.0,-0.966077208518982,1.0450445413589478,10.25828456878662,-1.553849220275879,-0.0295204073190689,-0.0856924280524253
2479118950.0,-0.9774287343025208,1.0372693538665771,10.46477222442627,-1.489685297012329,-0.4591735601425171,-0.2461656033992767
2479127283.0,-0.8726823925971985,0.9065001606941224,10.366602897644045,-1.5960613489151,-0.734910786151886,-0.2064123004674911
2479135616.0,-0.6218150854110718,0.7821816802024841,10.206486701965332,-1.622905135154724,-0.8949998617172241,-0.1868686527013778
2479143949.0,-0.3751971125602722,0.7725749611854553,10.199336051940918,-1.6230586767196655,-0.6804037094116211,-0.2059512585401535
2479152282.0,-0.3663185536861419,0.9243118166923524,10.438880920410156,-1.5399150848388672,-0.303131639957428,-0.2046449333429336
2479160615.0,-0.5137524604797363,0.6880726218223572,10.44570541381836,-1.9587846994400024,0.3114435374736786,-0.2074112892150879
2479168948.0,-0.8854067325592041,0.1868053972721099,9.97208309173584,-1.8711841106414795,0.4319072663784027,0.0098614813759922
2479177281.0,-1.2434072494506836,0.1364977061748504,9.681286811828612,-1.434768557548523,0.2001496255397796,0.0618583746254444
2479185614.0,-1.4572986364364624,0.6170186400413513,9.840252876281738,-0.9561153054237366,-0.2690134942531585,0.1540183871984481
2479193947.0,-1.3631244897842407,0.9286106824874878,9.996541976928713,-1.2715033292770386,-0.888724148273468,0.1399049460887909
2479202280.0,-1.0520777702331543,0.5629215836524963,9.840431213378906,-1.886859893798828,-1.2439935207366943,0.3053985238075256
2479210613.0,-0.7278375029563904,0.0384708531200885,9.538387298583984,-1.6079976558685305,-1.270863056182861,0.3802945613861084
2479218946.0,-0.570367693901062,0.0893819257616996,9.649520874023438,-1.0614410638809204,-0.9211262464523317,0.4594424962997436
2479227279.0,-0.6200875639915466,0.7066146731376648,9.9675931930542,-0.7691826820373535,-0.4522321224212646,0.4749903678894043
2479235612.0,-0.880379319190979,0.8835404515266418,9.825523376464844,-1.3006011247634888,-0.2007003426551818,0.5642816424369812
2479243945.0,-1.0549770593643188,0.4552662372589111,9.413080215454102,-1.7560478448867798,-0.4442660808563232,0.701778769493103
2479252278.0,-1.2094217538833618,0.1390788853168487,9.193982124328612,-1.483256220817566,-0.6815563440322876,0.7252670526504517
2479260611.0,-1.1921998262405396,0.3126653730869293,9.417563438415527,-1.1450202465057373,-1.039310336112976,0.6487317085266113
2479268944.0,-1.107958436012268,0.5680493116378784,9.518148422241213,-1.238768219947815,-1.321041226387024,0.7417625784873962
2479277277.0,-0.8910159468650818,0.531935453414917,9.3554105758667,-1.4596145153045654,-1.6751070022583008,0.7124343514442444
2479285610.0,-0.6292310953140259,0.4114969670772552,9.204804420471191,-1.625133752822876,-1.8044074773788448,0.5894092321395874
2479293943.0,-0.508064866065979,0.4501258134841919,9.356415748596191,-1.6210352182388306,-1.5153509378433228,0.5463516116142273
2479302276.0,-0.4472489058971405,0.3410110473632812,9.441770553588867,-1.5929877758026123,-1.2773178815841677,0.5000923275947571
2479310609.0,-0.568177342414856,0.073378711938858,9.272132873535156,-1.850641250610352,-1.2459146976470947,0.4915627539157867
2479318942.0,-0.6910374760627747,-0.0961193218827247,9.02836799621582,-1.710352063179016,-1.305134892463684,0.3877226710319519
2479327275.0,-0.7662820219993591,0.2690398693084717,9.176446914672852,-1.080907940864563,-1.5117905139923096,0.2039405554533004
2479335608.0,-0.7394844889640808,0.6306138634681702,9.422365188598633,-1.488456130027771,-1.7004907131195068,0.2079876065254211
2479343941.0,-0.5367695689201355,0.3388028740882873,9.360506057739258,-1.9924159049987795,-2.178964376449585,0.1255865842103958
2479352274.0,-0.2722928524017334,-0.2300889045000076,9.182498931884766,-1.981402039527893,-2.252861738204956,0.0338876321911811
2479360607.0,-0.1381499618291854,-0.4739249944686889,9.131084442138672,-1.4609977006912231,-1.984578251838684,-0.0098742879927158
2479368940.0,-0.087967000901699,-0.0915378779172897,9.428579330444336,-0.7907242178916931,-1.6434221267700195,-0.0479370392858982
2479377273.0,-0.1496874988079071,0.4239705502986908,9.648082733154297,-0.8745595812797546,-1.242764234542847,-0.1339240223169326
2479385606.0,-0.3780324161052704,0.2049843817949295,9.518136024475098,-1.405312180519104,-1.0789611339569092,-0.0200175233185291
2479393939.0,-0.4936851561069488,-0.2976496815681457,9.18330192565918,-1.3945798873901367,-1.11064612865448,-0.131772443652153
2479402272.0,-0.6805214881896973,-0.2577312290668487,9.346827507019045,-0.8154164552688599,-1.0484803915023804,-0.0721424967050552
2479410605.0,-0.7101128101348877,-0.0041200374253094,9.592592239379885,-0.6104512214660645,-1.4042876958847046,-0.0739098712801933
2479418938.0,-0.5991737246513367,0.0619116090238094,9.500486373901367,-0.693108320236206,-1.5645813941955566,0.0281756576150655
2479427271.0,-0.3964641988277435,-0.0029037082567811,9.46276569366455,-0.8662349581718445,-1.707355260848999,0.0249482635408639
2479435604.0,-0.2367090284824371,0.0491614900529384,9.603678703308104,-0.5913174152374268,-1.3910962343215942,0.0335802622139453
2479443937.0,-0.2614149451255798,0.2694332897663116,9.845330238342283,-0.5065599083900452,-0.9132882952690125,0.0554804317653179
2479452270.0,-0.4429612457752228,0.2178040742874145,9.866774559020996,-0.6197747588157654,-0.5069953203201294,0.1864460259675979
2479460603.0,-0.6362310647964478,-0.0419800356030464,9.64419937133789,-0.6866536140441895,-0.4684971272945404,0.261879950761795
2479468936.0,-0.845086932182312,0.0014949442120268,9.552979469299316,-0.2747767269611358,-0.5709028840065002,0.3180775940418243
2479477269.0,-0.9113365411758424,0.3946724236011505,9.817963600158691,0.0142671279609203,-0.7812982201576233,0.3089076578617096
2479485602.0,-0.8270617723464966,0.7891445755958557,9.9932222366333,-0.0905591323971748,-1.1991432905197144,0.3402338922023773
2479493935.0,-0.6533693075180054,0.6198796629905701,9.882017135620115,-0.7170064449310303,-1.3921208381652832,0.4278601706027984
2479502268.0,-0.3618694841861725,0.1333289891481399,9.684133529663086,-0.6115014553070068,-1.3713221549987793,0.4619015157222748
2479510601.0,-0.2592476308345794,0.2478030920028686,9.91130828857422,-0.0800316780805587,-1.0032199621200562,0.478268951177597
2479518934.0,-0.3087740242481231,0.6668385863304138,10.113054275512695,0.0992039367556572,-0.618955135345459,0.5551373362541199
2479527267.0,-0.5360769629478455,0.9002282023429871,10.086188316345217,-0.1979083567857742,-0.2787469029426574,0.5317258834838867
2479535600.0,-0.6742193102836609,0.7557840943336487,9.847920417785645,-0.6076464653015137,-0.3930504322052002,0.6601685285568237
2479543933.0,-0.8363676071166992,0.6560444235801697,9.79257106781006,-0.4634511172771454,-0.4570988416671753,0.5988352298736572
2479552266.0,-0.8780689835548401,0.7439882159233093,9.926921844482422,-0.4538970291614532,-0.512297511100769,0.5864635109901428
2479560599.0,-0.8441212773323059,0.9089403748512268,9.964653968811035,-0.6296875476837158,-1.0040651559829712,0.5241953134536743
2479568932.0,-0.5838795900344849,0.80845707654953,9.722208023071287,-0.8658763766288757,-1.1689952611923218,0.4507592916488647
2479577265.0,-0.4208947420120239,0.7822706699371338,9.694626808166504,-0.7683630585670471,-1.2227851152420044,0.3148245811462402
2479585598.0,-0.2606495916843414,0.9437103271484376,10.004688262939451,-0.9953563213348388,-0.7416473627090454,0.2861622273921966
2479593931.0,-0.3756174743175506,0.800960898399353,9.920462608337402,-1.2178672552108765,-0.2948070466518402,0.3170786201953888
2479602264.0,-0.5805746912956238,0.5064570903778076,9.700014114379885,-1.3504208326339722,-0.1428377628326416,0.2267372012138366
2479610597.0,-0.9092406034469604,0.367062509059906,9.461023330688477,-1.1499638557434082,-0.1988817155361175,0.2079875767230987
2479618930.0,-1.0696146488189695,0.6496784090995789,9.491636276245115,-0.8579359650611877,-0.3711630403995514,0.0889326184988021
2479627263.0,-1.0529271364212036,0.9404844045639038,9.646388053894045,-1.079268455505371,-0.8584226369857788,0.0931589677929878
2479635596.0,-0.902144730091095,0.7486659288406372,9.593583106994627,-1.6165016889572144,-1.3171223402023315,0.0809409767389297
2479643929.0,-0.6014894843101501,0.2333588302135467,9.30713176727295,-1.7505922317504885,-1.3051351308822632,0.0457726381719112
2479652262.0,-0.400444746017456,0.0142131065949797,9.299230575561523,-1.3831814527511597,-1.1141806840896606,0.0578881688416004
2479660595.0,-0.3441875874996185,0.3074292242527008,9.641468048095703,-0.8340378999710083,-0.5120925903320312,0.0997930467128753
2479668928.0,-0.598206639289856,0.6914509534835815,9.719439506530762,-1.1442008018493652,-0.1676067411899566,0.1044292449951171
2479677261.0,-0.7990385890007019,0.5048204064369202,9.46423053741455,-1.6951627731323242,-0.1728576570749282,0.1886232197284698
2479685594.0,-1.0012580156326294,0.1813971251249313,9.209484100341797,-1.6493133306503296,-0.3889137208461761,0.0487182736396789
2479693927.0,-1.0796501636505127,0.1031726077198982,9.319725036621094,-1.4047999382019043,-0.6772788166999817,0.1996373385190963
2479702260.0,-0.9896388649940492,0.1716967523097992,9.48560619354248,-1.172376275062561,-1.183236598968506,0.1671584844589233
2479710593.0,-0.7404821515083313,0.1545381546020507,9.410832405090332,-1.25508451461792,-1.6018500328063965,0.1072211861610412
2479718926.0,-0.4024617969989776,0.1790755242109298,9.394210815429688,-1.2548798322677612,-1.7382205724716189,0.2149290591478347
2479727259.0,-0.2530795931816101,0.2390010803937912,9.547115325927734,-1.1408451795578003,-1.32639479637146,0.2521721720695495
2479735592.0,-0.2645623385906219,0.3128438293933868,9.751033782958984,-1.2020632028579712,-0.8277624249458313,0.2870587408542633
2479743925.0,-0.5310558676719666,0.1019994616508483,9.666143417358398,-1.4576677083969116,-0.4308442771434784,0.3526055216789245
2479752258.0,-0.7374511361122131,-0.2501278221607208,9.37078094482422,-1.2238353490829468,-0.515191912651062,0.4033473432064056
2479760591.0,-0.8688274621963501,-0.1074287965893745,9.39988613128662,-0.743517279624939,-0.7948994040489197,0.3858784735202789
2479768924.0,-0.8594499230384827,0.4451358616352081,9.656274795532228,-0.3255953788757324,-1.2346190214157104,0.3731994032859802
2479777257.0,-0.654809832572937,0.6744067072868347,9.841323852539062,-0.7733065485954285,-1.5166059732437134,0.330526053905487
2479785590.0,-0.4445000886917114,0.3100425004959106,9.689204216003418,-1.1943533420562744,-1.4859713315963743,0.3855710625648498
2479793923.0,-0.1714663803577423,-0.1301383823156356,9.49933624267578,-0.9819089770317078,-1.4868168830871582,0.4711739420890808
2479802256.0,-0.1733062267303466,0.0706557855010032,9.728781700134276,-0.4379906356334686,-0.9770166277885436,0.3864163756370544
2479810589.0,-0.2770868241786957,0.4972656369209289,9.930742263793944,-0.3258258700370788,-0.6085558533668518,0.3171810805797577
2479818922.0,-0.4796699285507202,0.5978773236274719,9.829607009887695,-0.7995612025260925,-0.4394762814044952,0.4638995230197906
2479827255.0,-0.6678323149681091,0.3644373416900635,9.59086799621582,-1.1354917287826538,-0.5406524538993835,0.4166923761367798
2479835588.0,-0.8295297622680664,0.1386934369802475,9.527843475341797,-0.9422069191932678,-0.5708773136138916,0.3399265110492706
2479843921.0,-0.8651435375213623,0.3213056921958923,9.69847583770752,-0.6753833293914795,-0.8106265068054199,0.2926170527935028
2479852254.0,-0.815295398235321,0.4681966602802276,9.728754997253418,-0.7405203580856323,-1.227779984474182,0.3265815079212188
2479860587.0,-0.542056143283844,0.2781015634536743,9.57683563232422,-0.9630824327468872,-1.4927078485488892,0.2684883773326874
2479868920.0,-0.2514152824878692,0.0783236324787139,9.438655853271484,-0.709219753742218,-1.3117690086364746,0.2590367794036865
2479877253.0,-0.1528205424547195,0.2476741820573806,9.69967555999756,-0.4918573498725891,-0.8899281620979309,0.2839850187301636
2479885586.0,-0.2782742083072662,0.5382300019264221,10.010411262512209,-0.6716693043708801,-0.3380438983440399,0.1713592410087585
2479893919.0,-0.557242214679718,0.2840823233127594,9.80638313293457,-0.8417477607727051,0.1301971524953842,0.2025317400693893
2479902252.0,-0.8958077430725098,0.0310290325433015,9.428083419799805,-0.5993346571922302,-0.0737305805087089,0.2369572669267654
2479910585.0,-1.138968586921692,0.3629710078239441,9.52950382232666,-0.1341289430856704,-0.3093815445899963,0.1847554743289947
2479918918.0,-1.1189121007919312,0.8365535736083984,9.771377563476562,-0.1436062008142471,-0.8215125203132629,0.2347800731658935
2479927251.0,-0.9194693565368652,0.936936616897583,9.80095386505127,-0.8403902053833008,-1.3297756910324097,0.2365731000900268
2479935584.0,-0.515255331993103,0.4543693959712982,9.633589744567873,-1.257390022277832,-1.5358678102493286,0.1472562253475189
2479943917.0,-0.2953552007675171,0.1929837018251419,9.608814239501951,-0.9789632558822632,-0.9862120747566224,0.212470069527626
2479952250.0,-0.3617337644100189,0.5264276266098022,9.8862943649292,-0.531917929649353,-0.4520528316497803,0.2891846597194671
2479960583.0,-0.648290753364563,0.7922560572624207,9.927938461303713,-0.841850221157074,-0.0678649172186851,0.2918229699134826
2479968916.0,-0.9272375702857972,0.595602810382843,9.657366752624512,-1.111850023269653,-0.1356914043426513,0.3373907208442688
2479977249.0,-1.1998250484466553,0.2921650111675262,9.312171936035156,-1.1685854196548462,-0.4870418608188629,0.3191277682781219
2479985582.0,-1.1795896291732788,0.358128547668457,9.467853546142578,-0.884830892086029,-1.0380041599273682,0.2815260589122772
2479993915.0,-0.9753687977790833,0.5818551778793335,9.643641471862791,-0.6878061890602112,-1.438508152961731,0.1617282927036285
2480002248.0,-0.6713953614234924,0.5897052884101868,9.613510131835938,-0.8273782730102539,-1.585047483444214,0.1970503330230713
2480010581.0,-0.3559125363826751,0.3868436515331268,9.528576850891112,-1.0753239393234253,-1.4310544729232788,0.170360267162323
2480018914.0,-0.2763643264770508,0.3325858116149902,9.55916690826416,-0.8585762977600098,-1.0418717861175537,0.2046577185392379
2480027247.0,-0.3516481816768646,0.5100691318511963,9.731263160705566,-0.7632913589477539,-0.5921114087104797,0.2526331841945648
2480035580.0,-0.6680898666381836,0.5003055930137634,9.69692325592041,-1.0345717668533323,-0.3425263166427612,0.3691266775131225
2480043913.0,-0.8927534818649292,0.1944714933633804,9.355904579162598,-0.9785277843475342,-0.4468019008636474,0.2291449308395385
2480052246.0,-0.9516070485115052,0.2295704931020736,9.306885719299316,-0.5136550664901733,-1.010187029838562,0.2690262794494629
2480060579.0,-0.8388854265213013,0.7159566879272461,9.618377685546877,-0.3987496197223663,-1.4307215213775637,0.3082160949707031
2480068912.0,-0.5552752017974854,0.9300625324249268,9.778674125671388,-0.791467010974884,-1.6932417154312134,0.2279923111200332
2480077245.0,-0.297671377658844,0.5792976021766663,9.58002758026123,-1.3522651195526123,-1.5810513496398926,0.2715108692646026
2480085578.0,-0.1356080174446106,0.1603645533323288,9.50290584564209,-1.2709654569625854,-1.31328022480011,0.2652353942394256
2480093911.0,-0.1361257582902908,0.2190343588590622,9.64299774169922,-0.8480744957923889,-0.7871382236480713,0.3297576308250427
2480102244.0,-0.3727990090847015,0.6694488525390625,9.881924629211426,-0.6962845325469971,-0.120066724717617,0.2951784133911133
2480110577.0,-0.7111928462982178,0.8392001390457153,9.812899589538574,-1.051067352294922,-0.2765696942806244,0.3499929010868072
2480118910.0,-0.8675397038459778,0.5928991436958313,9.583772659301758,-1.4837429523468018,-0.5539717674255371,0.372968852519989
2480127243.0,-0.8764004111289978,0.2842271625995636,9.474589347839355,-1.3931198120117188,-0.9954587817192078,0.3652333617210388
2480135576.0,-0.7100619673728943,0.3180941939353943,9.671195030212402,-1.2121552228927612,-1.140076756477356,0.2944356203079223
2480143909.0,-0.5407420992851257,0.4368605315685272,9.78850269317627,-1.2238609790802002,-1.5074361562728882,0.2221010327339172
2480152242.0,-0.3071942925453186,0.3071029484272003,9.670639038085938,-1.4180936813354492,-1.1959158182144165,0.1684392243623733
2480160575.0,-0.1544585675001144,0.197404071688652,9.628369331359863,-1.3023172616958618,-0.8840368986129761,0.2077826708555221
2480168908.0,-0.2654135525226593,0.4187702238559723,9.827425956726074,-1.1209174394607544,-0.3905018270015716,0.2102928757667541
2480177241.0,-0.5964253544807434,0.485284686088562,9.867977142333984,-1.279341459274292,-0.0704775676131248,0.2147241532802581
2480185574.0,-0.9000350832939148,0.1094671115279197,9.555418968200684,-1.5272358655929563,-0.1071827635169029,0.2848559021949768
2480193907.0,-1.0598152875900269,-0.228225752711296,9.325898170471191,-1.2689931392669678,-0.5033324360847473,0.1640335619449615
2480202240.0,-1.0254029035568235,0.0496550351381301,9.471323013305664,-0.6603477597236633,-0.9065518379211426,0.1814768463373184
2480210573.0,-0.8449510335922241,0.5933926701545715,9.74664306640625,-0.5410366058349609,-1.170122146606445,0.2127518355846405
2480218906.0,-0.6022587418556213,0.654300332069397,9.75880527496338,-0.9873647093772888,-1.4287747144699097,0.2147241234779358
2480227239.0,-0.3791424334049225,0.0758519619703292,9.562688827514648,-1.528670310974121,-1.360615372657776,0.2211789041757583
2480235572.0,-0.3333582580089569,-0.3030015826225281,9.43596649169922,-1.0184605121612549,-0.7311198711395264,0.2176697850227356
2480243905.0,-0.523824155330658,0.1320987045764923,9.704862594604492,-0.3594318032264709,-0.1893532425165176,0.1602938920259475
2480252238.0,-0.8200803399085999,0.6477330327033997,9.823737144470217,-0.4335593283176422,-0.1846145838499069,0.2228438407182693
2480260571.0,-0.9405773878097534,0.5445101857185364,9.603056907653809,-1.0115957260131836,-0.511810839176178,0.2828580141067505
2480268904.0,-0.9980433583259584,0.1188087239861488,9.337149620056152,-1.0875675678253174,-0.7988439798355103,0.2452050745487213
2480277237.0,-0.947858989238739,0.1444015949964523,9.459628105163574,-0.6128589510917664,-1.1868484020233154,0.2494058012962341
2480285570.0,-0.8563026189804077,0.4703709483146667,9.728918075561523,-0.584094226360321,-1.367044448852539,0.2528125047683716
2480293903.0,-0.5753968954086304,0.4838684201240539,9.649309158325195,-0.7843207120895386,-1.4760842323303225,0.2989949584007263
2480302236.0,-0.3354254066944122,0.3308905065059662,9.555476188659668,-0.8555282950401306,-1.3310309648513794,0.3493013083934784
2480310569.0,-0.3159698247909546,0.4435047805309295,9.639986038208008,-0.8046583533287048,-0.9865706562995912,0.389951080083847
2480318902.0,-0.4800698757171631,0.5857537984848022,9.843379020690918,-0.6941586136817932,-0.461863100528717,0.3696902990341186
2480327235.0,-0.7232739925384521,0.4364950954914093,9.669699668884276,-1.063618302345276,-0.4863246381282806,0.2957675158977508
2480335568.0,-0.8745709657669067,0.1569619923830032,9.466222763061523,-0.9867754578590392,-0.6597585678100586,0.2334481030702591
2480343901.0,-0.9293116331100464,0.2345560193061828,9.45651626586914,-0.6387037634849548,-1.028962254524231,0.2790414690971374
2480352234.0,-0.801218569278717,0.719826340675354,9.730262756347656,-0.4123507440090179,-1.339919090270996,0.2020707130432129
2480360567.0,-0.5624995827674866,0.9096413254737854,9.871066093444824,-0.7629584670066833,-1.451340913772583,0.2437962740659713
2480368900.0,-0.3257789611816406,0.4865089356899261,9.668660163879396,-1.316866159439087,-1.4160189628601074,0.2759934067726135
2480377233.0,-0.1744149178266525,0.0348915681242942,9.508081436157228,-1.095046877861023,-1.1258608102798462,0.2980472445487976
2480385566.0,-0.262702465057373,0.1645583063364029,9.685442924499512,-0.489833801984787,-0.6376022696495056,0.3191021084785461
2480393899.0,-0.5101264715194702,0.7524933815002441,9.897674560546877,-0.3770031332969665,-0.2200390845537185,0.3080880045890808
2480402232.0,-0.7534159421920776,0.868126392364502,9.746164321899414,-0.9747881889343262,-0.3105341792106628,0.2430534809827804
2480410565.0,-0.8850284218788147,0.483296126127243,9.433404922485352,-1.3531872034072876,-0.6678526997566223,0.2757628262042999
2480418898.0,-0.8759157061576843,0.2322957217693328,9.466952323913574,-1.057317137718201,-0.8512762784957886,0.2780681252479553
2480427231.0,-0.7471573352813721,0.3672627210617065,9.689605712890623,-0.6684162616729736,-1.1724530458450315,0.3407717645168304
2480435564.0,-0.539961040019989,0.5161848664283752,9.701393127441406,-0.8043509721755981,-1.2400236129760742,0.1914408057928085
2480443897.0,-0.316577672958374,0.4746054410934448,9.559853553771973,-0.9100353121757508,-1.3413022756576538,0.2913362979888916
2480452230.0,-0.2563221156597137,0.5100048780441284,9.63752555847168,-0.988030731678009,-0.7674409747123718,0.3245323598384857
2480460563.0,-0.3599596619606018,0.6143290996551514,9.804895401000977,-0.9625445008277892,-0.3703433871269226,0.3032212853431701
2480468896.0,-0.6373183131217957,0.4715583324432373,9.719526290893556,-1.1934311389923096,-0.118581086397171,0.3477900624275207
2480477229.0,-0.910070538520813,0.195108100771904,9.512565612792969,-1.2085180282592771,-0.3584839701652527,0.3222270607948303
2480485562.0,-1.024215579032898,0.0933875143527984,9.366812705993652,-0.8932323455810547,-0.7095015048980713,0.319819301366806
2480493895.0,-0.9780582189559937,0.53827303647995,9.60257053375244,-0.6109891533851624,-1.155675768852234,0.2312197089195251
2480502228.0,-0.764066755771637,0.8568320274353027,9.793129920959473,-0.8086541891098022,-1.356952428817749,0.2691031396389007
2480510561.0,-0.5210815668106079,0.6302780508995056,9.676636695861816,-1.4595630168914795,-1.2502691745758057,0.2816541194915771
2480518894.0,-0.3637393414974212,0.0598945543169975,9.491252899169922,-1.593371868133545,-1.1988869905471802,0.3778099417686462
2480527227.0,-0.3571128249168396,-0.0679949223995208,9.532958984375,-0.951530396938324,-0.8042741417884827,0.3184361457824707
2480535560.0,-0.5145755410194397,0.4229261577129364,9.833048820495604,-0.3640678822994232,-0.3066152036190033,0.3339583873748779
2480543893.0,-0.7906827926635742,0.7821773886680603,9.79942226409912,-0.7185177206993103,-0.3414249420166015,0.3583687543869018
2480552226.0,-0.9481523633003236,0.5742801427841187,9.57286262512207,-1.4502649307250977,-0.5569942593574524,0.2963822782039642
2480560559.0,-0.9959403872489928,0.1393945962190628,9.396940231323242,-1.269351840019226,-0.9520682692527772,0.2686933279037475
2480568892.0,-0.8718028664588928,0.1961239576339721,9.572930335998535,-0.7708988189697266,-1.2354387044906616,0.3097273111343384
2480577225.0,-0.778386652469635,0.5110418796539307,9.766605377197266,-0.7679018974304199,-1.3573368787765503,0.2123420089483261
2480585558.0,-0.586698055267334,0.5170555114746094,9.711274147033691,-1.0546789169311523,-1.4800032377243042,0.2082949429750442
2480593891.0,-0.321865975856781,0.3638529479503631,9.584324836730955,-1.123197078704834,-1.405619502067566,0.2439499795436859
2480602224.0,-0.2667438983917236,0.4681535065174103,9.762642860412598,-0.888801097869873,-0.992461919784546,0.2321674227714538
2480610557.0,-0.420751690864563,0.608306348323822,9.885221481323242,-1.0488134622573853,-0.4009012281894684,0.2226133346557617
2480618890.0,-0.7077666521072388,0.374379813671112,9.742286682128906,-1.44137704372406,-0.4404239952564239,0.1500994265079498
2480627223.0,-0.8566602468490601,-0.0270019825547933,9.470399856567385,-1.3887139558792114,-0.6859875321388245,0.244026780128479
2480635556.0,-0.9385173916816713,0.073738656938076,9.46894073486328,-0.8083211779594421,-0.9199735522270204,0.2550153136253357
2480643889.0,-0.9044840931892396,0.6821593046188354,9.71727180480957,-0.3691907823085785,-1.059981107711792,0.249943733215332
2480652222.0,-0.7254354953765869,0.9623422622680664,9.831291198730469,-0.9783229231834412,-1.3826690912246704,0.2331407517194748
2480660555.0,-0.5238218307495117,0.4458871781826019,9.644169807434082,-1.600441575050354,-1.5248538255691528,0.1656216382980346
2480668888.0,-0.3062964975833893,-0.1723908931016922,9.42340850830078,-1.4894294738769531,-1.3963985443115234,0.1624967157840728
2480677221.0,-0.301392138004303,-0.0143771255388855,9.618006706237791,-0.5399608612060547,-0.8107033371925354,0.1455400735139846
2480685554.0,-0.4465090632438659,0.6592918634414673,9.887417793273926,-0.404435932636261,-0.4949566423892975,0.2521209418773651
2480693887.0,-0.6186994314193726,0.8077133297920227,9.808722496032717,-1.081497073173523,-0.53591388463974,0.3775794506072998
2480702220.0,-0.7403449416160583,0.3210309147834778,9.475974082946776,-1.5886331796646118,-0.5897293090820312,0.3335741758346557
2480710553.0,-0.8337639570236206,0.0031544037628918,9.384258270263672,-1.2071092128753662,-0.646823525428772,0.3549620509147644
2480718886.0,-0.8610664010047913,0.3035094439983368,9.605795860290527,-0.6123722791671753,-0.977221429347992,0.3246603906154632
2480727219.0,-0.7725713849067688,0.6119686365127563,9.710614204406738,-0.8508152961730957,-1.2780095338821411,0.3163870275020599
2480735552.0,-0.4932062327861786,0.4062952101230621,9.568779945373535,-1.1378482580184937,-1.5283373594284058,0.2475103437900543
2480743885.0,-0.3103278577327728,0.2429680675268173,9.532963752746582,-1.1798557043075562,-1.2681224346160889,0.3182312846183777
2480752218.0,-0.3184731900691986,0.4090067148208618,9.731671333312988,-0.8697441220283508,-0.6599123477935791,0.4165386855602264
2480760551.0,-0.4937249720096588,0.5306407809257507,9.811304092407228,-0.8821414113044739,-0.4203167855739593,0.4110572338104248
2480768884.0,-0.6857215762138367,0.2154293209314346,9.590417861938477,-1.210054874420166,-0.3884014189243316,0.3087539970874786
2480777217.0,-0.8277770280838013,-0.0310218799859285,9.414299964904783,-1.0198180675506592,-0.5193670392036438,0.3252495527267456
2480785550.0,-0.8948206305503845,0.3330578207969665,9.560375213623049,-0.4789477586746216,-0.8331669569015503,0.2755835652351379
2480793883.0,-0.8458165526390076,0.809322714805603,9.756284713745115,-0.488629937171936,-1.1962999105453491,0.3588298261165619
2480802216.0,-0.6354423761367798,0.7628525495529175,9.739477157592772,-1.1887950897216797,-1.4112035036087036,0.1911334097385406
2480810549.0,-0.4136042892932892,0.1111036762595176,9.54260540008545,-1.5452171564102173,-1.3395092487335205,0.3266583681106567
2480818882.0,-0.3443878293037414,-0.1715608239173889,9.494312286376951,-0.9597013592720032,-1.0378247499465942,0.3245835602283478
2480827215.0,-0.412010908126831,0.3758032023906708,9.797735214233398,-0.2574870884418487,-0.4702644944190979,0.2391344755887985
2480835548.0,-0.6575391292572021,0.8626474738121033,9.88112449645996,-0.6246927380561829,-0.4233648777008056,0.3176165223121643
2480843881.0,-0.7841090559959412,0.6753212213516235,9.66896152496338,-1.3216047286987305,-0.6150105595588684,0.2814491987228393
2480852214.0,-0.8641349673271179,0.1408537775278091,9.438612937927246,-1.353622555732727,-0.6392672657966614,0.3022479712963104
2480860547.0,-0.8900641202926636,0.119473822414875,9.544373512268066,-0.9447938203811646,-1.0486595630645752,0.2565009295940399
2480868880.0,-0.8156602382659912,0.4225469529628753,9.702774047851562,-0.7202595472335815,-1.2101316452026367,0.2232280522584915
2480877213.0,-0.583335816860199,0.5017433166503906,9.682496070861816,-0.8934628963470459,-1.3272655010223389,0.1856263428926468
2480885546.0,-0.3217882812023163,0.3447366654872894,9.580205917358398,-1.1145906448364258,-1.3376648426055908,0.1914407908916473
2480893879.0,-0.2742258012294769,0.3961816132068634,9.682531356811523,-0.9536051154136658,-0.8828586339950562,0.2659782171249389
2480902212.0,-0.4475462436676025,0.549138069152832,9.824200630187988,-0.8753793835639954,-0.6055077314376831,0.3051679730415344
2480910545.0,-0.6910361647605896,0.400137186050415,9.69882583618164,-1.151782512664795,-0.3925509452819824,0.2225108444690704
2480918878.0,-0.8357239961624146,-0.0012303631519898,9.462801933288574,-1.2535477876663208,-0.6537392735481262,0.2336786538362503
2480927211.0,-0.9207354187965392,0.0881802514195442,9.427118301391602,-0.5837099552154541,-0.9312951564788818,0.3617498278617859
2480935544.0,-0.8597360849380493,0.7125662565231323,9.687182426452637,-0.3484944105148315,-1.2552382946014404,0.1981773227453231
2480943877.0,-0.6577969193458557,0.9611203670501708,9.841203689575195,-0.783475399017334,-1.3599494695663452,0.3454591929912567
2480952210.0,-0.4199911653995514,0.4073198735713959,9.65671443939209,-1.545166015625,-1.4665814638137815,0.192977637052536
2480960543.0,-0.2496921420097351,-0.1624789983034134,9.443236351013184,-1.2771897315979004,-1.1267317533493042,0.3432051241397857
2480968876.0,-0.3505679965019226,0.1555814892053604,9.684799194335938,-0.500540554523468,-0.5381934642791748,0.361058235168457
2480977209.0,-0.6261026263237,0.7562200427055359,9.864700317382812,-0.3375315368175506,-0.4663455188274383,0.3092662692070007
2480985542.0,-0.7967051267623901,0.8322189450263977,9.73867416381836,-1.0242749452590942,-0.3698311448097229,0.3079855740070343
2480993875.0,-0.905049204826355,0.3724986016750335,9.434514045715332,-1.4343585968017578,-0.7166478633880615,0.2562191784381866
2481002208.0,-0.9387677311897278,0.175194576382637,9.473840713500977,-1.045073628425598,-0.9418994188308716,0.1564261466264724
2481010541.0,-0.8752360939979553,0.4103301465511322,9.673569679260254,-0.7288914322853088,-1.1796507835388184,0.2889797985553741
2481018874.0,-0.6781653165817261,0.549213171005249,9.68197536468506,-0.8938727378845215,-1.387868881225586,0.3284257054328918
2481027207.0,-0.3848605453968048,0.3729534149169922,9.57884120941162,-1.1581348180770874,-1.4218333959579468,0.2357534021139145
2481035540.0,-0.261264830827713,0.4227544069290161,9.63139533996582,-0.9231241941452026,-1.086799144744873,0.2170038074254989
2481043873.0,-0.3203257620334625,0.6403511166572571,9.790139198303224,-0.8580127954483032,-0.494879812002182,0.3067560791969299
2481052206.0,-0.6076340079307556,0.5579003095626831,9.753094673156738,-1.2068787813186646,-0.2474719285964965,0.2639546990394592
2481060539.0,-0.7886940240859985,0.1599804162979126,9.501227378845217,-1.3339766263961792,-0.3554871380329132,0.2305793762207031
2481068872.0,-0.9460421800613404,0.0229177083820104,9.405716896057127,-0.9105475544929504,-0.6632677912712097,0.1812463104724884
2481077205.0,-1.0114047527313232,0.4882529079914093,9.608991622924805,-0.3770543038845062,-0.9721754193305968,0.1929007768630981
2481085538.0,-0.8403374552726746,0.9212504029273988,9.76129150390625,-0.5826341509819031,-1.2952733039855957,0.2861877977848053
2481093871.0,-0.589462161064148,0.6560962796211243,9.67771053314209,-1.40159809589386,-1.5261857509613037,0.3064998984336853
2481102204.0,-0.3098466694355011,0.007598774973303,9.475444793701172,-1.6792051792144775,-1.5131481885910034,0.2383148521184921
2481110537.0,-0.225800946354866,-0.1040881723165512,9.575446128845217,-0.872305691242218,-1.0644891262054443,0.3192814290523529
2481118870.0,-0.3628782033920288,0.5233948230743408,9.869521141052246,-0.4507977664470672,-0.5268207788467407,0.274430900812149
2481127203.0,-0.6088786125183105,0.8188789486885071,9.861209869384766,-0.782604455947876,-0.4268740117549896,0.2305281162261963
2481135536.0,-0.7848314046859741,0.533344566822052,9.594644546508787,-1.4150456190109253,-0.5282295346260071,0.3000195324420929
2481143869.0,-0.9089260697364808,0.144229918718338,9.445951461791992,-1.3171991109848022,-0.642033576965332,0.3064998984336853
2481152202.0,-0.9566999077796936,0.2549774050712585,9.589973449707031,-0.8970745205879211,-0.9236109256744384,0.2859061062335968
2481160535.0,-0.8885691165924072,0.5299757719039917,9.67096710205078,-0.8146734833717346,-1.2641009092330933,0.3110080063343048
2481168868.0,-0.635339081287384,0.5034857392311096,9.573670387268066,-1.0099563598632812,-1.4665300846099854,0.22584068775177
2481177201.0,-0.3940412402153015,0.3855461478233337,9.512418746948242,-1.0773476362228394,-1.3978841304779053,0.2254821360111236
2481185534.0,-0.3633715808391571,0.677359938621521,9.808150291442873,-0.7814518809318542,-0.9837531447410583,0.2340116500854492
2481193867.0,-0.4911858439445495,0.906937539577484,9.999859809875488,-1.17281174659729,-0.586271345615387,0.2922584116458893
2481202200.0,-0.6617780923843384,0.3414502441883087,9.65135383605957,-1.7722359895706177,-0.5774601101875305,0.2827042937278747
2481210533.0,-0.8026634454727173,-0.2287407666444778,9.270707130432127,-1.426828145980835,-0.6406504511833191,0.3216379582881927
2481218866.0,-0.9192906022071838,0.1291805207729339,9.487231254577637,-0.6048417687416077,-0.977144718170166,0.1989457756280899
2481227199.0,-0.857561469078064,0.8100022673606873,9.734282493591309,-0.4966984093189239,-1.0483777523040771,0.0638306736946106
2481235532.0,-0.6687321066856384,0.9450753927230836,9.79068374633789,-1.160696268081665,-1.460024118423462,0.1553759425878524
2481243865.0,-0.368234634399414,0.2738479375839233,9.6416597366333,-1.934348702430725,-1.571113348007202,0.2330383211374282
2481252198.0,-0.3036054074764251,-0.2505998313426971,9.458168983459473,-1.4237030744552612,-1.1264243125915527,0.2846766114234924
2481260531.0,-0.4181195497512817,0.1108117327094078,9.670621871948242,-0.6553273797035217,-0.6779447197914124,0.2213069796562194
2481268864.0,-0.578407347202301,0.6688123941421509,9.839186668395996,-0.6717716455459595,-0.6077617406845093,0.3172066211700439
2481277197.0,-0.6506154537200928,0.5852742195129395,9.66301155090332,-1.2962725162506104,-0.7126007676124573,0.1971527636051178
2481285530.0,-0.7175301313400269,0.1610392779111862,9.458470344543455,-1.3376137018203735,-0.8473315834999084,0.4379265606403351
2481293863.0,-0.7466636896133423,0.1697943359613418,9.60733413696289,-0.9456901550292968,-0.9244815707206726,0.3776306211948395
2481302196.0,-0.7377513647079468,0.4033774137496948,9.725648880004885,-0.8669266700744629,-1.0268107652664185,0.2378025352954864
2481310529.0,-0.6222955584526062,0.465007334947586,9.653082847595217,-1.1265268325805664,-1.23733389377594,0.2823200821876526
2481318862.0,-0.4308328628540039,0.317897081375122,9.5281343460083,-1.1733241081237793,-1.3684788942337036,0.346355676651001
2481327195.0,-0.3707462549209595,0.4060239195823669,9.68851089477539,-0.8508408665657043,-1.010776162147522,0.2706143856048584
2481335528.0,-0.4088565111160278,0.5234307646751404,9.76096248626709,-0.8521471619606018,-0.7348338961601257,0.3666165173053741
2481343861.0,-0.5599603056907654,0.3696303069591522,9.681652069091797,-1.1673815250396729,-0.5554061532020569,0.3624157905578613
2481352194.0,-0.7892302870750427,0.1821400821208953,9.464686393737791,-1.240330934524536,-0.4545630216598511,0.2940258383750915
2481360527.0,-0.9307207465171814,0.3236876130104065,9.51487636566162,-0.8259438872337341,-0.5926494002342224,0.1657753437757492
2481368860.0,-0.9112006425857544,0.6230270862579346,9.727631568908691,-0.6956698298454285,-0.903503715991974,0.2030184417963028
2481377193.0,-0.7584953904151917,0.6981467604637146,9.68039321899414,-1.1529606580734253,-1.3489607572555542,0.139674425125122
2481385526.0,-0.4779163300991058,0.366140067577362,9.591973304748535,-1.6119167804718018,-1.4648910760879517,0.2033770531415939
2481393859.0,-0.320312887430191,0.0374687165021896,9.469825744628906,-1.349473237991333,-1.1271159648895264,0.2249185889959335
2481402192.0,-0.2690756320953369,0.1842930018901825,9.740469932556152,-0.6553273797035217,-0.6315573453903198,0.120130755007267
2481410525.0,-0.4714081287384033,0.5991507172584534,9.89015007019043,-0.6300973296165466,-0.2732910811901092,0.250737726688385
2481418858.0,-0.795367419719696,0.6291283965110779,9.675158500671388,-1.0737872123718262,-0.1486778557300567,0.1986640244722366
2481427191.0,-0.9919060468673706,0.3357831537723541,9.4370756149292,-1.3690422773361206,-0.516421377658844,0.2082180976867675
2481435524.0,-1.045387864112854,0.1816107928752899,9.442604064941406,-1.195070505142212,-0.9738147854804992,0.1690539419651031
2481443857.0,-0.8660663366317749,0.2888978719711303,9.704164505004885,-1.0529115200042725,-1.3348731994628906,0.2932830154895782
2481452190.0,-0.6316226124763489,0.2789570391178131,9.659988403320312,-1.068766713142395,-1.5418360233306885,0.252428263425827
2481460523.0,-0.3150245249271393,0.2289489805698394,9.58387279510498,-1.0742225646972656,-1.495371699333191,0.2380587011575698
2481468856.0,-0.182654932141304,0.3782567679882049,9.686273574829102,-0.8131878972053528,-1.164179801940918,0.2657220959663391
2481477189.0,-0.2681528627872467,0.6304802298545837,9.910314559936523,-0.8046072125434875,-0.5064062476158142,0.1808108985424041
2481485522.0,-0.5968689918518066,0.4716584682464599,9.758380889892578,-1.2732707262039185,-0.2443725913763046,0.3170017302036285
2481493855.0,-0.8597429394721985,-0.0236901696771383,9.404215812683104,-1.39158296585083,-0.3077934384346008,0.3553206622600555
2481502188.0,-0.9963337779045104,-0.0392047315835952,9.399479866027832,-0.7725126147270203,-0.674461305141449,0.2672589421272278
2481510521.0,-1.028950810432434,0.4946834743022918,9.65583038330078,-0.346547782421112,-1.147863507270813,0.2018401622772216
2481518854.0,-0.8423616886138916,0.916150450706482,9.778315544128418,-0.6183403134346008,-1.3616141080856323,0.247228592634201
2481527187.0,-0.6033085584640503,0.8028760552406311,9.737844467163086,-1.3628183603286743,-1.61750066280365,0.3026578426361084
2481535520.0,-0.3012117743492126,0.1904963552951812,9.493385314941406,-1.5753905773162842,-1.3023430109024048,0.3244298994541168
2481543853.0,-0.2668582797050476,0.0738960206508636,9.561090469360352,-0.8293249011039734,-0.9903871417045592,0.1646227091550827
2481552186.0,-0.4427395164966583,0.7170796394348145,9.858549118041992,-0.4653466045856476,-0.45453742146492,0.1999959498643875
2481560519.0,-0.7228162288665771,0.9953681826591492,9.875994682312012,-0.9099201560020448,-0.392051488161087,0.2210636734962463
2481568852.0,-0.8791236281394958,0.5742276906967163,9.577147483825684,-1.5669379234313965,-0.6357068419456482,0.2121627032756805
2481577185.0,-0.9866273999214172,0.1678629219532013,9.381611824035645,-1.334309458732605,-0.7940027713775635,0.2188480198383331
2481585518.0,-0.9548687934875488,0.3354826271533966,9.589580535888672,-0.9509412050247192,-1.093228459358215,0.1808877289295196
2481593851.0,-0.8195708394050598,0.4974059164524078,9.6631498336792,-0.8335513472557068,-1.484614014625549,0.1225641146302223
2481602184.0,-0.4718378782272339,0.3717492520809173,9.601496696472168,-1.1471208333969116,-1.6471107006072998,0.2432584166526794
2481610517.0,-0.2105474174022674,0.31703981757164,9.63232707977295,-1.1933287382125854,-1.3903021812438965,0.2897482216358185
2481618850.0,-0.1914529949426651,0.4932886660099029,9.80920124053955,-1.0044749975204468,-0.8695904612541199,0.1156994998455047
2481627183.0,-0.3705244064331054,0.4816009104251861,9.812098503112791,-1.2046501636505127,-0.3845336735248565,0.2701277136802673
2481635516.0,-0.622611939907074,0.1414332389831543,9.5775146484375,-1.420219659805298,-0.4753617942333221,0.3058595955371856
2481643849.0,-0.8082640767097473,-0.0260649602860212,9.425780296325684,-1.0460981130599976,-0.5736948251724243,0.3289635777473449
2481652182.0,-0.9669570922851562,0.3385869860649109,9.593121528625488,-0.6670843362808228,-0.8327315449714661,0.2925657927989959
2481660515.0,-0.8746639490127563,0.7488526105880737,9.706464767456056,-0.7953091263771057,-1.1477352380752563,0.3196656107902527
2481668848.0,-0.6415302753448486,0.6450099945068359,9.675073623657228,-1.341840147972107,-1.5244951248168943,0.242643654346466
2481677181.0,-0.3717745542526245,0.1343272924423217,9.548815727233888,-1.5913994312286377,-1.559176683425903,0.3946128785610199
2481685514.0,-0.2738537490367889,0.0179250240325927,9.644113540649414,-0.9940755367279052,-1.135184407234192,0.3827535212039947
2481693847.0,-0.3439230024814605,0.3606677949428558,9.847046852111816,-0.6142933368682861,-0.5416257977485657,0.2622385323047638
2481702180.0,-0.5303046107292175,0.5459622144699097,9.777729034423828,-0.9630568027496338,-0.3140433430671692,0.2984826564788818
2481710513.0,-0.7367714643478394,0.3979841768741607,9.560489654541016,-1.1648712158203125,-0.4408850073814392,0.3895412683486938
2481718846.0,-0.9364072680473328,0.3016639947891235,9.53133487701416,-1.2218629121780396,-0.7208741903305054,0.3446395099163055
2481727179.0,-0.966427743434906,0.3400890827178955,9.65721035003662,-0.9842910766601562,-0.9051687121391296,0.2268140763044357
2481735512.0,-0.8319769501686096,0.3392792642116546,9.637493133544922,-1.0601859092712402,-1.298193335533142,0.3301162719726562
2481743845.0,-0.5837188959121704,0.1924647688865661,9.475058555603027,-0.9696395993232728,-1.5525426864624023,0.2867257297039032
