SampleTimeFine,Acc_X,Acc_Y,Acc_Z,Gyr_X,Gyr_Y,Gyr_Z
3827620776.0,0.0,0.0,0.0,0.0,0.0,0.0
3827629109.0,-1.1548196077346802,0.6820236444473267,10.188898086547852,3.417233228683472,-1.576146364212036,0.8619061708450317
3827637442.0,-0.947979748249054,0.6698096990585327,10.161988258361816,2.7858686447143555,-1.779421091079712,0.8168509006500244
3827645775.0,-0.7215876579284668,0.1878165006637573,9.7898530960083,2.5544183254241943,-1.657010555267334,1.009597897529602
3827654108.0,-0.7486591935157776,0.069922961294651,9.693513870239258,3.0092246532440186,-1.2423930168151855,0.9297839403152466
3827662441.0,-0.982440173625946,0.3914225995540619,9.930060386657717,3.187371730804444,-1.087375521659851,0.9580108523368835
3827670774.0,-1.150934815406799,0.4576857388019562,10.141530990600586,2.8713176250457764,-1.0044622421264648,0.875404953956604
3827679107.0,-1.1586942672729492,0.105222962796688,9.935880661010742,2.665865659713745,-1.1835057735443115,0.9181038737297058
3827687440.0,-1.1433085203170776,0.1377500146627426,9.862418174743652,3.179098129272461,-1.3766884803771973,0.9797574281692504
3827695773.0,-1.1251176595687866,0.6406609416007996,10.043051719665527,3.470664501190185,-1.4518404006958008,0.9458696842193604
3827704106.0,-1.016901969909668,0.7926833033561707,10.192269325256348,2.9437289237976074,-1.544179916381836,0.927939772605896
3827712439.0,-0.8520348072052002,0.2135266363620758,9.876975059509276,2.188826084136963,-1.5383397340774536,0.8995591998100281
3827720772.0,-0.7715855836868286,-0.1760861426591873,9.633866310119627,2.816861629486084,-1.5122900009155271,0.9680259823799132
3827729105.0,-0.908475697040558,0.2616380751132965,9.832601547241213,3.5592381954193115,-1.2475155591964722,1.0275276899337769
3827737438.0,-1.0243327617645264,0.9079598188400269,10.248186111450195,3.4069364070892334,-0.9521065950393676,0.967949151992798
3827745771.0,-1.0133036375045776,0.7026927471160889,10.189106941223145,2.500551223754883,-1.08840012550354,0.8909271955490112
3827754104.0,-1.0442900657653809,-0.0403752624988555,9.769332885742188,2.335698127746582,-1.0783849954605105,0.924071967601776
3827762437.0,-1.2393782138824463,-0.103399321436882,9.722149848937988,3.0501043796539307,-0.9627878665924072,0.9512741565704346
3827770770.0,-1.2875765562057495,0.4525107443332672,10.094911575317385,3.4914886951446533,-1.2569926977157593,0.9292714595794678
3827779103.0,-1.2014797925949097,0.8215165138244629,10.28223705291748,3.073131799697876,-1.6641823053359983,1.0511953830718994
3827787436.0,-0.853695809841156,0.2865167260169983,9.936196327209473,2.434722661972046,-1.7653329372406006,0.9434106349945068
3827795769.0,-0.8175238966941833,0.0225047413259744,9.650574684143066,2.70515775680542,-1.5893120765686035,1.0285779237747192
3827804102.0,-0.6941066980361938,0.2610068917274475,9.76438808441162,3.182991504669189,-1.1597100496292114,1.0457909107208252
3827812435.0,-1.0448179244995115,0.5547310709953308,10.085600852966309,3.1706199645996094,-0.7602306008338928,1.031267523765564
3827820768.0,-1.148369312286377,0.2470488101243972,10.076685905456545,2.6121270656585693,-0.8956018686294556,0.907704532146454
3827829101.0,-1.2044743299484253,0.0035893507301807,9.83608627319336,2.85748553276062,-1.177332639694214,0.9900029301643372
3827837434.0,-1.2316309213638306,0.3643354773521423,9.930471420288086,3.5291926860809326,-1.1825578212738037,1.047455668449402
3827845767.0,-1.2198632955551147,0.7677844762802124,10.182660102844238,3.320770025253296,-1.406451940536499,0.893642246723175
3827854100.0,-1.0089515447616575,0.5248356461524963,10.091075897216797,2.542942762374878,-1.5955108404159546,0.9123407006263732
3827862433.0,-0.7533246874809265,-0.1213907524943351,9.738677978515623,2.520581722259521,-1.458577036857605,0.9020180702209472
3827870766.0,-0.8303353190422058,0.0127223916351795,9.710819244384766,3.218416213989258,-1.217700719833374,1.0177175998687744
3827879099.0,-0.9891470670700072,0.673191487789154,10.058119773864746,3.5667436122894287,-0.960738718509674,0.9451524019241332
3827887432.0,-1.079313039779663,0.875822126865387,10.2359037399292,2.9153733253479004,-0.7640213966369629,0.8410049080848694
3827895765.0,-1.1169822216033936,0.2612015902996063,9.944117546081545,2.277758836746216,-1.0868632793426514,0.9659767746925354
3827904098.0,-1.2114980220794678,-0.1712873876094818,9.712592124938965,2.721550941467285,-1.2153441905975342,1.0248639583587646
3827912431.0,-1.2508984804153442,0.2272335439920425,9.937392234802246,3.59179425239563,-1.2628328800201416,0.9343175888061525
3827920764.0,-1.166342854499817,0.76775062084198,10.282902717590332,3.3465638160705566,-1.6524254083633425,0.9134675860404968
3827929097.0,-0.9083380699157716,0.5767972469329834,10.12922191619873,2.5046749114990234,-1.8015772104263303,0.8661837577819824
3827937430.0,-0.7017580270767212,0.0831997394561767,9.699904441833496,2.435490846633911,-1.717562556266785,1.0284498929977417
3827945763.0,-0.7748807668685913,0.1179695203900337,9.667861938476562,3.025028705596924,-1.14349627494812,1.0339570045471191
3827954096.0,-1.0268831253051758,0.4667221307754516,9.990360260009766,3.2764580249786377,-0.9258522391319276,0.9303475618362428
3827962429.0,-1.2095028162002563,0.4910470247268677,10.14342975616455,2.7564375400543213,-1.019139289855957,0.9871599078178406
3827970762.0,-1.175328254699707,0.063565544784069,9.906071662902832,2.605825662612915,-1.2419573068618774,0.9385951161384584
3827979095.0,-1.1903252601623535,0.110348917543888,9.822300910949709,3.102665424346924,-1.3150862455368042,1.0374919176101685
3827987428.0,-1.1655784845352173,0.6800597906112671,10.144779205322266,3.274920701980591,-1.4318357706069946,0.886931300163269
3827995761.0,-1.0401763916015625,0.7845625281333923,10.198098182678224,2.8487515449523926,-1.5500712394714355,0.8706663250923157
3828004094.0,-0.8528633713722229,0.1572030931711197,9.870614051818848,2.2285280227661133,-1.802345871925354,1.0083428621292114
3828012427.0,-0.8150890469551086,-0.1483579725027084,9.64549160003662,2.768373966217041,-1.5287857055664062,0.9712533354759216
3828020760.0,-0.941966712474823,0.3535836040973663,9.850493431091309,3.4799113273620605,-1.1293314695358276,1.0259653329849243
3828029093.0,-1.0712753534317017,0.9221681356430054,10.241625785827637,3.224973201751709,-1.1141424179077148,0.9950234889984132
3828037426.0,-1.105443000793457,0.5873538851737976,10.160417556762695,2.374938726425171,-1.200103759765625,0.9205114245414734
3828045759.0,-1.1381179094314575,-0.0954659134149551,9.734464645385742,2.4455063343048096,-1.2578895092010498,0.990233600139618
3828054092.0,-1.263041853904724,-0.1002776250243187,9.744305610656738,3.103203296661377,-1.4459236860275269,1.0013757944107056
3828062425.0,-1.2652060985565186,0.5154301524162292,10.119950294494627,3.598453521728516,-1.631447196006775,0.9834712743759156
3828070758.0,-1.1027084589004517,0.764343798160553,10.304197311401367,2.873187303543091,-1.969043493270874,0.8690013885498047
3828079091.0,-0.8433471322059631,0.2323899418115615,9.885496139526367,2.280883550643921,-2.025343179702759,0.9747113585472108
3828087424.0,-0.7685851454734802,-0.0687622353434562,9.58355712890625,2.7584357261657715,-1.7775514125823977,1.130548357963562
3828095757.0,-0.8773191571235657,0.2177977412939071,9.78123950958252,3.314059257507324,-1.347334384918213,1.0985561609268188
3828104090.0,-1.0556409358978271,0.550914466381073,10.137701988220217,3.109222412109375,-1.198848843574524,0.976555585861206
3828112423.0,-1.1790692806243896,0.2801114916801452,10.071784973144531,2.619478225708008,-1.3467453718185425,0.9733026027679444
3828120756.0,-1.2452415227890017,-0.0158868432044982,9.829426765441896,2.7078983783721924,-1.4859073162078855,1.0656161308288574
3828129089.0,-1.2616337537765503,0.27192023396492,9.911205291748049,3.3971517086029053,-1.7579305171966553,0.984675109386444
3828137422.0,-1.154800295829773,0.7701842188835144,10.204977989196776,3.3720242977142334,-1.944735050201416,1.0352890491485596
3828145755.0,-0.988312005996704,0.5607129335403442,10.139639854431152,2.3982481956481934,-2.1754684448242188,1.0360318422317505
3828154088.0,-0.7856177091598511,-0.0145790046080946,9.737284660339355,2.3713274002075195,-2.143911361694336,0.9734306931495668
3828162421.0,-0.7948616743087769,-0.0265323836356401,9.640463829040527,3.0472869873046875,-1.7923048734664917,1.0770913362503052
3828170754.0,-0.8994846343994141,0.6363293528556824,10.03292751312256,3.43055272102356,-1.4380087852478027,1.0319846868515017
3828179087.0,-1.0377501249313354,0.8734058737754822,10.340425491333008,2.6585402488708496,-1.3496654033660889,1.078705072402954
3828187420.0,-1.102697730064392,0.2393461316823959,9.98671054840088,2.1845483779907227,-1.4988682270050049,1.146454691886902
3828195753.0,-1.1531624794006348,-0.1667816787958145,9.696609497070312,2.699599504470825,-1.4496630430221558,1.0492230653762815
3828204086.0,-1.2438210248947144,0.2118793874979019,9.92338752746582,3.3644936084747314,-1.6568312644958496,0.9012240767478944
3828212419.0,-1.1684386730194092,0.818766713142395,10.3333101272583,3.204148054122925,-2.139223575592041,1.0733002424240112
3828220752.0,-0.9191818833351136,0.641203761100769,10.211390495300291,2.5087478160858154,-2.183613538742065,1.0562413930892944
3828229085.0,-0.7121980786323547,0.1216722801327705,9.719634056091309,2.3564453125,-2.147958278656006,0.972892701625824
3828237418.0,-0.6744865775108337,0.059617806226015,9.625954627990724,2.9742352962493896,-1.593538522720337,1.0338033437728882
3828245751.0,-0.7347812056541443,0.5007464289665222,9.961846351623535,3.2838854789733887,-1.1883466243743896,1.0729674100875854
3828254084.0,-0.9996349811553956,0.5254764556884766,10.180464744567873,2.738405227661133,-0.9791298508644104,0.9317818880081176
3828262417.0,-1.1033374071121216,0.2198445200920105,9.924800872802734,2.616660594940185,-1.1208021640777588,0.9066543579101562
3828270750.0,-1.1861602067947388,0.2260881960391998,9.896801948547363,3.159400463104248,-1.229073405265808,1.0145413875579834
3828279083.0,-1.2259351015090942,0.6699908971786499,10.127758026123049,3.263778686523437,-1.376867651939392,0.9085753560066224
3828287416.0,-1.095947027206421,0.6975022554397583,10.19718074798584,2.7197065353393555,-1.6660009622573853,0.8642627000808716
3828295749.0,-0.9173775315284728,0.1744692772626876,9.84947109222412,2.29097580909729,-1.888665795326233,0.9211263656616212
3828304082.0,-0.789996862411499,-0.0353832989931106,9.581689834594728,2.8039004802703857,-1.6539366245269775,1.0500938892364502
3828312415.0,-0.768804669380188,0.3822051286697387,9.810546875,3.407704591751098,-1.359347224235535,0.9681284427642822
3828320748.0,-0.8543952107429504,0.8639450669288635,10.177331924438477,3.005638360977173,-0.9313336610794068,1.0021185874938965
3828329081.0,-0.979335367679596,0.5252647995948792,10.075152397155762,2.352270603179932,-0.7695028781890869,0.9368534088134766
3828337414.0,-1.156816005706787,-0.0478501729667186,9.704105377197266,2.434082508087158,-0.979513943195343,0.9928205013275146
3828345747.0,-1.3234142065048218,0.0075492281466722,9.74349880218506,3.142751455307007,-0.9868653416633606,0.9604442715644836
3828354080.0,-1.3148478269577026,0.5727717280387878,10.131000518798828,3.366593599319458,-1.5264544486999512,0.926914930343628
3828362413.0,-1.132832646369934,0.6947922110557556,10.22767734527588,2.7233948707580566,-1.7205593585968018,0.8905940651893616
3828370746.0,-0.8079396486282349,0.2205044478178024,9.819272994995115,2.435260534286499,-1.8884350061416624,0.9850337505340576
3828379079.0,-0.7307242155075073,-0.0400691777467727,9.560599327087402,2.8622243404388428,-1.5189754962921145,0.9955869317054749
3828387412.0,-0.7703452110290527,0.2977885007858276,9.785497665405272,3.380451202392578,-1.0027461051940918,1.0943553447723389
3828395745.0,-0.9990183115005492,0.5533785223960876,10.08713722229004,2.989475965499878,-0.8697314262390137,1.0194848775863647
3828404078.0,-1.107544183731079,0.2038804441690445,9.989864349365234,2.519813299179077,-0.900007426738739,0.949045956134796
3828412411.0,-1.227918028831482,-0.1050146147608757,9.802630424499512,2.8684229850769043,-1.0206248760223389,0.9995315074920654
3828420744.0,-1.2671257257461548,0.3151640892028808,9.969186782836914,3.4983022212982178,-1.2521518468856812,1.0287059545516968
3828429077.0,-1.1562106609344482,0.7593347430229187,10.290830612182615,3.100103616714477,-1.456092357635498,0.9467661380767822
3828437410.0,-0.9597886204719543,0.3915209174156189,10.078927040100098,2.3883607387542725,-1.6307815313339231,0.9415409564971924
3828445743.0,-0.7444451451301575,-0.2260154634714126,9.627455711364746,2.51069450378418,-1.602759599685669,0.8999434113502502
3828454076.0,-0.7339210510253906,-0.0030649858526885,9.67298412322998,3.4845731258392334,-1.2859370708465576,0.9459208250045776
3828462409.0,-0.8437368869781494,0.7154653668403625,10.155739784240724,3.543050527572632,-0.7749074101448059,0.9369046092033386
3828470742.0,-0.9855669736862184,0.7616482973098755,10.289475440979004,2.734588384628296,-0.8589222431182861,0.9420018792152404
3828479075.0,-1.116118311882019,-0.0075899213552474,9.902310371398926,2.3135673999786377,-0.8462430238723755,0.9070641994476318
3828487408.0,-1.2553656101226809,-0.3134666383266449,9.67462921142578,2.921469688415528,-1.0513617992401123,0.9994032979011536
3828495741.0,-1.3098859786987305,0.2877469956874847,10.022953987121582,3.705444574356079,-1.20801842212677,0.9691017270088196
3828504074.0,-1.222502827644348,0.8626710772514343,10.383149147033691,3.371845006942749,-1.506142497062683,0.880963146686554
3828512407.0,-0.9219428300857544,0.5552929043769836,10.103460311889648,2.448323965072632,-1.941789507865905,0.8607535362243652
3828520740.0,-0.6419239044189453,-0.0858536288142204,9.587774276733398,2.50605845451355,-1.795429825782776,0.8779664039611816
3828529073.0,-0.6431023478507996,-0.0219895355403423,9.596076011657717,3.369821310043335,-1.2389603853225708,1.0377991199493408
3828537406.0,-0.8547676205635071,0.5359780788421631,9.987040519714355,3.4470484256744385,-0.8352544903755188,1.0417436361312866
3828545739.0,-1.109960675239563,0.5639315247535706,10.212697982788086,2.870369434356689,-0.6804421544075012,0.9349579215049744
3828554072.0,-1.2406928539276123,0.1358254849910736,9.95612621307373,2.7685787677764893,-0.9454726576805116,0.951914608478546
3828562405.0,-1.269323706626892,0.1977158039808273,9.835947036743164,3.3252527713775635,-1.172389030456543,0.9457159042358398
3828570738.0,-1.1873512268066406,0.6881322860717773,10.10855484008789,3.515028238296509,-1.428095817565918,0.9207931756973268
3828579071.0,-1.00204598903656,0.6991193294525146,10.175826072692873,2.7234463691711426,-1.591028332710266,0.8417478799819946
3828587404.0,-0.7454906105995178,0.0610320530831813,9.742179870605469,2.301016569137573,-1.6124672889709473,0.8881863951683044
3828595737.0,-0.6730249524116516,-0.1277013272047042,9.52745532989502,3.140958070755005,-1.2882936000823977,1.004270076751709
3828604070.0,-0.817848801612854,0.5620577335357666,9.932513236999512,3.820375919342041,-0.7121270298957825,1.1021932363510132
3828612403.0,-1.0617371797561646,1.0632244348526,10.33256721496582,3.1801486015319824,-0.5355680584907532,0.8552466034889221
3828620736.0,-1.1798536777496338,0.5435099601745605,10.121732711791992,2.2459969520568848,-0.7728071212768555,0.8822951912879944
3828629069.0,-1.2213308811187744,-0.1876813322305679,9.639726638793944,2.4376938343048096,-1.121160626411438,1.0423072576522827
3828637402.0,-1.249703049659729,-0.0229452736675739,9.7514066696167,3.4500961303710938,-1.224795699119568,1.1157174110412598
3828645735.0,-1.1876370906829834,0.7428033351898193,10.20742130279541,3.831594944000244,-1.4275325536727903,0.9578059911727904
3828654068.0,-0.9399400353431702,0.9304318428039552,10.324871063232422,2.768425226211548,-1.5787333250045776,0.9466893076896667
3828662401.0,-0.6885794997215271,0.3159201443195343,9.842470169067385,2.3488125801086426,-1.5254558324813845,0.8499700427055359
3828670734.0,-0.6734184622764587,-0.0332418605685234,9.543474197387695,2.754081010818481,-0.9829975366592408,0.9622628688812256
3828679067.0,-0.8648470640182495,0.3828982710838318,9.87175750732422,3.399022102355957,-0.654751181602478,0.9973543882369996
3828687400.0,-1.1499779224395752,0.6665934324264526,10.227848052978516,3.010197877883911,-0.5565973520278931,0.8878534436225891
3828695733.0,-1.221808671951294,0.2764576375484466,10.035950660705566,2.414180040359497,-0.7907370924949646,0.9674881100654602
3828704066.0,-1.2460042238235474,0.0165987759828567,9.823914527893066,2.8397607803344727,-1.01724374294281,0.9825236797332764
3828712399.0,-1.2087441682815552,0.4708977043628692,10.034664154052734,3.465515613555908,-1.321899175643921,0.8602667450904846
3828720732.0,-1.1244854927062988,0.8469457030296326,10.260701179504396,3.0538954734802246,-1.4257394075393677,0.8319631218910217
3828729065.0,-0.918662130832672,0.4727890193462372,10.0861234664917,2.341691732406616,-1.6097520589828491,0.845513105392456
3828737398.0,-0.7414529919624329,-0.1444406062364578,9.635140419006348,2.431187868118286,-1.458116054534912,0.9457672238349916
3828745731.0,-0.7410508990287781,0.0717321559786796,9.730485916137695,3.242570400238037,-1.0478785037994385,0.8926434516906738
3828754064.0,-0.9151058197021484,0.7296876311302185,10.158578872680664,3.4337284564971924,-0.7660704255104065,0.9731999635696412
3828762397.0,-1.062991976737976,0.7447459697723389,10.285975456237791,2.623781442642212,-0.7923763394355774,0.8854200839996338
3828770730.0,-1.1516236066818235,0.0622641891241073,9.900897979736328,2.19307804107666,-0.8547214269638062,0.9503009915351868
3828779063.0,-1.276054859161377,-0.1468540132045745,9.77987003326416,2.859457969665528,-1.0994911193847656,1.0105456113815308
3828787396.0,-1.337882399559021,0.3466609120368957,10.076176643371582,3.309756278991699,-1.4274812936782837,0.9042208790779114
3828795729.0,-1.1930453777313232,0.7599380612373352,10.308520317077637,3.043752193450928,-1.8509358167648315,0.95857435464859
3828804062.0,-0.8761392831802368,0.3471850752830505,10.00533390045166,2.3372859954833984,-2.085895299911499,0.8916956186294556
3828812395.0,-0.6393448114395142,-0.0665854215621948,9.566597938537598,2.5554683208465576,-1.7237613201141355,1.014951229095459
3828820728.0,-0.7172160744667053,0.1592359244823455,9.72080898284912,3.3266613483428955,-1.282017946243286,1.0392589569091797
3828829061.0,-0.9614487886428832,0.5611799955368042,10.099021911621094,3.0730295181274414,-0.784640908241272,0.9805513620376588
3828837394.0,-1.1460731029510498,0.3303181231021881,10.092315673828123,2.5272409915924072,-0.9241102933883668,0.9539892673492432
3828845727.0,-1.2057770490646362,-0.012115747667849,9.84145450592041,2.532773971557617,-1.167189359664917,0.9674881100654602
3828854060.0,-1.3040753602981567,0.1681620776653289,9.85176944732666,3.2081446647644043,-1.2903170585632324,1.0928184986114502
3828862393.0,-1.2433133125305176,0.5977965593338013,10.11997413635254,3.215111255645752,-1.6528865098953247,1.0230709314346311
3828870726.0,-1.017587661743164,0.5714773535728455,10.12417984008789,2.6645848751068115,-1.927932381629944,0.8928226232528687
3828879059.0,-0.7330598831176758,0.0645521357655525,9.738654136657717,2.472529411315918,-1.7672542333602903,0.9578315019607544
3828887392.0,-0.7784488797187805,-0.0209068171679973,9.650931358337402,3.125666618347168,-1.367595076560974,1.010289430618286
3828895725.0,-0.9037010669708252,0.5342332124710083,10.023825645446776,3.499993085861206,-1.0150408744812012,1.0378503799438477
3828904058.0,-1.0506130456924438,0.8706935048103333,10.36062240600586,2.9569458961486816,-1.009790062904358,1.0089319944381714
3828912391.0,-1.1396085023880005,0.4015726149082184,10.108919143676758,2.215003728866577,-1.1933927536010742,0.9059882164001464
3828920724.0,-1.2096728086471558,-0.0950904414057731,9.77568531036377,2.460516452789306,-1.472767353057861,0.9606491327285768
3828929057.0,-1.1881705522537231,0.1070732399821281,9.861249923706056,3.2348599433898926,-1.5266339778900146,0.91400545835495
3828937390.0,-1.0979176759719849,0.7380977869033813,10.256810188293455,3.2496907711029053,-1.655371069908142,0.8904404044151306
3828945723.0,-0.8446287512779236,0.6943844556808472,10.196176528930664,2.5647661685943604,-1.773350477218628,0.8413635492324829
3828954056.0,-0.707431972026825,0.1132955551147461,9.76738739013672,2.466996431350708,-1.586007833480835,0.9578315019607544
3828962389.0,-0.7448647618293762,-0.0162163190543651,9.643854141235352,2.7788243293762207,-1.2135511636734009,1.0323690176010132
3828970722.0,-0.8613069653511047,0.2473438680171966,9.90739917755127,3.203918218612671,-0.8521344065666199,0.97161203622818
3828979055.0,-1.0351144075393677,0.3448843359947204,10.107403755187988,2.768322706222534,-0.7743695378303528,0.9290667772293092
3828987388.0,-1.147439956665039,0.1774698197841644,9.981990814208984,2.82323956489563,-1.0131455659866333,0.964363157749176
3828995721.0,-1.1778346300125122,0.2594661712646484,9.932875633239746,3.2161362171173096,-1.1993865966796875,0.983240842819214
3829004054.0,-1.0989028215408323,0.6518725156784058,10.177746772766112,3.261908054351806,-1.430503487586975,0.9180012345314026
3829012387.0,-0.9408514499664308,0.6586276292800903,10.174520492553713,2.7281594276428223,-1.604629397392273,0.915055811405182
3829020720.0,-0.7670637369155884,0.0962294787168502,9.746615409851074,2.426961660385132,-1.5557317733764648,0.9683589339256288
3829029053.0,-0.7567275166511536,-0.0970188900828361,9.579627990722656,3.037015914916992,-1.141959547996521,0.9865707755088806
3829037386.0,-0.9214562773704528,0.4979817271232605,9.902316093444824,3.514567375183105,-0.8192713260650635,1.0339568853378296
3829045719.0,-1.0903815031051636,0.962720513343811,10.325793266296388,3.052742958068848,-0.7876889705657959,0.9376218914985656
3829054052.0,-1.201464295387268,0.5614990592002869,10.174373626708984,2.2551157474517822,-0.9092286229133606,0.915055811405182
3829062385.0,-1.2511059045791626,-0.0798137560486793,9.763096809387209,2.28037166595459,-1.1213144063949585,0.947201669216156
3829070718.0,-1.2509313821792605,-0.0045063430443406,9.801486015319824,3.193621158599853,-1.522330641746521,0.9658231139183044
3829079051.0,-1.106663942337036,0.5545754432678223,10.12034034729004,3.370846033096313,-1.7272958755493164,0.9294764995574952
3829087384.0,-0.8618335127830505,0.7007349133491516,10.199633598327637,2.7105367183685303,-1.9586948156356807,0.9489945769309998
3829095717.0,-0.5945951342582703,0.3081434071063995,9.801740646362305,2.4622066020965576,-1.659136414527893,0.9584463238716124
3829104050.0,-0.6073194742202759,0.0615533962845802,9.59506893157959,2.7771849632263184,-1.1567388772964478,0.9687432646751404
3829112383.0,-0.8652724027633667,0.2668421864509582,9.864056587219238,3.1589906215667725,-0.6284452080726624,1.0185884237289429
3829120716.0,-1.155988097190857,0.2553500831127167,10.058223724365234,2.9206247329711914,-0.5959407687187195,0.9800902009010316
3829129049.0,-1.2765060663223269,0.0525841936469078,10.00223159790039,2.762072324752808,-0.9244945049285888,1.0294744968414309
3829137382.0,-1.2912362813949585,0.0949314311146736,9.918208122253418,3.1731553077697754,-1.1821736097335815,0.8284027576446533
3829145715.0,-1.2103185653686523,0.5561506152153015,10.144370079040527,3.472329616546631,-1.5976879596710205,0.8513787388801575
3829154048.0,-1.0135279893875122,0.7171566486358643,10.243786811828612,2.919856548309326,-1.841330647468567,0.925532042980194
3829162381.0,-0.7168800234794617,0.1818307936191558,9.872671127319336,2.4174845218658447,-1.6950477361679075,0.96303129196167
3829170714.0,-0.6156304478645325,-0.0788558945059776,9.662408828735352,2.875236749649048,-1.44948410987854,0.846921980381012
3829179047.0,-0.7605888247489929,0.4102133512496948,9.93294906616211,3.495945930480957,-0.8460381627082825,0.8832940459251404
3829187380.0,-0.9725435972213744,0.9165230989456176,10.315275192260742,3.251330137252808,-0.5637437105178833,0.9458184838294984
3829195713.0,-1.1751620769500732,0.6132932305335999,10.249469757080078,2.443278312683105,-0.7519826889038086,0.9345994591712952
3829204046.0,-1.2202447652816772,-0.1067418754100799,9.788126945495604,2.243281841278076,-0.9607900381088256,0.9295278191566468
3829212379.0,-1.2703661918640137,-0.2204580157995224,9.68260097503662,3.1387040615081787,-1.1781522035598757,0.9850848913192748
3829220712.0,-1.2562774419784546,0.4445030987262726,10.0608549118042,3.5755550861358643,-1.3470782041549685,0.9655413627624512
3829229045.0,-1.1025546789169312,0.7610287070274353,10.246384620666504,2.97933292388916,-1.68659508228302,0.8662094473838806
3829237378.0,-0.7225167155265808,0.289928138256073,9.815959930419922,2.3346221446990967,-1.8238615989685056,0.931986689567566
3829245711.0,-0.5850468873977661,-0.075023278594017,9.503999710083008,2.9367876052856445,-1.4202837944030762,0.9289643168449402
3829254044.0,-0.7593686580657959,0.2731754779815674,9.772187232971191,3.404759645462036,-0.6642540097236633,0.9486616253852844
3829262377.0,-1.0985383987426758,0.6438674926757812,10.232844352722168,3.173898220062256,-0.475758820772171,0.8199500441551208
3829270710.0,-1.2851825952529907,0.3871504366397857,10.17970371246338,2.625497579574585,-0.6785722970962524,0.937109649181366
3829279043.0,-1.310334086418152,0.1311008632183075,9.903799057006836,2.8004941940307617,-1.1583269834518433,0.9655669927597046
3829287376.0,-1.266991376876831,0.4118643999099731,9.960740089416504,3.353966236114502,-1.4091670513153076,0.9809099435806274
3829295709.0,-1.085878610610962,0.6384808421134949,10.0629243850708,2.964630126953125,-1.8010905981063845,0.8779407739639282
3829304042.0,-0.7704735994338989,0.1886172741651535,9.768799781799316,2.510643243789673,-1.82934319972992,0.8130854964256287
3829312375.0,-0.6145574450492859,-0.3065070509910583,9.400683403015137,2.699369192123413,-1.3747159242630005,0.9340103268623352
3829320708.0,-0.6715696454048157,0.0202343575656414,9.620418548583984,3.580242395401001,-0.9100737571716307,0.9631080031394958
3829329041.0,-0.9690112471580504,0.7102404236793518,10.129805564880373,3.668304204940796,-0.4252474904060364,0.8691293597221375
3829337374.0,-1.204456448554993,0.7616215348243713,10.296603202819824,2.8476240634918213,-0.6220161318778992,0.9874927401542664
3829345707.0,-1.3472598791122437,0.0286464393138885,9.890764236450195,2.437386989593506,-1.0293593406677246,0.8953840136528015
3829354040.0,-1.2966952323913574,-0.1400704383850097,9.701183319091797,3.198129415512085,-1.4806820154190063,0.9115209579467772
3829362373.0,-1.209774374961853,0.5410457849502563,10.117246627807615,3.6836726665496826,-1.7300366163253784,0.8952558636665344
3829370706.0,-0.9923636317253112,1.0587540864944458,10.426000595092772,3.1711313724517822,-1.8659714460372925,1.0224560499191284
3829379039.0,-0.6525543332099915,0.7221640348434448,10.147112846374512,2.38895034790039,-1.8733997344970703,0.922176480293274
3829387372.0,-0.5198821425437927,0.3553444445133209,9.843301773071287,2.60093355178833,-1.318492770195007,0.9531185626983644
3829395705.0,-0.703100860118866,0.4564827978610992,9.97081470489502,2.826646327972412,-0.6830548644065857,0.9797829389572144
3829404038.0,-1.0599654912948608,0.6429073810577393,10.229613304138184,2.827901124954224,-0.3975329101085663,0.9849825501441956
3829412371.0,-1.3165621757507324,0.4654843807220459,10.282109260559082,2.3761940002441406,-0.702367901802063,0.930501103401184
3829420704.0,-1.3642315864562988,0.2532269358634949,10.11469268798828,2.4649477005004883,-1.0975444316864014,0.9610077142715454
3829429037.0,-1.3115230798721311,0.4553640782833099,10.12771224975586,2.7909655570983887,-1.3966161012649536,0.897330641746521
3829437370.0,-1.1332824230194092,0.6825627684593201,10.266542434692385,2.5251410007476807,-1.6960210800170898,0.9108806848526
3829445703.0,-0.8926342725753784,0.3297504186630249,10.03830623626709,2.131091356277466,-1.73321270942688,0.8851894736289978
3829454036.0,-0.6282064318656921,-0.2207153439521789,9.617486953735352,2.368971109390259,-1.574327826499939,0.9116747975349426
3829462369.0,-0.6918751001358032,-0.0068017751909792,9.646842956542969,3.1321728229522705,-0.9447811245918274,0.9671295285224916
3829470702.0,-0.9632883071899414,0.6735901832580566,10.15708827972412,3.3841145038604736,-0.6595153212547302,0.901813268661499
3829479035.0,-1.2087218761444092,0.8317843079566956,10.330272674560549,2.536180257797241,-0.7474489808082581,0.9049124717712402
3829487368.0,-1.237389087677002,0.1572653651237487,9.961892127990724,2.114032506942749,-1.1623740196228027,0.7768669128417969
3829495701.0,-1.3070640563964844,-0.1648319810628891,9.71010971069336,2.7460381984710693,-1.152179479598999,0.8294786214828491
3829504034.0,-1.3254077434539795,0.3061143755912781,10.015246391296388,3.379554748535156,-1.3995362520217896,0.8524801135063171
3829512367.0,-1.1522480249404907,0.7436466813087463,10.233409881591797,3.054330825805664,-1.8792139291763303,0.9195382595062256
3829520700.0,-0.8299607634544373,0.5430437922477722,9.965980529785156,2.410414695739746,-2.053595542907715,0.9266846179962158
3829529033.0,-0.611481249332428,0.2378814220428466,9.616941452026367,2.409236431121826,-1.5997371673583984,0.9468174576759338
3829537366.0,-0.6731757521629333,0.3404759764671325,9.78061866760254,2.8068716526031494,-1.0384010076522827,0.9396196603775024
3829545699.0,-0.9375207424163818,0.4872495234012604,10.03243350982666,2.669323444366455,-0.6602581739425659,0.9904384613037108
3829554032.0,-1.222239375114441,0.2417564541101455,9.99658203125,2.3289103507995605,-0.8222425580024719,0.9350348711013794
3829562365.0,-1.354650616645813,0.028916722163558,9.799970626831056,2.590866804122925,-1.0901161432266235,0.9065260887145996
3829570698.0,-1.3783756494522097,0.3347156047821045,9.964625358581545,3.0439319610595703,-1.5270439386367798,0.927632451057434
3829579031.0,-1.2243176698684692,0.678846001625061,10.132867813110352,2.652495145797729,-1.8715811967849727,0.8926945924758911
3829587364.0,-0.9119356274604796,0.3620575964450836,9.953184127807615,2.203221321105957,-2.022064685821533,0.9004555344581604
3829595697.0,-0.6077080368995667,-0.1392671763896942,9.535268783569336,2.3681766986846924,-1.673147201538086,0.8520447015762329
3829604030.0,-0.6135435104370117,0.0639183148741722,9.635941505432127,3.0490036010742188,-1.2237200736999512,0.9126224517822266
3829612363.0,-0.7826916575431824,0.6755812168121338,10.09485149383545,2.950568199157715,-0.9383776187896729,0.8948974013328552
3829620696.0,-1.0206592082977295,0.6877681016921997,10.229488372802734,2.34622573852539,-0.8623032569885254,0.8571932315826416
3829629029.0,-1.0843727588653564,0.0527240261435508,9.88970184326172,2.147202968597412,-0.9375578761100768,0.940644383430481
3829637362.0,-1.2122502326965332,-0.1920355558395385,9.730671882629396,2.7765958309173584,-1.1469285488128662,0.941925048828125
3829645695.0,-1.2217981815338137,0.3219090104103088,10.05846118927002,3.1578891277313232,-1.3215663433074951,0.8426699042320251
3829654028.0,-1.162258863449097,0.7881168127059937,10.367295265197754,2.752467632293701,-1.7956347465515137,0.7933112978935242
3829662361.0,-0.8296108841896057,0.5146391987800598,10.125258445739746,2.155835151672364,-2.040225028991699,0.8227933049201965
3829670694.0,-0.5010117888450623,0.0597974359989166,9.684423446655272,2.238697052001953,-1.7142071723937988,0.891055166721344
3829679027.0,-0.500124454498291,0.1788131594657898,9.805230140686035,2.8415021896362305,-1.1366573572158811,0.9932560324668884
3829687360.0,-0.7540846467018127,0.4574500620365143,10.080124855041504,2.7006499767303467,-0.6610009670257568,0.994792938232422
3829695693.0,-1.0564184188842771,0.3127939999103546,10.149565696716309,2.373556137084961,-0.5319564938545227,0.9463563561439514
3829704026.0,-1.2749645709991455,0.1027804315090179,10.018577575683594,2.431572198867798,-0.7785958647727966,1.0043212175369265
3829712359.0,-1.3548039197921753,0.3827552199363708,10.143630981445312,2.8853797912597656,-1.110505223274231,0.9007374048233032
3829720692.0,-1.3182549476623535,0.7803152203559875,10.401537895202637,2.643683671951294,-1.5019162893295288,0.8606254458427429
3829729025.0,-1.0534001588821411,0.523524820804596,10.26315975189209,1.8855020999908447,-1.912025690078736,0.8528131246566772
3829737358.0,-0.7209121584892273,-0.0981892347335815,9.76393222808838,1.88481080532074,-1.661441683769226,0.8868288993835449
3829745691.0,-0.6987862586975098,0.011721447110176,9.741214752197266,2.717273712158203,-1.1474921703338623,0.9868781566619872
3829754024.0,-0.93010812997818,0.7846873998641968,10.260421752929688,2.909252166748047,-0.7255232334136963,0.9697421789169312
3829762357.0,-1.22664475440979,1.0582921504974363,10.508989334106444,2.034653902053833,-0.5439183115959167,0.8506871461868286
3829770690.0,-1.3159340620040894,0.3297136723995209,10.126595497131348,1.3600518703460691,-0.7914541959762573,0.8099348545074463
3829779023.0,-1.374277114868164,-0.1921548247337341,9.81434440612793,1.8915728330612185,-0.9767475724220276,0.8182851672172546
3829787356.0,-1.411360502243042,0.1931876242160797,10.034136772155762,2.667786836624145,-1.2194170951843262,0.8075528740882874
3829795689.0,-1.2712968587875366,0.7325834035873413,10.32378387451172,2.578546524047852,-1.613568663597107,0.7028161883354187
3829804022.0,-0.995061993598938,0.5657497644424438,10.117238998413086,1.6840462684631348,-1.9526755809783936,0.6972578763961792
3829812355.0,-0.7020727396011353,0.0295595955103635,9.623836517333984,1.9266901016235352,-1.7112871408462524,0.7547619342803955
3829820688.0,-0.714443564414978,0.0637801587581634,9.664557456970217,2.5202999114990234,-1.086146116256714,0.8985859155654907
3829829021.0,-0.9797834753990172,0.4213373959064483,9.995521545410156,2.559438467025757,-0.7451437711715698,0.7738444805145264
3829837354.0,-1.278142333030701,0.2323760241270065,10.03037452697754,2.2063205242156982,-0.833999514579773,0.8586274981498718
3829845687.0,-1.4335527420043943,-0.1579227894544601,9.79580020904541,2.38451886177063,-1.05996835231781,0.8588582277297974
3829854020.0,-1.459264874458313,0.04230397939682,9.86746883392334,3.024977207183838,-1.5430784225463867,0.8285309076309204
3829862353.0,-1.2724764347076416,0.5168581008911133,10.131512641906738,3.08125114440918,-2.0745224952697754,0.8905428051948547
3829870686.0,-0.975410521030426,0.4701243638992309,10.006202697753906,2.439026117324829,-2.1101772785186768,0.8648517727851868
3829879019.0,-0.6595478057861328,-0.0378564596176147,9.557204246520996,2.3594682216644287,-1.902881503105164,0.8687196373939514
3829887352.0,-0.6644473075866699,-0.1165029928088188,9.489747047424316,2.975989818572998,-1.497549057006836,1.010635256767273
3829895685.0,-0.8622279167175293,0.4371195137500763,9.928357124328612,3.349329710006714,-1.1023597717285156,1.0464822053909302
3829904018.0,-1.1740281581878662,0.7073781490325928,10.179059028625488,2.660256147384644,-1.1002082824707031,1.0150792598724363
3829912351.0,-1.3052109479904177,0.2096574157476425,9.930018424987791,2.2801408767700195,-1.3149325847625732,1.057266116142273
3829920684.0,-1.300182223320007,-0.2054820954799652,9.672245025634766,2.635026216506958,-1.6648997068405151,1.068664312362671
3829929017.0,-1.244874358177185,0.1107036396861076,9.906782150268556,3.1948251724243164,-1.8912781476974487,1.041922926902771
3829937350.0,-1.127951979637146,0.5641772150993347,10.149906158447266,3.0733110904693604,-2.253207206726074,1.0114164352416992
3829945683.0,-0.8261032104492188,0.4697193205356598,9.961928367614746,2.337619066238404,-2.480021476745605,0.8896976113319397
3829954016.0,-0.5814028978347778,0.0959848165512085,9.599312782287598,2.3710713386535645,-2.1842029094696045,0.9616994261741638
3829962349.0,-0.5564832091331482,0.1124760508537292,9.633997917175291,2.7072582244873047,-1.658342361450195,0.9740196466445924
3829970682.0,-0.7664149403572083,0.2404546737670898,9.903800964355469,2.7835886478424072,-1.255353569984436,0.9971750974655152
3829979015.0,-1.0553466081619265,0.0158740654587745,9.914785385131836,2.551831007003784,-1.1921889781951904,0.8786323666572571
3829987348.0,-1.2139387130737305,-0.1620877832174301,9.829401969909668,2.7779791355133057,-1.3597060441970823,0.9759665131568908
3829995681.0,-1.2610565423965454,0.1749511361122131,9.992870330810549,3.2588350772857666,-1.6836236715316772,0.8149552941322327
3830004014.0,-1.114862322807312,0.5916906595230103,10.226938247680664,3.115190267562866,-2.0735232830047607,0.8130086064338684
3830012347.0,-0.8247878551483154,0.3538253307342529,10.018134117126465,2.611179113388061,-2.3295631408691406,0.8896207809448242
3830020680.0,-0.4733855128288269,-0.312252789735794,9.529692649841309,2.4870269298553467,-2.099240064620972,0.7672871947288513
3830029013.0,-0.3998715281486511,-0.3013273775577545,9.487472534179688,3.3049404621124268,-1.6377229690551758,0.7775073051452637
3830037346.0,-0.5633006691932678,0.3978574275970459,9.975774765014648,3.737923622131348,-1.0860179662704468,0.841696560382843
3830045679.0,-0.8178384304046631,0.7854740023612976,10.296178817749023,3.108248710632324,-0.829055905342102,0.817388653755188
3830054012.0,-0.990409791469574,0.2371878027915954,10.055730819702148,2.5721943378448486,-0.8861245512962341,0.7669543027877808
3830062345.0,-1.1107335090637207,-0.2741174399852752,9.74448299407959,2.852388381958008,-1.130842924118042,0.9128530025482178
3830070678.0,-1.120799541473389,-0.0052733188495039,9.900312423706056,3.4949214458465576,-1.331581473350525,0.8966390490531921
3830079011.0,-0.9700174927711488,0.5690839886665344,10.223999977111816,3.468000888824463,-1.628450632095337,0.9178220629692078
3830087344.0,-0.7073305249214172,0.4729130566120147,10.0765962600708,2.860738515853882,-1.907594323158264,0.8634942173957825
3830095677.0,-0.4400879442691803,0.0694994926452636,9.698092460632324,2.845959424972534,-1.6742233037948608,0.888826847076416
3830104010.0,-0.4256535172462463,0.188618928194046,9.721333503723145,3.447816848754883,-1.070802927017212,0.9826772809028624
3830112343.0,-0.6730116009712219,0.5042328238487244,10.006175994873049,3.3344485759735107,-0.5263469219207764,1.0998624563217163
3830120676.0,-1.0424151420593262,0.3613210022449493,10.11155605316162,2.672883987426758,-0.3143122792243957,0.994536817073822
3830129009.0,-1.2900822162628174,-0.0043382458388805,9.912057876586914,2.814274311065674,-0.5456088185310364,1.036543846130371
3830137342.0,-1.369094967842102,0.1630929261445999,9.923104286193848,3.55401349067688,-1.0527193546295166,1.0262984037399292
3830145675.0,-1.23931086063385,0.7382830381393433,10.15671443939209,3.643202066421509,-1.3251780271530151,1.0459188222885132
3830154008.0,-1.0401318073272705,0.8090142011642456,10.158069610595703,2.88018012046814,-1.6608271598815918,1.104882836341858
3830162341.0,-0.7188621759414673,0.1821920126676559,9.743731498718262,2.4219412803649902,-1.6166168451309204,0.9946649074554444
3830170674.0,-0.6438547968864441,-0.0858502760529518,9.5201416015625,3.06498646736145,-1.208889365196228,1.0121079683303833
3830179007.0,-0.8302867412567139,0.4839890301227569,9.932682991027832,3.6629507541656494,-0.571402370929718,1.1340831518173218
3830187340.0,-1.1303900480270386,0.9706199765205384,10.308485984802246,3.2738964557647705,-0.5182784795761108,1.0508625507354736
3830195673.0,-1.3311752080917358,0.5714686512947083,10.167913436889648,2.4925084114074707,-0.7212456464767456,0.9933072924613952
3830204006.0,-1.3809890747070312,-0.0642164796590805,9.738397598266602,2.643094301223755,-1.092728853225708,0.9510437846183776
3830212339.0,-1.3829673528671265,0.0308031737804412,9.839150428771973,3.2139079570770264,-1.263499140739441,0.975121259689331
3830220672.0,-1.31098735332489,0.6547088623046875,10.199262619018556,3.430373430252075,-1.6448692083358765,0.91551673412323
3830229005.0,-1.0758167505264282,0.7715162634849548,10.223499298095703,2.766657829284668,-1.7714550495147705,0.7883678078651428
3830237338.0,-0.7497861385345459,0.3045073449611664,9.828911781311035,2.46584415435791,-1.7538068294525146,0.8003552556037903
3830245671.0,-0.6303470134735107,0.075078584253788,9.644736289978027,2.8701648712158203,-1.3817343711853027,0.8286077380180359
3830254004.0,-0.7833312749862671,0.3682945370674133,9.892287254333496,3.070263147354126,-0.9048996567726136,0.941335916519165
3830262337.0,-1.0977487564086914,0.4404957294464111,10.117341995239258,2.799571990966797,-0.7153543829917908,0.7992538213729858
3830270670.0,-1.3083817958831787,0.1553996503353119,10.07897663116455,2.580775022506714,-0.9579468369483948,0.8718189597129822
3830279003.0,-1.3569471836090088,0.1064605638384819,9.977807998657228,3.022210597991944,-1.2973865270614624,0.9976103901863098
3830287336.0,-1.2370171546936035,0.5374202728271484,10.157124519348145,3.266468048095703,-1.7134897708892822,0.844795823097229
3830295669.0,-1.0198100805282593,0.6208961606025696,10.211942672729492,2.8886072635650635,-1.970529079437256,0.9433596134185792
3830304002.0,-0.6882421970367432,0.1091126576066017,9.82817554473877,2.3133881092071533,-1.9228094816207888,0.8255851864814758
3830312335.0,-0.4880344271659851,-0.2252138257026672,9.567300796508787,2.854463577270508,-1.5898756980895996,0.9448451399803162
3830320668.0,-0.5831940174102783,0.2260044366121292,9.830604553222656,3.3907482624053955,-0.970267117023468,1.044996738433838
3830329001.0,-0.881239116191864,0.7498583793640137,10.240682601928713,3.229071617126465,-0.7489602565765381,0.953477144241333
3830337334.0,-1.095966339111328,0.4581323564052582,10.224504470825195,2.3811631202697754,-0.9002634286880493,0.8777357935905457
3830345667.0,-1.1517798900604248,-0.1638066172599792,9.842525482177734,2.4296255111694336,-1.0604292154312134,0.9670781493186952
3830354000.0,-1.2030484676361084,-0.1145010516047477,9.800413131713867,3.093802690505981,-1.1899605989456177,0.949942409992218
3830362333.0,-1.1383076906204224,0.4275806248188019,10.16126823425293,3.535468578338623,-1.5215623378753662,0.8933091759681702
3830370666.0,-0.918386161327362,0.5637138485908508,10.174647331237791,2.9063832759857178,-1.7791646718978882,1.0071901082992554
3830378999.0,-0.5847036242485046,0.1568303704261779,9.787955284118652,2.668196678161621,-1.5818841457366943,1.03057599067688
3830387332.0,-0.5058802366256714,0.0292467139661312,9.6231050491333,3.026975154876709,-1.344414472579956,0.9736355543136596
3830395665.0,-0.6900041699409485,0.3154616951942444,9.88180160522461,3.4123926162719727,-0.536259651184082,1.0924599170684814
3830403998.0,-1.0648562908172607,0.4232185781002044,10.12514591217041,2.966372013092041,-0.3268376588821411,0.9811660647392272
3830412331.0,-1.284198760986328,0.058662861585617,9.984649658203123,2.660640239715576,-0.7148165106773376,0.9438206553459167
3830420664.0,-1.3501687049865725,0.0213825143873691,9.877622604370115,3.191981792449951,-1.2261790037155151,1.0139522552490234
3830428997.0,-1.287909984588623,0.4925013184547424,10.100020408630373,3.480065107345581,-1.5195643901824951,0.9531952738761902
3830437330.0,-1.0560798645019531,0.7373682260513306,10.205097198486328,3.1378328800201416,-1.713822603225708,0.883831799030304
3830445663.0,-0.7885194420814514,0.234527125954628,9.864656448364258,2.4682517051696777,-1.668997883796692,0.9524782299995422
3830453996.0,-0.6015089154243469,-0.2732342779636383,9.52147102355957,2.859790802001953,-1.3800182342529297,0.9127761125564576
3830462329.0,-0.7065850496292114,0.1630646884441375,9.770951271057127,3.582624673843384,-0.7604609727859497,1.0330604314804075
3830470662.0,-1.0517455339431765,0.8379300236701965,10.255950927734377,3.3634183406829834,-0.6236298084259033,1.0306016206741333
3830478995.0,-1.2805622816085815,0.641872763633728,10.246538162231444,2.4775240421295166,-0.8027244806289673,0.8877509236335754
3830487328.0,-1.2716048955917358,-0.0865131095051765,9.790508270263672,2.314976215362549,-1.142138957977295,0.913288414478302
3830495661.0,-1.252536416053772,-0.1966962069272995,9.758986473083496,3.096261739730835,-1.3635739088058472,0.902453601360321
3830503994.0,-1.1777079105377195,0.4073381423950195,10.107625007629396,3.514439344406128,-1.5125973224639893,0.9645679593086244
3830512327.0,-1.0150635242462158,0.6776537299156189,10.258758544921877,2.988912582397461,-1.7749897241592407,0.8847541809082031
3830520660.0,-0.7057108879089355,0.276222288608551,9.8711576461792,2.5523946285247803,-1.7425106763839722,0.9816015958786012
3830528993.0,-0.557332456111908,0.0147153902798891,9.663010597229004,2.94941520690918,-1.2222599983215332,0.9834457635879515
3830537326.0,-0.7688153982162476,0.3094671666622162,9.890076637268066,3.2761504650115967,-0.8360230326652527,0.995971143245697
3830545659.0,-1.0431132316589355,0.4626095592975616,10.10714054107666,3.0172157287597656,-0.7240631580352783,0.983548104763031
3830553992.0,-1.239930272102356,0.1172811836004257,9.960039138793944,2.6700406074523926,-0.8095123171806335,1.0680750608444214
3830562325.0,-1.300730586051941,0.0088362293317914,9.906999588012695,3.201101064682007,-1.2669825553894043,1.0573686361312866
3830570658.0,-1.2765007019042969,0.5177475214004517,10.08721160888672,3.5338294506073,-1.578477144241333,0.9640300869941713
3830578991.0,-1.0724679231643677,0.8132293820381165,10.2819242477417,3.006381034851074,-1.8396143913269043,0.9632617235183716
3830587324.0,-0.7647625207901001,0.3399514257907867,9.946538925170898,2.383289337158203,-1.8720675706863403,0.8492528200149536
3830595657.0,-0.5623881220817566,-0.2055680602788925,9.51249885559082,2.6965770721435547,-1.5806289911270142,1.0059095621109009
3830603990.0,-0.64543217420578,0.1987749934196472,9.690374374389648,3.432448148727417,-0.9530287981033324,1.0320615768432615
3830612323.0,-0.9414886832237244,0.8930734395980835,10.210053443908691,3.482344627380371,-0.6489365696907043,0.999326467514038
3830620656.0,-1.150862455368042,0.829255998134613,10.281319618225098,2.5861284732818604,-0.7947841286659241,0.9801671504974364
3830628989.0,-1.2274519205093384,0.0683928355574607,9.868142127990724,2.244460105895996,-1.0173205137252808,0.8737143278121948
3830637322.0,-1.2532782554626465,-0.1382690668106079,9.764845848083496,2.998901844024658,-1.146288275718689,0.9541430473327636
3830645655.0,-1.2267884016036987,0.4148271381855011,10.098323822021484,3.5116987228393555,-1.3711042404174805,0.9190002679824828
3830653988.0,-1.0610666275024414,0.7519314885139465,10.27634334564209,3.0793559551239014,-1.7873868942260742,0.883063554763794
3830662321.0,-0.7298905253410339,0.4140335321426391,9.936528205871582,2.542661190032959,-1.798836588859558,0.7909548878669739
3830670654.0,-0.495304524898529,0.0998151451349258,9.656081199645996,2.662356376647949,-1.4105247259140017,0.8896719813346863
3830678987.0,-0.5939732193946838,0.3153008818626404,9.81455421447754,3.076589584350586,-0.8763910531997681,0.8410305380821228
3830687320.0,-0.9151633977890016,0.4227074682712555,10.048595428466797,2.7372522354125977,-0.4957635104656219,0.8899025321006775
3830695653.0,-1.1685774326324463,0.0794570073485374,10.026131629943848,2.4519355297088623,-0.6855138540267944,0.8994055390357971
3830703986.0,-1.328581690788269,-0.0314208194613456,9.902793884277344,2.8997745513916016,-0.8814114332199097,0.8714089393615723
3830712319.0,-1.3706200122833252,0.3990822434425354,10.084878921508787,3.336958408355713,-1.2879093885421753,0.8375470638275146
3830720652.0,-1.1990623474121094,0.7379212975502014,10.249150276184082,3.025566339492798,-1.6654120683670044,0.8276856541633606
3830728985.0,-0.8751616477966309,0.2710005939006805,9.93266487121582,2.4438157081604004,-1.804906964302063,0.8986113667488098
3830737318.0,-0.5782869458198547,-0.299742728471756,9.50316047668457,2.5280354022979736,-1.5426173210144043,0.8785041570663452
3830745651.0,-0.5752773284912109,0.0002194512635469,9.662602424621582,3.3760197162628174,-1.1724658012390137,0.8971768617630005
3830753984.0,-0.7980233430862427,0.7035607099533081,10.202893257141112,3.5214321613311768,-0.7914286255836487,1.0014268159866333
3830762317.0,-1.0786747932434082,0.6908767223358154,10.30280876159668,2.6372289657592773,-0.6633318662643433,1.002553939819336
3830770650.0,-1.2099615335464478,-0.0140555342659354,9.906471252441406,2.3115694522857666,-0.8729332089424133,0.987492859363556
3830778983.0,-1.2868351936340332,-0.2583086490631103,9.726099967956545,3.0340447425842285,-1.0469306707382202,0.9511206150054932
3830787316.0,-1.3340476751327517,0.2967156171798706,10.040319442749023,3.5659492015838623,-1.3561198711395264,0.9785277247428894
3830795649.0,-1.1863799095153809,0.7033417820930481,10.281752586364746,3.1133463382720947,-1.7928171157836914,0.9363155364990234
3830803982.0,-0.8158083558082581,0.3053096532821655,9.941238403320312,2.554495096206665,-1.9053150415420528,0.883191704750061
3830812315.0,-0.5467190742492676,-0.0580290257930755,9.596450805664062,2.829822301864624,-1.5956132411956787,0.8875717520713806
3830820648.0,-0.6234968304634094,0.2291620224714279,9.79281997680664,3.3315796852111816,-0.8486765027046204,1.007343888282776
3830828981.0,-0.9554675817489624,0.5341038107872009,10.116293907165527,3.1294829845428467,-0.5050614476203918,1.0406935214996338
3830837314.0,-1.2390751838684082,0.2350271940231323,10.061700820922852,2.6617674827575684,-0.5516281723976135,0.8421064615249634
3830845647.0,-1.3541158437728882,-0.0414614118635654,9.84584903717041,2.9020800590515137,-1.110223412513733,1.0712770223617554
3830853980.0,-1.3541581630706787,0.3318604826927185,10.005812644958496,3.39092755317688,-1.5336010456085205,0.9946391582489014
3830862313.0,-1.1450682878494265,0.6978752613067627,10.227537155151367,3.18135142326355,-1.7600818872451782,0.8198987245559692
3830870646.0,-0.8294470310211182,0.3699367344379425,10.018159866333008,2.6164045333862305,-1.9096180200576784,0.8558868169784546
3830878979.0,-0.5439859628677368,-0.1923721134662628,9.586684226989746,2.6691441535949707,-1.5840868949890137,0.9144667387008668
3830887312.0,-0.5817323327064514,0.0914558768272399,9.636993408203123,3.473123788833618,-1.05863618850708,0.9747880697250366
3830895645.0,-0.8795685172080994,0.7885542511940002,10.17678451538086,3.5551915168762207,-0.6607447862625122,0.9197431206703186
3830903978.0,-1.1291661262512207,0.7940420508384705,10.301385879516602,2.6515729427337646,-0.7764187455177307,0.8558100461959839
3830912311.0,-1.2250466346740725,0.0427284352481365,9.900175094604492,2.169512987136841,-1.0598913431167605,0.8569626212120056
3830920644.0,-1.2178152799606323,-0.3052989542484283,9.699821472167969,2.9095847606658936,-1.3117306232452393,0.892130970954895
3830928977.0,-1.2058682441711426,0.2849328219890594,10.016083717346191,3.648068904876709,-1.404991865158081,0.9595988988876344
3830937310.0,-1.0762063264846802,0.8150236010551453,10.346656799316406,3.308987855911255,-1.7421520948410034,0.9270687103271484
3830945643.0,-0.7556944489479065,0.509109616279602,10.041361808776855,2.5277791023254395,-1.7998096942901611,0.9307828545570374
3830953976.0,-0.5055432319641113,0.0222176052629947,9.610899925231934,2.585590362548828,-1.508678317070007,0.8506358861923218
3830962309.0,-0.5801049470901489,0.147588774561882,9.70310115814209,3.1135003566741943,-0.8879175186157227,0.9065006971359252
3830970642.0,-0.8850303292274475,0.4580860733985901,10.064358711242676,3.042804718017578,-0.648987889289856,0.9144923090934752
3830978975.0,-1.1725224256515503,0.2749785482883453,10.121512413024902,2.65787410736084,-0.6590542793273926,0.9732001423835754
3830987308.0,-1.3230295181274414,0.0118192080408334,9.90534496307373,2.9095592498779297,-0.9246737957000732,0.965874433517456
3830995641.0,-1.312865972518921,0.3227606415748596,9.992267608642578,3.480346441268921,-1.204227328300476,0.9659254550933838
3831003974.0,-1.1904081106185913,0.7501710057258606,10.21322536468506,3.194209814071656,-1.6221749782562256,0.9924618005752563
3831012307.0,-0.9193323254585266,0.4732112288475036,10.038941383361816,2.5686850547790527,-1.8763195276260376,0.9271968007087708
3831020640.0,-0.6172032952308655,-0.1976178735494613,9.565316200256348,2.501063823699951,-1.6517595052719116,0.9705618023872375
3831028973.0,-0.6062040328979492,-0.062576375901699,9.585527420043944,3.362086057662964,-1.0468792915344238,0.9513766169548036
3831037306.0,-0.8505545854568481,0.662173867225647,10.112664222717283,3.7031137943267822,-0.7045195698738098,1.079909086227417
3831045639.0,-1.1510021686553955,0.8984095454216003,10.378506660461426,2.870805263519287,-0.6048290133476257,0.9897469282150269
3831053972.0,-1.2437423467636108,0.1830224692821502,10.008326530456545,2.217103958129883,-0.9505441784858704,0.9683589339256288
3831062305.0,-1.289512038230896,-0.2738583981990814,9.700108528137209,2.711203098297119,-1.206609845161438,0.9397991299629213
3831070638.0,-1.2840882539749146,0.1608238369226455,9.959949493408203,3.4789888858795166,-1.3942338228225708,0.9897723197937012
3831078971.0,-1.15901780128479,0.7246425151824951,10.29076099395752,3.3375985622406006,-1.7881296873092651,0.9633897542953492
3831087304.0,-0.853746235370636,0.520253598690033,10.08153247833252,2.524782180786133,-1.847529053688049,0.8668497204780579
3831095637.0,-0.5775123238563538,0.0276721119880676,9.630602836608888,2.579263925552368,-1.661185622215271,0.913979947566986
3831103970.0,-0.612671971321106,0.1350720673799514,9.698371887207031,3.189420700073242,-0.9877105951309204,0.92509663105011
3831112303.0,-0.8818202614784241,0.4759746491909027,10.107258796691896,3.177971124649048,-0.5850803852081299,0.9170793890953064
3831120636.0,-1.2057373523712158,0.3277343213558197,10.137694358825684,2.682924747467041,-0.6520616412162781,0.9237902760505676
3831128969.0,-1.3438286781311035,-0.033354103565216,9.93120002746582,2.7673492431640625,-0.9479572772979736,0.8614963889122009
3831137302.0,-1.332040548324585,0.1844818592071533,9.935248374938965,3.336855888366699,-1.3491274118423462,0.9216641187667848
3831145635.0,-1.1866095066070557,0.698074460029602,10.187514305114746,3.4322688579559326,-1.6824196577072144,0.8598825931549072
3831153968.0,-0.9283084869384766,0.569658637046814,10.141593933105469,2.6989591121673584,-1.848451375961304,0.7393677234649658
3831162301.0,-0.6135521531105042,-0.110821321606636,9.652502059936523,2.329140901565552,-1.6991972923278809,0.8305031657218933
3831170634.0,-0.5521716475486755,-0.1778532117605209,9.579031944274902,3.195952177047729,-1.1522306203842163,0.9609307646751404
3831178967.0,-0.7919008731842041,0.5371565222740173,10.04566764831543,3.58193302154541,-0.6701452136039734,0.97573584318161
3831187300.0,-1.0913711786270142,0.9126667380332948,10.369775772094728,2.965142250061035,-0.7381254434585571,0.9456135630607604
3831195633.0,-1.2182321548461914,0.2846579849720001,10.026155471801758,2.363489389419556,-0.9845343232154846,0.9102402329444884
3831203966.0,-1.2217748165130615,-0.3085789382457733,9.655213356018066,2.619965076446533,-1.2415732145309448,0.9391844272613524
3831212299.0,-1.2157255411148071,0.0613250918686389,9.882040023803713,3.4813714027404785,-1.5097540616989136,1.0526809692382812
3831220632.0,-1.0914369821548462,0.6736552119255066,10.291641235351562,3.4254813194274902,-1.6460219621658323,0.9350347518920898
3831228965.0,-0.852718710899353,0.5829519033432007,10.15510082244873,2.77234411239624,-1.788642168045044,0.9019157886505128
3831237298.0,-0.5704043507575989,0.0760191082954406,9.67529582977295,2.552753210067749,-1.5771197080612185,0.933037042617798
3831245631.0,-0.5766738057136536,0.0679028183221817,9.641517639160156,3.1981804370880127,-1.1114271879196167,0.9162338972091676
3831253964.0,-0.8266471028327942,0.4467053711414337,9.991313934326172,3.415722131729126,-0.5057018399238586,0.9369558691978456
3831262297.0,-1.1806352138519287,0.4131010770797729,10.172263145446776,2.806820869445801,-0.5522685050964355,0.9474321007728576
3831270630.0,-1.294957399368286,0.0080379983410239,9.941115379333496,2.7286972999572754,-0.956230640411377,0.9331650137901306
3831278963.0,-1.312977910041809,0.0862749367952346,9.915542602539062,3.2332208156585693,-1.475046992301941,0.9984300136566162
3831287296.0,-1.23024582862854,0.6532819867134094,10.191323280334473,3.458498001098633,-1.6428202390670776,0.9332674741744996
3831295629.0,-0.9859870672225952,0.6997262239456177,10.227144241333008,2.7592806816101074,-1.7722491025924685,0.9144667387008668
3831303962.0,-0.6861072778701782,0.0415915437042713,9.74882698059082,2.199532985687256,-1.6651815176010132,0.9275811314582824
3831312295.0,-0.559836745262146,-0.2440920025110244,9.463314056396484,3.048491239547729,-1.286270260810852,0.9571145176887512
3831320628.0,-0.7691338658332825,0.4173305332660675,9.93299961090088,3.638489246368408,-0.7892513871192932,0.9834969639778136
3831328961.0,-1.078243613243103,0.9313937425613404,10.313274383544922,3.1719770431518555,-0.5487593412399292,0.8866751194000244
3831337294.0,-1.244323492050171,0.4595952928066253,10.1632080078125,2.355267286300659,-0.8394553065299988,0.9422837495803832
3831345627.0,-1.2643816471099854,-0.255536675453186,9.712020874023438,2.5239624977111816,-1.0768992900848389,1.0380040407180786
3831353960.0,-1.2820405960083008,-0.0610907226800918,9.82620334625244,3.409369945526123,-1.338984131813049,1.011160373687744
3831362293.0,-1.183315992355347,0.6298895478248596,10.186408996582031,3.548736810684204,-1.5924882888793943,0.8968183398246765
3831370626.0,-0.9738316535949708,0.6730454564094543,10.23052978515625,2.82802963256836,-1.897656202316284,0.9460233449935912
3831378959.0,-0.6070608496665955,0.1394077688455581,9.739643096923828,2.492175340652466,-1.7720695734024048,0.8031983375549316
3831387292.0,-0.5266144275665283,0.0195914451032876,9.606548309326172,3.005868673324585,-1.250333309173584,0.8958194255828857
3831395625.0,-0.7414329648017883,0.4031412303447723,9.951996803283691,3.3719475269317627,-0.7021629810333252,1.0841608047485352
3831403958.0,-1.0852140188217163,0.4744925498962402,10.209725379943848,2.806692600250244,-0.5776522159576416,0.9191282987594604
3831412291.0,-1.2908363342285156,0.0768559500575065,9.944607734680176,2.574602127075196,-0.891273021697998,0.9745064377784728
3831420624.0,-1.3502713441848757,0.0099187279120087,9.89112663269043,3.012810468673706,-1.2605278491973877,0.9819346070289612
3831428957.0,-1.2564574480056765,0.5502784252166748,10.10045337677002,3.35020112991333,-1.5599581003189087,0.8736886978149414
3831437290.0,-1.0375514030456543,0.7346325516700745,10.187546730041504,2.9979543685913086,-1.727680206298828,0.9067568182945251
3831445623.0,-0.7095515727996826,0.1598798036575317,9.840935707092283,2.4737586975097656,-1.8887168169021609,0.869488000869751
3831453956.0,-0.5354920625686646,-0.2452007681131363,9.510473251342772,2.82485294342041,-1.4022767543792725,0.9351628422737122
3831462289.0,-0.6608463525772095,0.2765344679355621,9.846243858337402,3.499403953552246,-1.051771640777588,0.9761713147163392
3831470622.0,-0.9865226745605468,0.8602874875068665,10.28566551208496,3.3321940898895264,-0.6882288455963135,0.904707670211792
3831478955.0,-1.187685251235962,0.601325273513794,10.206177711486816,2.4074947834014893,-0.8798745274543762,0.875994086265564
3831487288.0,-1.2336368560791016,-0.1393121629953384,9.778719902038574,2.42422103881836,-1.1423181295394895,0.9123663306236268
3831495621.0,-1.2406284809112549,-0.130909115076065,9.7376708984375,3.160707235336304,-1.3118844032287598,0.9188466668128968
3831503954.0,-1.1884050369262695,0.5286645293235779,10.122621536254885,3.562542676925659,-1.543513536453247,1.0692533254623413
3831512287.0,-1.0119435787200928,0.7008413672447205,10.243012428283691,2.855231523513794,-1.7352874279022217,0.9235340356826782
3831520620.0,-0.6767672300338745,0.2075200825929641,9.846221923828123,2.433518886566162,-1.843738317489624,0.9159266948699952
3831528953.0,-0.5202991366386414,-0.0406448692083358,9.593374252319336,2.9453940391540527,-1.3124991655349731,0.9243537187576294
3831537286.0,-0.6819608807563782,0.3301591575145721,9.862699508666992,3.180250883102417,-0.6950935125350952,0.9113929271697998
3831545619.0,-1.042445421218872,0.5070375204086304,10.14448356628418,2.8941650390625,-0.4663071036338806,0.8657740354537964
3831553952.0,-1.2252657413482666,0.1132158637046814,9.977824211120604,2.4377963542938232,-0.765430212020874,0.9107268452644348
3831562285.0,-1.3227903842926023,-0.0318751707673072,9.839072227478027,3.046595811843872,-1.128127932548523,0.9927182793617249
3831570618.0,-1.297555923461914,0.4374252259731293,10.093174934387209,3.459906578063965,-1.350766658782959,0.9183343052864076
3831578951.0,-1.1203933954238892,0.7159559726715088,10.21688461303711,3.085861921310425,-1.7515013217926023,0.8754560947418213
3831587284.0,-0.8151180148124695,0.2385082095861435,9.91134262084961,2.4201736450195312,-1.8586201667785645,0.9330881834030152
3831595617.0,-0.5805839896202087,-0.2849713265895843,9.519028663635254,2.82206130027771,-1.4550166130065918,0.9104196429252625
3831603950.0,-0.6602808237075806,0.1534291207790374,9.77103042602539,3.616050720214844,-1.0164240598678589,1.070457100868225
3831612283.0,-0.9583946466445924,0.8359188437461853,10.258339881896973,3.5252485275268555,-0.6248591542243958,1.0160014629364014
3831620616.0,-1.184248447418213,0.6748323440551758,10.288981437683104,2.510361433029175,-0.7137662768363953,0.9139798283576964
3831628949.0,-1.232113480567932,-0.0883097946643829,9.810803413391112,2.3739402294158936,-1.1096343994140625,0.93577778339386
3831637282.0,-1.256171464920044,-0.1967563927173614,9.729716300964355,3.156865119934082,-1.3114744424819946,0.9470223784446716
3831645615.0,-1.2277674674987793,0.4269495904445648,10.114811897277832,3.634057283401489,-1.4711532592773438,1.0099050998687744
3831653948.0,-1.054011344909668,0.7561720609664917,10.298975944519045,2.953180313110352,-1.571663737297058,0.8765830993652344
3831662281.0,-0.712031900882721,0.3301825225353241,9.90442180633545,2.501986026763916,-1.782008171081543,0.9313464760780334
3831670614.0,-0.5382325053215027,0.0101828444749116,9.574909210205078,2.8660664558410645,-1.4945138692855835,0.9878258109092712
3831678947.0,-0.654588520526886,0.2827512323856354,9.806328773498535,3.2455670833587646,-0.8193994760513306,0.9548603296279908
3831687280.0,-1.0050432682037354,0.4935096800327301,10.108059883117676,3.007354736328125,-0.5443282127380371,1.0021185874938965
3831695613.0,-1.247588872909546,0.1878726929426193,10.053038597106934,2.572911500930786,-0.7926068902015686,0.8530437350273132
3831703946.0,-1.3200020790100098,-0.0138582373037934,9.885458946228027,2.838710308074951,-1.2300723791122437,0.998686134815216
3831712279.0,-1.2766364812850952,0.4451714754104614,10.058074951171877,3.417182207107544,-1.5076282024383545,0.8896719813346863
3831720612.0,-1.0936464071273804,0.8064465522766113,10.239651679992676,3.0730297565460205,-1.7198679447174072,0.8852152228355408
3831728945.0,-0.7774524688720703,0.3743338882923126,9.967787742614746,2.470531463623047,-1.858773946762085,0.8309130668640137
3831737278.0,-0.5406589508056641,-0.2134536355733871,9.501569747924805,2.61735200881958,-1.4848827123641968,1.0263751745224
3831745611.0,-0.5998605489730835,0.0816590189933776,9.643722534179688,3.602756977081299,-0.9527214169502258,1.0161038637161257
3831753944.0,-0.9185526967048644,0.8222370147705078,10.201327323913574,3.49338436126709,-0.6898938417434692,0.8471011519432068
3831762277.0,-1.1990095376968384,0.8066559433937073,10.329501152038574,2.5474510192871094,-0.6943762898445129,0.9141336679458618
3831770610.0,-1.2363595962524414,0.0135807674378156,9.852479934692385,2.1877245903015137,-1.044650912284851,0.9824723601341248
3831778943.0,-1.240496039390564,-0.27333664894104,9.672358512878418,2.9876062870025635,-1.256429672241211,0.9718169569969176
3831787276.0,-1.1973859071731567,0.3551972806453705,10.026290893554688,3.573531150817871,-1.4402114152908323,0.901889979839325
3831795609.0,-1.0836011171340942,0.8125030398368835,10.310243606567385,3.1849124431610107,-1.6776299476623535,0.929245948791504
3831803942.0,-0.7490129470825195,0.460913598537445,9.995808601379396,2.496068954467773,-1.9319026470184328,0.8391607403755188
3831812275.0,-0.5245610475540161,-0.0261831451207399,9.592838287353516,2.545555591583252,-1.482347011566162,0.8838063478469849
3831820608.0,-0.6232271790504456,0.1612782776355743,9.758103370666504,3.2329137325286865,-0.8763911128044128,0.8851383924484253
3831828941.0,-0.9629565477371216,0.4935563504695892,10.119393348693848,3.140471935272217,-0.510671079158783,0.9979434609413148
3831837274.0,-1.2583870887756348,0.2711245417594909,10.112126350402832,2.645066738128662,-0.6277536153793335,0.9386976957321168
3831845607.0,-1.3300830125808716,0.0130213554948568,9.906601905822754,2.8062572479248047,-1.1304843425750732,0.9661561846733092
3831853940.0,-1.315682888031006,0.3302910923957824,10.019804954528809,3.31984806060791,-1.3145993947982788,0.9999412894248962
3831862273.0,-1.108718752861023,0.7087494730949402,10.20913028717041,3.0593769550323486,-1.7105441093444824,0.8526594042778015
3831870606.0,-0.8234516978263855,0.3582617938518524,9.973612785339355,2.4717607498168945,-1.8575443029403689,0.820974588394165
3831878939.0,-0.5629035234451294,-0.2446660548448562,9.559837341308594,2.526754856109619,-1.4579623937606812,0.9314489364624025
3831887272.0,-0.6125408411026001,-0.0235075578093528,9.64329719543457,3.399354696273804,-0.9832279682159424,1.01215922832489
3831895605.0,-0.9240880012512208,0.7491251230239868,10.191272735595703,3.539336442947388,-0.658798098564148,0.9875183701515198
3831903938.0,-1.195282816886902,0.8377566933631897,10.364048957824709,2.6743438243865967,-0.6783930063247681,0.8902867436408997
3831912271.0,-1.2498908042907717,0.0702910497784614,9.95118808746338,2.1534016132354736,-1.0753369331359863,0.8924640417098999
3831920604.0,-1.2578736543655396,-0.3830813467502594,9.669495582580566,2.9210093021392822,-1.2336329221725464,0.8832428455352783
3831928937.0,-1.2246654033660889,0.1694747358560562,9.964277267456056,3.538951873779297,-1.5629292726516724,1.0128507614135742
3831937270.0,-1.1010231971740725,0.7327301502227783,10.33937168121338,3.2695417404174805,-1.74094820022583,0.8891341090202332
3831945603.0,-0.7816142439842224,0.5274035930633545,10.09758758544922,2.5796990394592285,-1.7985546588897705,0.92770916223526
3831953936.0,-0.5475088357925415,0.0547239668667316,9.647038459777832,2.658104419708252,-1.5025566816329956,0.8535815477371216
3831962269.0,-0.6100897192955017,0.1506739109754562,9.733441352844238,3.0798685550689697,-0.9813326597213744,0.9628007411956788
3831970602.0,-0.905015766620636,0.4328883290290832,10.036236763000488,3.2542245388031006,-0.5859255790710449,0.9902591109275818
3831978935.0,-1.1986899375915527,0.2417505085468292,10.128673553466797,2.743835210800171,-0.599245011806488,0.908549666404724
3831987268.0,-1.328063726425171,-0.0199898425489664,9.902710914611816,2.914349317550659,-1.054922342300415,0.9528366923332214
3831995601.0,-1.3344944715499878,0.2924693822860718,10.003992080688477,3.367003917694092,-1.3324010372161863,0.9222789406776428
3832003934.0,-1.1938480138778689,0.743750810623169,10.25416088104248,3.3520190715789795,-1.6787567138671875,0.8471266627311707
3832012267.0,-0.905129611492157,0.4869849979877472,10.015031814575195,2.588484764099121,-1.7796001434326172,0.9070128202438354
3832020600.0,-0.597938060760498,-0.1606830060482025,9.61402416229248,2.516944408416748,-1.5989173650741575,0.9084215760231018
3832028933.0,-0.5647305250167847,-0.0872805044054985,9.607259750366213,3.2805047035217285,-1.2572746276855469,0.9928974509239196
3832037266.0,-0.7904170751571655,0.6209940314292908,10.089239120483398,3.668790817260742,-0.5861304998397827,0.9206396341323853
3832045599.0,-1.0876208543777466,0.8938902020454407,10.333189010620115,3.004127025604248,-0.638306736946106,0.9263003468513488
3832053932.0,-1.1948152780532837,0.2166437655687332,9.981980323791504,2.288772821426392,-0.8115870356559753,0.8678231239318848
3832062265.0,-1.2434813976287842,-0.2667796313762665,9.697308540344238,2.761662483215332,-1.0057941675186155,0.9662074446678162
3832070598.0,-1.2870540618896484,0.1834910660982132,9.946314811706545,3.5554986000061035,-1.2490524053573608,0.9087801575660706
3832078931.0,-1.1901755332946775,0.7591013312339783,10.294438362121582,3.377326488494873,-1.649069905281067,0.9700493812561036
3832087264.0,-0.862144947052002,0.5805752873420715,10.099627494812012,2.5730137825012207,-1.9113341569900515,0.8903892040252686
3832095597.0,-0.5556083917617798,0.0600918196141719,9.634248733520508,2.38106107711792,-1.6566519737243652,0.8610609769821167
3832103930.0,-0.5302653312683105,0.1312455087900161,9.667548179626465,3.057020425796509,-0.9656566381454468,0.9143385291099548
3832112263.0,-0.8234953284263611,0.4250034391880035,10.03517723083496,3.238856554031372,-0.5983741879463196,0.9312952160835266
3832120596.0,-1.1807854175567627,0.3445986807346344,10.133309364318848,2.740377426147461,-0.5813406705856323,0.9927181601524352
3832128929.0,-1.3582978248596191,0.0882269069552421,9.958540916442873,2.750136375427246,-0.913659691810608,0.9647216200828552
3832137262.0,-1.348833680152893,0.3279472291469574,10.041913032531738,3.3339099884033203,-1.3634967803955078,0.9326526522636414
3832145595.0,-1.1793406009674072,0.6987321972846985,10.175098419189451,3.1139094829559326,-1.736517071723938,0.8456155061721802
3832153928.0,-0.8820919394493103,0.4473839402198791,10.018980026245115,2.547937631607056,-1.9192746877670288,0.9077813625335692
3832162261.0,-0.5721991658210754,-0.1466274112462997,9.600253105163574,2.56402325630188,-1.5863406658172607,0.9224326610565186
3832170594.0,-0.568253219127655,-0.0897150039672851,9.649347305297852,3.250971794128418,-0.9709332585334778,1.025760531425476
3832178927.0,-0.8715996146202087,0.6918220520019531,10.14317226409912,3.595867156982422,-0.6184300184249878,1.0671274662017822
3832187260.0,-1.1839399337768557,0.9399092197418212,10.443342208862305,2.785560846328736,-0.7166863083839417,0.9304755330085754
3832195593.0,-1.2543151378631592,0.2162145674228668,9.99083423614502,2.047410011291504,-0.9389411211013794,0.9456135630607604
3832203926.0,-1.2290157079696655,-0.3592753410339355,9.659658432006836,2.6504456996917725,-1.1979265213012695,0.8685914874076843
3832212259.0,-1.1809909343719482,0.0473381578922271,9.897911071777344,3.558572769165039,-1.5320899486541748,0.9046050906181335
3832220592.0,-1.0905776023864746,0.7060185074806213,10.29207992553711,3.4107017517089844,-1.753243088722229,0.8746107816696167
3832228925.0,-0.8223814368247986,0.6457722783088684,10.10304069519043,2.610257148742676,-1.911026954650879,0.8905428647994995
3832237258.0,-0.5906943082809448,0.1356662064790725,9.679834365844728,2.511462926864624,-1.5060659646987915,1.0226099491119385
3832245591.0,-0.6471162438392639,0.0898635312914848,9.663735389709473,3.0331737995147705,-0.8668369054794312,1.0226868391036987
3832253924.0,-0.9508917331695556,0.3240334391593933,10.020505905151367,3.1924691200256348,-0.5860024690628052,0.9323197603225708
3832262257.0,-1.2576613426208496,0.2349631190299987,10.098979949951172,2.751237869262696,-0.6512163281440735,0.9080118536949158
3832270590.0,-1.3318411111831665,0.0013598352670669,9.959542274475098,2.855513334274292,-1.1974143981933594,0.980576992034912
3832278923.0,-1.2667787075042725,0.2435319423675537,9.990264892578123,3.2943360805511475,-1.43864905834198,0.9810891151428224
3832287256.0,-1.0965858697891235,0.7121164202690125,10.1896390914917,3.2417755126953125,-1.7739392518997192,0.9033755660057068
3832295589.0,-0.811506450176239,0.4842182695865631,10.028350830078123,2.5577988624572754,-1.8872824907302856,0.9540406465530396
3832303922.0,-0.5306318998336792,-0.1847814321517944,9.59026050567627,2.4180476665496826,-1.5282477140426636,0.8594984412193298
3832312255.0,-0.5743904113769531,-0.1908026933670044,9.571084976196287,3.196797609329224,-0.9961888790130616,0.9417458772659302
3832320588.0,-0.9031941890716552,0.5599663257598877,10.078158378601074,3.6879498958587646,-0.5697630047798157,1.0526553392410278
3832328921.0,-1.2214412689208984,0.9045360088348388,10.370930671691896,2.9384264945983887,-0.6280097961425781,0.9637227058410645
3832337254.0,-1.3221900463104248,0.2647256553173065,10.04360008239746,2.279449224472046,-1.020419955253601,0.9240463972091676
3832345587.0,-1.2446554899215698,-0.2967711091041565,9.675944328308104,2.631030321121216,-1.4269691705703735,0.9395430088043212
3832353920.0,-1.1847676038742063,0.0393357276916503,9.880962371826172,3.460444450378418,-1.4906460046768188,0.9960222840309144
3832362253.0,-1.0405725240707395,0.6669164896011353,10.215978622436523,3.403273820877075,-1.7615677118301392,0.9593938589096068
3832370586.0,-0.7714000344276428,0.6159037351608276,10.084342956542969,2.702775239944458,-1.8907146453857424,0.923892617225647
3832378919.0,-0.5254128575325012,0.1097485572099685,9.667316436767578,2.632464408874512,-1.4726903438568115,0.9295533299446106
3832387252.0,-0.5673767328262329,0.0863442569971084,9.646453857421877,3.144749641418457,-0.8512891530990601,1.0540387630462646
3832395585.0,-0.9171423316001892,0.4254758954048157,9.997416496276855,3.1818642616271973,-0.4357237815856933,1.0201765298843384
3832403918.0,-1.295430064201355,0.3735098838806152,10.184544563293455,2.783025026321411,-0.4986066818237304,0.8451032042503357
3832412251.0,-1.4039586782455444,-0.0014843039680272,9.984328269958496,2.7566936016082764,-1.0316646099090576,0.9145946502685548
3832420584.0,-1.322258472442627,0.1550037562847137,9.969351768493652,3.3704617023468018,-1.511188507080078,0.8270195722579956
3832428917.0,-1.139643669128418,0.7220774292945862,10.16549587249756,3.401250123977661,-1.7209692001342771,0.8766087293624878
3832437250.0,-0.8544076681137085,0.6378777623176575,10.132084846496582,2.75769305229187,-1.8677902221679688,0.8437201380729675
3832445583.0,-0.5746685862541199,-0.0028080674819648,9.67856216430664,2.296482801437378,-1.532986402511597,0.9031451344490052
3832453916.0,-0.5721184611320496,-0.1837245672941208,9.535893440246582,3.0752837657928467,-1.1520260572433472,0.935726523399353
3832462249.0,-0.8346356153488159,0.4944871068000793,10.02209186553955,3.6729657649993896,-0.6155612468719482,0.9715862274169922
3832470582.0,-1.176274061203003,0.9669988751411438,10.402713775634766,3.036119222640991,-0.5850290656089783,0.9937939047813416
3832478915.0,-1.3134076595306396,0.3922886252403259,10.153644561767578,2.2701001167297363,-1.0224690437316897,0.957293689250946
3832487248.0,-1.2777711153030396,-0.2803329825401306,9.678205490112305,2.44970703125,-1.344670653343201,0.9973543882369996
3832495581.0,-1.2089098691940308,0.0094638839364051,9.811164855957031,3.5131325721740723,-1.3905709981918335,1.0343154668807983
3832503914.0,-1.0690317153930664,0.7216137647628784,10.25950050354004,3.534316062927246,-1.5872116088867188,0.8561429977416992
3832512247.0,-0.868427038192749,0.7409201860427856,10.222504615783691,2.651342391967773,-1.8626160621643064,0.8882633447647095
3832520580.0,-0.579269289970398,0.1136529371142387,9.693549156188965,2.4164600372314453,-1.6006848812103271,0.8938215970993042
3832528913.0,-0.5816158652305603,-0.017085026949644,9.604528427124023,3.037118434906006,-1.0234423875808716,0.958343744277954
3832537246.0,-0.8747181296348572,0.3887363076210022,10.019085884094238,3.3117287158966064,-0.5861049890518188,0.9739685654640198
3832545579.0,-1.2237176895141602,0.5218361616134644,10.20071792602539,2.919651746749878,-0.6572612524032593,0.9431289434432985
3832553912.0,-1.3477436304092407,0.112186461687088,10.022113800048828,2.651726722717285,-1.1242856979370115,0.9287850260734558
3832562245.0,-1.2953227758407593,0.0507955439388752,9.880237579345703,3.162295341491699,-1.3337334394454956,0.9804489016532898
3832570578.0,-1.158661127090454,0.5635102391242981,10.108480453491213,3.358294486999512,-1.661723256111145,0.9206395149230956
3832578911.0,-0.92072594165802,0.6683492660522461,10.10165309906006,2.8329217433929443,-1.718254327774048,0.8084237575531006
3832587244.0,-0.6383398175239563,0.0952970087528228,9.75779628753662,2.2859294414520264,-1.7282180786132812,0.9712790846824646
3832595577.0,-0.5602051019668579,-0.2458690702915191,9.534791946411133,2.8210623264312744,-1.1997195482254028,0.9455879330635072
3832603910.0,-0.7979205250740051,0.3516521155834198,9.906271934509276,3.605139017105103,-0.7265989184379578,1.0296791791915894
3832612243.0,-1.0991712808609009,0.8944551348686218,10.328145027160645,3.255864143371582,-0.6201719641685486,0.9804746508598328
3832620576.0,-1.2816522121429443,0.4856294989585876,10.193632125854492,2.2726616859436035,-0.8706023097038269,0.9603673815727234
3832628909.0,-1.2370346784591677,-0.2846779227256775,9.714138984680176,2.3814961910247803,-1.261910915374756,0.9113671779632568
3832637242.0,-1.1804128885269165,-0.1908878535032272,9.732494354248049,3.2418015003204346,-1.4826799631118774,0.9526830315589904
3832645575.0,-1.099914789199829,0.5604167580604553,10.162635803222656,3.6308047771453857,-1.560572862625122,0.9194101691246032
3832653908.0,-0.9046643376350404,0.7612449526786804,10.250214576721191,2.904846429824829,-1.8954790830612185,0.8826281428337097
3832662241.0,-0.6024432182312012,0.1548658460378646,9.778657913208008,2.432929515838623,-1.693792462348938,0.8911064267158508
3832670574.0,-0.5773793458938599,-0.1738062798976898,9.517927169799805,2.925721883773804,-1.1535115242004397,1.0403605699539185
3832678907.0,-0.8376893401145935,0.2474914491176605,9.882064819335938,3.3924388885498047,-0.6763439178466797,1.006472945213318
3832687240.0,-1.195887565612793,0.5341922640800476,10.231982231140137,2.993958234786988,-0.4918701648712158,0.998045802116394
3832695573.0,-1.353384017944336,0.1692880988121032,10.082449913024902,2.6076700687408447,-0.9101505875587464,1.0134143829345703
3832703906.0,-1.2912365198135376,-0.08933025598526,9.811527252197266,2.981176853179932,-1.50819194316864,0.9271456599235536
3832712239.0,-1.1541483402252195,0.3593369424343109,10.00802230834961,3.454732179641724,-1.714565396308899,0.9407467246055604
3832720572.0,-0.9196990132331848,0.6879781484603882,10.171741485595703,3.256222009658813,-1.6819074153900146,0.9540660977363586
3832728905.0,-0.6853622198104858,0.3123503625392914,9.898470878601074,2.5464775562286377,-1.6682807207107544,0.8219223022460938
3832737238.0,-0.593391478061676,-0.2080143839120865,9.589247703552246,2.650343418121338,-1.3609610795974731,0.8662605881690979
3832745571.0,-0.7689738273620605,0.1672379970550537,9.786282539367676,3.5665383338928223,-0.7799277305603027,0.9656692147254944
3832753904.0,-1.0787603855133057,0.8242778182029724,10.26963996887207,3.508753061294556,-0.7099241018295288,0.9727902412414552
3832762237.0,-1.282537817955017,0.6658879518508911,10.245570182800291,2.565765380859375,-0.733335554599762,0.9295020699501038
3832770570.0,-1.25274395942688,-0.0896817296743393,9.81053066253662,2.310544729232788,-1.213832974433899,0.953374683856964
3832778903.0,-1.1819108724594116,-0.1689254641532898,9.732011795043944,3.2626256942749023,-1.5459470748901367,0.944230318069458
3832787236.0,-1.0741839408874512,0.5108187198638916,10.085681915283203,3.592665433883667,-1.632318377494812,0.8530692458152771
3832795569.0,-0.943233072757721,0.86070317029953,10.296222686767578,3.0069446563720703,-1.7327260971069336,0.973072111606598
3832803902.0,-0.6570160984992981,0.3501845002174377,9.895869255065918,2.3669216632843018,-1.7023732662200928,1.0563693046569824
3832812235.0,-0.5830925703048706,-0.0799494832754135,9.54968547821045,2.7428107261657715,-1.1474665403366089,0.9485334753990172
3832820568.0,-0.8002201914787292,0.2579403221607208,9.846515655517578,3.350636482238769,-0.7655326128005981,0.8949997425079346
3832828901.0,-1.1409077644348145,0.6338425278663635,10.252971649169922,3.192699432373047,-0.5522686243057251,0.968768835067749
3832837234.0,-1.322194218635559,0.322656512260437,10.136234283447266,2.580006599426269,-0.928234338760376,0.9391074776649476
3832845567.0,-1.2717669010162354,-0.0301916040480136,9.855664253234863,2.951489925384521,-1.2916491031646729,0.9409005045890808
3832853900.0,-1.1525336503982544,0.3009003102779388,9.957813262939451,3.43208909034729,-1.552478551864624,0.9887222051620485
3832862233.0,-0.9938116073608398,0.8076822757720947,10.167527198791504,3.2583224773406982,-1.610623121261597,0.915363073348999
3832870566.0,-0.7851582765579224,0.5233592391014099,10.01066780090332,2.4423046112060547,-1.6040401458740234,0.7798381447792053
3832878899.0,-0.615725576877594,-0.1340560317039489,9.562507629394531,2.3497860431671143,-1.3662890195846558,0.885496973991394
3832887232.0,-0.7513919472694397,-0.0078142788261175,9.676494598388672,3.348203182220459,-0.8710633516311646,1.035186529159546
3832895565.0,-1.021321415901184,0.7130750417709351,10.177417755126951,3.477580070495605,-0.61763596534729,0.959803819656372
3832903898.0,-1.2505438327789309,0.8419597744941711,10.363893508911133,2.632208585739136,-0.8496753573417664,0.9142873287200928
3832912231.0,-1.247529149055481,0.0988661050796508,9.965553283691406,2.221356153488159,-1.153101682662964,0.9878769516944884
3832920564.0,-1.152801752090454,-0.2499502897262573,9.68163013458252,2.786790370941162,-1.5088320970535278,0.9274274110794068
3832928897.0,-1.0522115230560305,0.2609393298625946,9.944421768188477,3.459573745727539,-1.5654908418655396,1.067229986190796
3832937230.0,-0.9567526578903198,0.7450180649757385,10.248065948486328,3.253225326538086,-1.554784059524536,0.8229981660842896
3832945563.0,-0.7260406017303467,0.4197448194026947,10.02322006225586,2.4931232929229736,-1.6211762428283691,0.839237630367279
3832953896.0,-0.6184126734733582,-0.1184655651450157,9.58180046081543,2.542686462402344,-1.3736401796340942,1.0195361375808716
3832962229.0,-0.7718543410301208,0.0879923328757286,9.777066230773926,3.297102928161621,-0.8499572277069092,1.015233039855957
3832970562.0,-1.080047845840454,0.5252732038497925,10.167975425720217,3.143315076828003,-0.6387934684753418,0.9756590127944946
3832978895.0,-1.3047622442245483,0.329658955335617,10.15071964263916,2.6738829612731934,-0.8935270309448242,0.9112648367881776
3832987228.0,-1.2507693767547607,-0.1078578904271125,9.86087417602539,2.5982182025909424,-1.4198482036590576,0.8561941981315613
3832995561.0,-1.1322544813156128,0.0680833160877227,9.87651252746582,3.416874647140503,-1.6374155282974243,1.0019903182983398
3833003894.0,-1.000765323638916,0.6422702074050903,10.112510681152344,3.4202558994293213,-1.6417442560195925,1.0026050806045532
3833012227.0,-0.8089026808738708,0.5857560038566589,10.112847328186035,2.7013156414031982,-1.5875959396362305,0.9017620086669922
3833020560.0,-0.6182512044906616,-0.072215236723423,9.673362731933594,2.343203067779541,-1.4128812551498413,0.9127761125564576
3833028893.0,-0.704750657081604,-0.1868526935577392,9.614660263061523,3.200101852416992,-0.991450309753418,0.9975592494010924
3833037226.0,-0.9561845064163208,0.4841264486312866,10.082569122314451,3.621762990951538,-0.6778295040130615,1.0359036922454834
3833045559.0,-1.217709183692932,0.846024215221405,10.347404479980469,2.9616589546203613,-0.8025196194648743,0.99138605594635
3833053892.0,-1.245459794998169,0.2389335930347442,10.053515434265137,2.2861602306365967,-1.065629005432129,0.8618806600570679
3833062225.0,-1.1621695756912231,-0.3100999295711517,9.617599487304688,2.7078728675842285,-1.3596036434173584,0.8780432343482971
3833070558.0,-1.0929772853851318,0.088101141154766,9.864754676818848,3.411495447158813,-1.509446620941162,1.0347509384155271
3833078891.0,-1.0420151948928833,0.7323402762413025,10.266653060913086,3.4401326179504395,-1.5470229387283323,0.9989166855812072
3833087224.0,-0.8430706262588501,0.6316173076629639,10.120237350463867,2.6293399333953857,-1.655832290649414,0.8929763436317444
3833095557.0,-0.6548049449920654,0.0133552709594368,9.629456520080566,2.514639139175415,-1.3587583303451538,1.01105797290802
3833103890.0,-0.6885217428207397,0.0092256683856248,9.645334243774414,3.2320683002471924,-0.893296480178833,0.9370073080062866
3833112223.0,-0.9612439274787904,0.4920043647289276,10.040731430053713,3.351661205291748,-0.663203775882721,0.9884148240089417
3833120556.0,-1.2297067642211914,0.4765736758708954,10.21201515197754,2.812020778656006,-0.7786471843719482,0.8701796531677246
3833128889.0,-1.2572654485702517,0.0098331859335303,9.917312622070312,2.663329839706421,-1.1351971626281738,0.9316537380218506
3833137222.0,-1.2522165775299072,0.0959157049655914,9.834427833557127,3.310063362121582,-1.36160147190094,0.8962804675102234
3833145555.0,-1.1111942529678345,0.6938925385475159,10.142924308776855,3.4493279457092285,-1.652681589126587,0.937083899974823
3833153888.0,-0.9341575503349304,0.7829285860061646,10.183578491210938,2.7493679523468018,-1.7351340055465698,0.8264816999435425
3833162221.0,-0.6638158559799194,0.0901998579502105,9.710308074951172,2.338695287704468,-1.5810387134552002,0.8203855752944946
3833170554.0,-0.6044941544532776,-0.229767233133316,9.47679042816162,3.117162704467773,-1.126206636428833,0.993537664413452
3833178887.0,-0.8678621053695679,0.4147839844226837,9.934281349182127,3.718609809875488,-0.61671382188797,0.9924617409706116
3833187220.0,-1.1488674879074097,1.0149024724960327,10.389344215393066,3.198385715484619,-0.721271276473999,0.9626470804214478
3833195553.0,-1.2923067808151243,0.5680469870567322,10.19658088684082,2.346712350845337,-0.9760561585426332,0.8252265453338623
3833203886.0,-1.201271414756775,-0.2085751295089721,9.733200073242188,2.482902765274048,-1.4365997314453125,0.8757890462875366
3833212219.0,-1.1574809551239014,-0.071750983595848,9.761716842651367,3.376455545425415,-1.3235900402069092,0.9429239630699158
3833220552.0,-1.0588008165359497,0.6351797580718994,10.163625717163086,3.471356153488159,-1.5021978616714478,0.8437712788581848
3833228885.0,-0.8906358480453491,0.7815196514129639,10.25461196899414,2.781052827835083,-1.6964309215545654,0.877121090888977
3833237218.0,-0.6372001767158508,0.1924740225076675,9.81833553314209,2.320124626159668,-1.6435374021530151,0.8643396496772766
3833245551.0,-0.6427540183067322,-0.0114211840555071,9.648228645324709,2.8830740451812744,-1.1205716133117676,1.0447916984558103
3833253884.0,-0.855187714099884,0.4117388725280761,9.993163108825684,3.20133113861084,-0.7679916024208069,1.042922019958496
3833262217.0,-1.157383680343628,0.5699796080589294,10.226458549499512,2.8354318141937256,-0.5787792801856995,0.9818832278251648
3833270550.0,-1.2744895219802856,0.0633038505911827,9.972201347351074,2.408980369567871,-0.9525678753852844,0.9696909189224244
3833278883.0,-1.2446774244308472,-0.0955118387937545,9.785767555236816,3.010453939437866,-1.3198503255844116,1.0010939836502075
3833287216.0,-1.1623365879058838,0.4587688744068146,10.048162460327148,3.608007669448853,-1.6432042121887207,0.9620577692985536
3833295549.0,-1.0084071159362793,0.8301220536231995,10.251214027404783,2.939861297607422,-1.617615818977356,0.926121175289154
3833303882.0,-0.7714234590530396,0.2994383573532104,9.887588500976562,2.2084977626800537,-1.7054980993270874,0.8513274788856506
3833312215.0,-0.6291634440422058,-0.3679993450641632,9.509953498840332,2.68807315826416,-1.230405569076538,1.0380297899246216
3833320548.0,-0.7446863651275635,0.0258240327239036,9.754929542541504,3.5093677043914795,-0.8785682320594788,0.946305215358734
3833328881.0,-1.0271117687225342,0.7959578633308411,10.28221607208252,3.531702995300293,-0.6924806833267212,0.9755308628082277
3833337214.0,-1.2009482383728027,0.711066722869873,10.318918228149414,2.561564445495605,-0.8023659586906433,0.8801435828208923
3833345547.0,-1.2198996543884275,-0.1208199635148048,9.80754566192627,2.1708192825317383,-1.116806149482727,0.9882867336273192
3833353880.0,-1.1479426622390747,-0.3399441242218017,9.610679626464844,3.002795457839966,-1.4264311790466309,0.945101261138916
3833362213.0,-1.1130528450012207,0.3594089448451996,9.998408317565918,3.6349284648895264,-1.4092949628829956,0.8687194585800171
3833370546.0,-1.0368410348892212,0.8147897124290466,10.319462776184082,3.0912926197052,-1.5473047494888306,0.9752236008644104
3833378879.0,-0.7686370611190796,0.2852813303470611,9.924966812133787,2.425322294235229,-1.6752479076385498,0.8598313927650452
3833387212.0,-0.5874702334403992,-0.2129127383232116,9.55117130279541,2.6848456859588623,-1.3874461650848389,0.916490077972412
3833395545.0,-0.7132242321968079,0.1439940184354782,9.734905242919922,3.5097007751464844,-0.8776973485946655,0.9612381458282472
3833403878.0,-1.019631266593933,0.6282832026481628,10.165716171264648,3.2064802646636963,-0.5212753415107727,0.9695372581481934
3833412211.0,-1.285423994064331,0.3425945341587066,10.137853622436523,2.5293161869049072,-0.8991621732711792,0.9370840191841124
3833420544.0,-1.294916749000549,-0.1432937085628509,9.81882381439209,2.7505459785461426,-1.2571467161178589,0.9309365749359132
3833428877.0,-1.1789565086364746,0.1463130712509155,9.878409385681152,3.479347944259644,-1.5248152017593384,0.9937682151794434
3833437210.0,-1.0091516971588137,0.7274474501609802,10.186919212341309,3.3693602085113525,-1.6203564405441284,0.9275298714637756
3833445543.0,-0.8102124333381653,0.594771683216095,10.10312843322754,2.631516695022583,-1.6046549081802368,0.9190515875816344
3833453876.0,-0.580038845539093,-0.1173783764243125,9.66777801513672,2.382469415664673,-1.3353980779647827,0.9386208057403564
3833462209.0,-0.6498043537139893,-0.1363898366689682,9.57114601135254,3.192648410797119,-0.8937064409255981,1.002989649772644
3833470542.0,-0.9242902994155884,0.6422784328460693,10.10252857208252,3.741202116012573,-0.5261163711547852,1.006677746772766
3833478875.0,-1.2074910402297974,0.9827359318733216,10.42567539215088,2.9727749824523926,-0.7019068598747253,0.9684869050979614
3833487208.0,-1.278963923454285,0.2373168617486953,10.056819915771484,2.16162371635437,-1.0434468984603882,0.91374933719635
3833495541.0,-1.1903196573257446,-0.3744334280490875,9.617634773254396,2.6209638118743896,-1.3105778694152832,0.920024871826172
3833503874.0,-1.1268640756607056,0.1032583937048912,9.87826442718506,3.6836726665496826,-1.4636486768722534,0.90457946062088
3833512207.0,-1.020524501800537,0.8807106018066406,10.308692932128906,3.4692301750183105,-1.592052698135376,0.916797399520874
3833520540.0,-0.8443455100059509,0.7317461967468262,10.224525451660156,2.565150260925293,-1.606678485870361,0.8493552207946777
3833528873.0,-0.6164764761924744,-0.0455924980342388,9.659064292907717,2.3598010540008545,-1.4545812606811523,1.045867681503296
3833537206.0,-0.6450422406196594,-0.0620100758969783,9.563780784606934,3.181172609329224,-0.9958558082580566,0.9579084515571594
3833545539.0,-0.9169410467147828,0.5534249544143677,10.06521987915039,3.4591639041900635,-0.5343641042709351,0.9385696053504944
3833553872.0,-1.2153211832046509,0.663935124874115,10.25674057006836,2.80989408493042,-0.6673020124435425,0.9574472904205322
3833562205.0,-1.2976893186569214,0.0751938447356224,9.968725204467772,2.5087990760803223,-1.1568411588668823,0.873022735118866
3833570538.0,-1.2110451459884644,-0.0885268375277519,9.800853729248049,3.0484399795532227,-1.4696424007415771,1.0151561498641968
3833578871.0,-1.1253619194030762,0.552462100982666,10.061089515686035,3.4943835735321045,-1.5540155172348022,0.9850850105285645
3833587204.0,-0.966262936592102,0.809421718120575,10.245031356811523,2.898801565170288,-1.6456891298294067,0.8414148688316345
3833595537.0,-0.7565988302230835,0.2096646428108215,9.837772369384766,2.330268144607544,-1.475328803062439,0.8517886400222778
3833603870.0,-0.646429717540741,-0.2814966142177582,9.519363403320312,2.80725622177124,-1.4053505659103394,0.9655413627624512
3833612203.0,-0.7802355289459229,0.252810388803482,9.8187255859375,3.5861332416534424,-0.980973780155182,1.0069594383239746
3833620536.0,-1.0244189500808716,0.9096308350563048,10.307353019714355,3.2491531372070312,-0.7125368118286133,0.9611358046531676
3833628869.0,-1.1687357425689695,0.5544378161430359,10.221116065979004,2.361158609390259,-0.8556434512138367,0.9659000635147096
3833637202.0,-1.1983784437179563,-0.2205513417720794,9.729498863220217,2.2100090980529785,-1.1969788074493408,0.9701007604599
3833645535.0,-1.2266862392425537,-0.2115333676338195,9.691099166870115,3.201177835464477,-1.2737960815429688,1.0707135200500488
3833653868.0,-1.1924389600753784,0.5505842566490173,10.129159927368164,3.659057855606079,-1.4829617738723757,0.9783229231834412
3833662201.0,-1.0798803567886353,0.8189297318458557,10.31732177734375,2.925901412963867,-1.598021149635315,0.8195403218269348
3833670534.0,-0.7730814218521118,0.1741851419210434,9.855199813842772,2.3032703399658203,-1.725938320159912,0.9388513565063475
3833678867.0,-0.589709997177124,-0.2139738649129867,9.514098167419434,2.820882797241211,-1.436932921409607,1.0363391637802124
3833687200.0,-0.6972368955612183,0.2604941129684448,9.859177589416504,3.461136102676392,-0.964734435081482,1.0437415838241575
3833695533.0,-0.9796969294548036,0.6820829510688782,10.23631477355957,3.052359104156494,-0.7142529487609863,0.9567044973373412
3833703866.0,-1.1718961000442505,0.2682037055492401,10.094862937927246,2.3808817863464355,-0.8325138688087463,0.9321916699409484
3833712199.0,-1.2457202672958374,-0.188202902674675,9.759910583496094,2.7110490798950195,-1.2183667421340942,0.9893627166748048
3833720532.0,-1.2517330646514893,0.182876169681549,9.907896995544434,3.410163402557373,-1.4556567668914795,0.961314857006073
3833728865.0,-1.0971612930297852,0.7439121007919312,10.250399589538574,3.3849594593048096,-1.6156433820724487,0.8436431884765625
3833737198.0,-0.8973511457443237,0.5146291851997375,10.08398151397705,2.569197416305542,-1.819353699684143,0.927555501461029
3833745531.0,-0.6294731497764587,-0.1868283003568649,9.6609525680542,2.4515509605407715,-1.7432279586791992,0.951530396938324
3833753864.0,-0.5956077575683594,-0.0955989956855773,9.667057037353516,3.2770724296569824,-1.151411056518555,1.0323177576065063
3833762197.0,-0.8001298308372498,0.6464992165565491,10.09155559539795,3.6142325401306152,-0.7360250353813171,0.9632872939109802
3833770530.0,-1.1091424226760864,0.835744321346283,10.316948890686035,2.835303783416748,-0.6709648966789246,0.9809099435806274
3833778863.0,-1.2258251905441284,0.1332209110260009,9.95313549041748,2.1817822456359863,-0.9480084776878356,0.9690762162208556
3833787196.0,-1.2399183511734009,-0.3513039946556091,9.66174602508545,2.8221123218536377,-1.1388345956802368,1.0049360990524292
3833795529.0,-1.2455564737319946,0.1911409646272659,9.969322204589844,3.604601621627808,-1.415237545967102,1.0045517683029177
3833803862.0,-1.127119064331055,0.7941716909408569,10.323745727539062,3.287778854370117,-1.6218676567077637,0.8962036371231079
3833812195.0,-0.8551275134086609,0.5469944477081299,10.0820951461792,2.5271387100219727,-1.7708401679992676,0.8709993362426758
3833820528.0,-0.5875175595283508,-0.0797668546438217,9.589417457580566,2.5782134532928467,-1.6050134897232056,0.9476882219314576
3833828861.0,-0.5883059501647949,0.046988520771265,9.64194679260254,3.312164068222046,-1.0299484729766846,0.9684615135192872
3833837194.0,-0.8751617670059204,0.5866797566413879,10.07118034362793,3.396358251571656,-0.5949931144714355,1.0332142114639282
3833845527.0,-1.181715488433838,0.4819034337997436,10.169879913330078,2.6874327659606934,-0.5382319092750549,0.87640380859375
3833853860.0,-1.297795057296753,-0.0372889339923858,9.884069442749023,2.438565254211426,-0.9248275756835938,0.9109062552452089
3833862193.0,-1.2674837112426758,0.0524646677076816,9.87924575805664,3.2585275173187256,-1.3555052280426023,0.9049636721611024
3833870526.0,-1.1664401292800903,0.6677621006965637,10.17322063446045,3.4813709259033203,-1.6305508613586426,1.0350326299667358
3833878859.0,-0.980571746826172,0.7423737049102783,10.176050186157228,2.777543783187866,-1.7144120931625366,0.8748414516448975
3833887192.0,-0.71601802110672,0.1036521717905998,9.7525634765625,2.368842840194702,-1.623763084411621,0.9270687103271484
3833895525.0,-0.618084728717804,-0.2226286381483078,9.521075248718262,2.9547431468963623,-1.2848613262176514,0.9991730451583862
3833903858.0,-0.7636812925338745,0.430774450302124,9.917936325073242,3.670455694198608,-0.8400188088417053,1.0356218814849854
3833912191.0,-1.0451881885528564,0.935168445110321,10.355993270874023,3.1134486198425293,-0.5271409749984741,0.8980222940444946
3833920524.0,-1.222177505493164,0.4418670237064361,10.16506290435791,2.3523218631744385,-0.7532890439033508,0.8848310112953186
3833928857.0,-1.2113161087036133,-0.2612403333187103,9.706459045410156,2.588561773300171,-1.08840012550354,0.9191282987594604
3833937190.0,-1.2187920808792114,0.0166541244834661,9.796935081481934,3.404503107070923,-1.3650081157684326,0.9956892132759094
3833945523.0,-1.169813632965088,0.7079360485076904,10.229050636291504,3.4109578132629395,-1.5789382457733154,0.925506353378296
3833953856.0,-0.967102587223053,0.7285456657409668,10.23679256439209,2.602675199508667,-1.7616446018218994,0.8485867381095886
3833962189.0,-0.6315257549285889,0.0186846535652875,9.7052640914917,2.1690773963928223,-1.7179211378097534,0.962595760822296
3833970522.0,-0.5534104108810425,-0.1385945975780487,9.524150848388672,3.0952372550964355,-1.239344835281372,0.9803977012634276
3833978855.0,-0.7739284038543701,0.4246821105480194,9.945426940917969,3.5440495014190674,-0.6850014925003052,0.9636971354484558
3833987188.0,-1.1250556707382202,0.6741888523101807,10.342761039733888,3.015397548675537,-0.5364389419555664,0.9087290167808532
3833995521.0,-1.2764241695404053,0.1183210611343383,10.041315078735352,2.3372349739074707,-0.9958046674728394,0.9845728278160096
3834003854.0,-1.2659649848937988,-0.1669213026762008,9.789424896240234,2.985249280929565,-1.3306338787078855,1.0360573530197144
3834012187.0,-1.1761494874954224,0.3905530571937561,10.00953197479248,3.619355201721192,-1.5319105386734009,1.0234295129776
3834020520.0,-1.0157287120819092,0.7942705750465393,10.23861026763916,3.1472082138061523,-1.7752200365066528,0.8702307939529419
3834028853.0,-0.7713810801506042,0.3343165516853332,9.929399490356444,2.316128969192505,-1.626862645149231,0.9336260557174684
3834037186.0,-0.5875588655471802,-0.2414528876543045,9.547346115112305,2.578418493270874,-1.353789210319519,0.9619041681289672
3834045519.0,-0.7447993755340576,0.1231510564684867,9.773293495178224,3.414569616317749,-0.8822566866874695,0.9958173632621764
3834053852.0,-1.020851492881775,0.8183949589729309,10.27036952972412,3.4738664627075195,-0.5479909181594849,0.9532209038734436
3834062185.0,-1.2345675230026243,0.6591266989707947,10.264955520629885,2.517661571502685,-0.7539550065994263,0.9051429629325868
3834070518.0,-1.2443866729736328,-0.1320848762989044,9.839515686035156,2.2232260704040527,-1.220902442932129,0.980602502822876
3834078851.0,-1.1764196157455444,-0.2634419500827789,9.68492031097412,3.1335561275482178,-1.3393429517745972,0.9645680785179138
3834087184.0,-1.1069773435592651,0.4583998620510101,10.047438621520996,3.726550817489624,-1.49492347240448,0.9887991547584534
3834095517.0,-1.011017680168152,0.8308821320533752,10.283316612243652,3.050079107284546,-1.572176218032837,0.8933349251747131
3834103850.0,-0.746961772441864,0.3390151858329773,9.908695220947266,2.3326244354248047,-1.630346179008484,0.8009187579154968
3834112183.0,-0.6179701089859009,-0.1703231483697891,9.549713134765623,2.747856855392456,-1.2217990159988403,0.9702032208442688
3834120516.0,-0.763716459274292,0.1784847825765609,9.7694091796875,3.371255874633789,-0.6202743053436279,0.8661324977874756
3834128849.0,-1.0851202011108398,0.6051657795906067,10.169021606445312,3.312420129776001,-0.6914306879043579,1.002092957496643
3834137182.0,-1.307638168334961,0.3577105104923248,10.146397590637209,2.469686269760132,-0.8395322561264038,0.9230730533599854
3834145515.0,-1.2709304094314575,-0.075076475739479,9.819220542907717,2.713763952255249,-1.4216156005859375,0.933497965335846
3834153848.0,-1.183103084564209,0.1852043271064758,9.88227081298828,3.3306570053100586,-1.553938627243042,1.0136449337005615
3834162181.0,-1.027655005455017,0.7188294529914856,10.14724063873291,3.365851402282715,-1.4806052446365356,0.950608253479004
3834170514.0,-0.8324425220489502,0.5169851779937744,10.051734924316406,2.6663265228271484,-1.5765049457550049,0.9350091814994812
3834178847.0,-0.6505494117736816,-0.1329310089349746,9.619966506958008,2.4929182529449463,-1.388829469680786,0.8203086853027344
3834187180.0,-0.7004721164703369,-0.051935750991106,9.600611686706545,3.2175962924957275,-1.0170902013778689,1.0023235082626345
3834195513.0,-0.9160546064376832,0.6384015083312988,10.093517303466797,3.5889763832092285,-0.6482705473899841,0.9798595905303956
3834203846.0,-1.1539226770401,0.8512031435966492,10.336299896240234,2.8690121173858643,-0.7139455676078796,0.9387490153312684
3834212179.0,-1.21090829372406,0.1228498443961143,9.986092567443848,2.19425630569458,-1.170109510421753,0.9867756962776184
3834220512.0,-1.1388287544250488,-0.3473105728626251,9.622271537780762,2.722985029220581,-1.2844001054763794,1.038080811500549
3834228845.0,-1.136670470237732,0.2400741726160049,9.924151420593262,3.56933069229126,-1.422742486000061,0.8935397863388062
3834237178.0,-1.063995122909546,0.8349967002868652,10.304022789001465,3.470741510391236,-1.563185453414917,0.8785041570663452
3834245511.0,-0.8287556767463684,0.5630322694778442,10.057822227478027,2.532466411590576,-1.721635341644287,0.8385971784591675
3834253844.0,-0.6305903196334839,-0.0729606747627258,9.61926555633545,2.46333384513855,-1.5294771194458008,0.9921289682388306
3834262177.0,-0.657940685749054,0.0050460463389754,9.62238883972168,3.2704899311065674,-0.9946009516716005,1.043511152267456
3834270510.0,-0.945485293865204,0.518170177936554,10.094887733459473,3.416849136352539,-0.5641279220581055,0.9750441908836364
3834278843.0,-1.23188054561615,0.5469570159912109,10.289260864257812,2.767220973968506,-0.814199686050415,0.953400194644928
3834287176.0,-1.287815809249878,0.0147306537255644,9.966230392456056,2.6322598457336426,-1.1014121770858765,0.9755309820175172
3834295509.0,-1.214546799659729,0.0580628216266632,9.845551490783691,3.2254600524902344,-1.3806586265563965,0.9817808866500854
3834303842.0,-1.1102139949798584,0.6301040649414062,10.118967056274414,3.4677958488464355,-1.605807542800903,0.9297582507133484
3834312175.0,-0.935921847820282,0.694293200969696,10.139423370361328,2.79928994178772,-1.8030627965927124,0.8108057975769043
3834320508.0,-0.6970269680023193,0.0734805315732956,9.773801803588867,2.2966105937957764,-1.5007892847061155,0.9700493812561036
3834328841.0,-0.6401201486587524,-0.2542839646339416,9.562800407409668,2.966909646987915,-1.2459533214569092,0.9278117418289183
3834337174.0,-0.818471372127533,0.3589965403079986,9.916722297668455,3.7264482975006095,-0.7311583757400513,0.970741093158722
3834345507.0,-1.1283729076385498,0.9484824538230896,10.375760078430176,3.2218480110168457,-0.6357709169387817,0.9979433417320251
3834353840.0,-1.261441349983215,0.4832095801830292,10.161733627319336,2.4492459297180176,-1.028334617614746,1.001682996749878
3834362173.0,-1.212554693222046,-0.2516791820526123,9.69620132446289,2.454829931259156,-1.3215919733047483,0.9939218759536744
3834370506.0,-1.1143709421157837,-0.0794814005494117,9.718219757080078,3.373330593109131,-1.445001482963562,0.915900945663452
3834378839.0,-1.0639164447784424,0.6220218539237976,10.172890663146973,3.526836633682251,-1.568231463432312,0.8274294137954712
3834387172.0,-0.8889350891113281,0.699893593788147,10.209056854248049,2.760638236999512,-1.6027852296829224,0.8119328022003174
3834395505.0,-0.6575358510017395,0.1203354448080062,9.74105739593506,2.425732135772705,-1.58803129196167,0.9331393837928772
3834403838.0,-0.6501797437667847,-0.0692208260297775,9.587480545043944,3.040960788726806,-1.131995677947998,1.014106035232544
3834412171.0,-0.8839378952980042,0.3960905075073242,9.940485000610352,3.414031744003296,-0.7725509405136108,0.9124943017959596
3834420504.0,-1.1943222284317017,0.6076721549034119,10.1980562210083,3.0391671657562256,-0.742556631565094,0.9512486457824708
3834428837.0,-1.2446136474609375,0.1070975735783577,10.020962715148926,2.356445550918579,-1.074824571609497,0.9752492308616638
3834437170.0,-1.188095211982727,-0.13029745221138,9.790830612182615,2.9832003116607666,-1.4399811029434204,0.857807993888855
3834445503.0,-1.0549551248550415,0.4348326325416565,9.974440574645996,3.7241175174713135,-1.6348028182983398,0.8932836055755615
3834453836.0,-0.9244739413261414,0.8274549841880798,10.241629600524902,3.170773267745972,-1.6103155612945557,0.8538120985031128
3834462169.0,-0.7647355198860168,0.3631877601146698,9.94946575164795,2.452908992767334,-1.5380069017410278,0.9100610613822936
3834470502.0,-0.658177375793457,-0.2323880493640899,9.576416015625,2.6025986671447754,-1.2385507822036743,0.9807561635971068
3834478835.0,-0.7956244945526123,0.1181147322058677,9.779729843139648,3.436623334884644,-0.9260826110839844,0.985059380531311
3834487168.0,-1.0180951356887815,0.8154609203338623,10.250762939453123,3.306195974349976,-0.839480996131897,0.961315095424652
3834495501.0,-1.1730769872665403,0.6993410587310791,10.286820411682127,2.577880859375,-0.9934992790222168,0.9338822960853576
3834503834.0,-1.149533987045288,-0.0682139992713928,9.805024147033691,2.143847703933716,-1.2378593683242798,0.8931812047958374
3834512167.0,-1.1063096523284912,-0.2631150186061859,9.678176879882812,3.0635013580322266,-1.2873971462249756,1.0087528228759766
3834520500.0,-1.1314051151275637,0.4763921201229095,10.08506679534912,3.617331743240357,-1.2853479385375977,0.9495580792427064
3834528833.0,-1.0503696203231812,0.8644623756408691,10.36270236968994,3.145646095275879,-1.5781188011169434,0.9169769287109376
3834537166.0,-0.801923930644989,0.3534497916698456,9.96667194366455,2.312594175338745,-1.706804633140564,0.8876997828483582
3834545499.0,-0.6221504211425781,-0.1709534972906112,9.56104850769043,2.722242593765259,-1.4175173044204712,0.9195382595062256
3834553832.0,-0.6909204125404358,0.1653503328561782,9.757186889648438,3.300893545150757,-0.9620962738990784,0.929835081100464
3834562165.0,-0.9796559810638428,0.6487035751342773,10.186382293701172,3.253507375717163,-0.6392032504081726,0.9612382650375366
3834570498.0,-1.176568865776062,0.3897696733474731,10.175667762756348,2.556928396224976,-0.6868200898170471,0.9482774138450624
3834578831.0,-1.266680121421814,-0.0985488146543502,9.853943824768066,2.6821048259735107,-1.042678713798523,0.8630844354629517
3834587164.0,-1.2235041856765747,0.1671421825885772,9.934351921081545,3.2960009574890137,-1.2774841785430908,0.9742757081985474
3834595497.0,-1.098153591156006,0.7048376202583313,10.187026023864746,3.338059663772583,-1.5779904127120972,0.8175935745239258
3834603830.0,-0.9300768375396729,0.576920747756958,10.063060760498049,2.5107455253601074,-1.6795765161514282,0.7499975562095642
3834612163.0,-0.7039132714271545,-0.1376243978738784,9.664469718933104,2.527958393096924,-1.6171034574508667,0.7871125340461731
3834620496.0,-0.6669500470161438,-0.1596250534057617,9.57955265045166,3.209245681762696,-1.2043044567108154,0.9360339045524596
3834628829.0,-0.8594958782196045,0.6056817173957825,10.043952941894531,3.7096707820892334,-0.7799534201622009,0.961212396621704
3834637162.0,-1.1084736585617063,0.9051151871681212,10.375103950500488,3.057200193405152,-0.6964510679244995,0.9431033730506896
3834645495.0,-1.196727275848389,0.1867834627628326,10.00669288635254,2.19307804107666,-0.9613791108131408,0.9303475618362428
3834653828.0,-1.184972882270813,-0.3724603652954101,9.596662521362305,2.6343343257904053,-1.1451611518859863,0.9726364612579346
3834662161.0,-1.1833258867263794,0.0743388235569,9.823047637939451,3.532548666000366,-1.392159342765808,0.9239181876182556
3834670494.0,-1.1386734247207642,0.8249801397323608,10.282505989074709,3.5102899074554443,-1.573405623435974,0.9783229231834412
3834678827.0,-0.927958071231842,0.6911389827728271,10.162972450256348,2.4809820652008057,-1.7156928777694702,0.8510714769363403
3834687160.0,-0.645807147026062,-0.060584545135498,9.668334007263184,2.251427412033081,-1.6811646223068235,0.9223815202713012
3834695493.0,-0.624634325504303,-0.1199924871325492,9.552157402038574,3.131891250610352,-1.0777703523635864,0.9490715265274048
3834703826.0,-0.8629406690597534,0.4883894920349121,10.010406494140623,3.508983373641968,-0.6564671993255615,0.972329080104828
3834712159.0,-1.1573400497436523,0.6331378221511841,10.27314281463623,2.888120174407959,-0.7018300294876099,0.9778618812561036
3834720492.0,-1.2388479709625244,0.0814737677574157,9.984553337097168,2.445454835891724,-1.0597376823425293,0.943205714225769
3834728825.0,-1.2056159973144531,-0.0817157104611396,9.803669929504396,3.039372444152832,-1.3009469509124756,0.918821096420288
3834737158.0,-1.0869848728179932,0.5161749124526978,10.048858642578123,3.6321115493774414,-1.545690894126892,0.9126992225646972
3834745491.0,-0.9437296390533448,0.800541341304779,10.23020076751709,3.0256688594818115,-1.6817796230316162,0.9169769287109376
3834753824.0,-0.7082464098930359,0.2103179991245269,9.887914657592772,2.249659538269043,-1.5916939973831177,0.8847284317016602
3834762157.0,-0.6424643397331238,-0.3008792996406555,9.5398588180542,2.7946794033050537,-1.3097583055496216,0.9702800512313844
3834770490.0,-0.7983279824256897,0.2087036073207855,9.848275184631348,3.768737554550171,-0.931487202644348,1.0189214944839478
3834778823.0,-1.0429543256759644,0.928779125213623,10.31328582763672,3.391798257827759,-0.6673276424407959,0.954860270023346
3834787156.0,-1.213132381439209,0.6947562098503113,10.274038314819336,2.3488123416900635,-0.86811763048172,0.8767880201339722
3834795489.0,-1.1989518404006958,-0.2057665139436721,9.74956226348877,2.1693336963653564,-1.1102490425109863,0.8701796531677246
3834803822.0,-1.1129846572875977,-0.282278299331665,9.671586990356444,3.1722333431243896,-1.3658535480499268,0.8929762244224548
3834812155.0,-1.064777970314026,0.5140734910964966,10.087207794189451,3.851574420928955,-1.507884502410889,1.0029126405715942
3834820488.0,-0.982921302318573,0.920838475227356,10.342697143554688,3.1428020000457764,-1.6470974683761597,0.8701282143592834
3834828821.0,-0.7273586392402649,0.2937714755535126,9.92230987548828,2.29266619682312,-1.5527348518371582,0.8493040204048157
3834837154.0,-0.6213322877883911,-0.1838869154453277,9.535405158996582,2.743015766143799,-1.2785857915878296,0.9470223784446716
3834845487.0,-0.7996017336845398,0.2019601464271545,9.787649154663086,3.4857771396636963,-0.8225498795509338,1.039899468421936
3834853820.0,-1.0886369943618774,0.6927164793014526,10.268682479858398,3.079612493515014,-0.621631920337677,0.9985324740409852
3834862153.0,-1.2649439573287964,0.346410870552063,10.188270568847656,2.427217721939087,-0.8354851603507996,0.9862889051437378
3834870486.0,-1.2352365255355835,-0.1163296028971672,9.827338218688965,2.566866636276245,-1.250512719154358,0.883345365524292
3834878819.0,-1.1459039449691772,0.1724917590618133,9.860488891601562,3.401916027069092,-1.4176454544067385,0.9205115437507628
3834887152.0,-0.9955623745918274,0.7811721563339233,10.17954921722412,3.449404716491699,-1.4189773797988892,0.9729182124137878
3834895485.0,-0.8511027693748474,0.6154763102531433,10.117685317993164,2.570349931716919,-1.6717896461486816,0.9014544486999512
3834903818.0,-0.7029722332954407,-0.1360528618097305,9.653031349182127,2.389155149459839,-1.4236904382705688,0.9097535610198976
3834912151.0,-0.7147067189216614,-0.1644711941480636,9.598858833312988,3.195260524749756,-1.1201105117797852,1.0338801145553589
3834920484.0,-0.9756802320480348,0.6271559000015259,10.077187538146973,3.6377975940704346,-0.7432994246482849,0.9839835166931152
3834928817.0,-1.197254300117493,0.9455668330192566,10.41731071472168,2.870574474334717,-0.8371500372886658,0.9996596574783324
3834937150.0,-1.2186483144760132,0.2019365578889846,9.992790222167969,2.002610445022583,-1.0546149015426636,0.9041953682899476
3834945483.0,-1.1408650875091553,-0.3922389149665832,9.613862037658691,2.576753854751587,-1.3731790781021118,1.0847243070602417
3834953816.0,-1.127307415008545,0.1160764321684837,9.856816291809082,3.5904362201690674,-1.4034805297851562,1.045355200767517
3834962149.0,-1.073646068572998,0.8425303101539612,10.313958168029783,3.4715611934661865,-1.4974591732025146,0.9740195870399476
3834970482.0,-0.865057647228241,0.6775029897689819,10.156858444213867,2.470531225204468,-1.6435374021530151,0.9071665406227112
3834978815.0,-0.6419121623039246,-0.0767702981829643,9.627580642700195,2.378345966339112,-1.6073957681655884,0.8819621205329895
3834987148.0,-0.6691047549247742,-0.103464126586914,9.606379508972168,3.27233362197876,-1.09009051322937,1.000504732131958
3834995481.0,-0.92685467004776,0.5004482269287109,10.045324325561523,3.612234354019165,-0.6664567589759827,0.9681026935577391
3835003814.0,-1.1997745037078855,0.6474449038505554,10.319084167480469,2.790222883224488,-0.888685941696167,0.8999434113502502
3835012147.0,-1.235434651374817,0.0674640610814094,9.977527618408203,2.368202447891236,-1.0711103677749634,0.8880839347839355
3835020480.0,-1.165176272392273,-0.0998676270246505,9.775209426879885,3.0461859703063965,-1.4201557636260986,0.9225864410400392
3835028813.0,-1.0829395055770874,0.4794380068778991,10.00936508178711,3.612772226333618,-1.4905436038970947,0.9660024046897888
3835037146.0,-0.9180482625961304,0.7835263013839722,10.229771614074709,3.091548681259156,-1.4842681884765625,0.909215807914734
3835045479.0,-0.7432101964950562,0.2140112668275833,9.90789794921875,2.2174627780914307,-1.386882781982422,0.8340123295783997
3835053812.0,-0.6473731398582458,-0.27316814661026,9.586143493652344,2.719476222991944,-1.2380129098892212,0.9152607321739196
3835062145.0,-0.8082804083824158,0.2270447015762329,9.870546340942385,3.6354920864105225,-0.8342042565345764,0.9796802997589112
3835070478.0,-1.013174057006836,0.8602504134178162,10.276726722717283,3.335165500640869,-0.6832084655761719,1.0294232368469238
3835078811.0,-1.164204716682434,0.5881024599075317,10.25078296661377,2.4867963790893555,-0.807693600654602,0.9119051694869996
3835087144.0,-1.1515355110168457,-0.1939719915390014,9.755678176879885,2.342127084732056,-1.0834308862686155,0.8824743628501892
3835095477.0,-1.151958703994751,-0.1859409362077713,9.723016738891602,3.229660749435425,-1.1448795795440674,1.032138466835022
3835103810.0,-1.1248764991760254,0.5560328364372253,10.108985900878906,3.715076208114624,-1.3407514095306396,0.9028376936912536
3835112143.0,-1.046713948249817,0.836642861366272,10.355721473693848,3.010274648666382,-1.4877517223358154,0.8727411031723022
3835120476.0,-0.776716947555542,0.2266238778829574,9.931947708129885,2.352091312408448,-1.6220215559005735,0.8444629907608032
3835128809.0,-0.6393011212348938,-0.1891615390777588,9.53208351135254,2.887556791305542,-1.414315700531006,0.9832921028137208
3835137142.0,-0.7351654767990112,0.2798886597156524,9.811186790466309,3.6429715156555176,-0.8467297554016113,0.992154598236084
3835145475.0,-1.0364320278167725,0.7130404710769653,10.233083724975586,3.214035987854004,-0.5967861413955688,0.942693531513214
3835153808.0,-1.2128663063049316,0.3294531404972076,10.09385585784912,2.424553394317627,-0.88737952709198,0.8422856330871582
3835162141.0,-1.2441414594650269,-0.1511361896991729,9.782764434814451,2.7823586463928223,-1.1272056102752686,0.9660024046897888
3835170474.0,-1.1925307512283323,0.2344062626361847,9.897909164428713,3.365723133087158,-1.398639678955078,0.9807305335998536
3835178807.0,-1.0859590768814087,0.7838148474693298,10.20628547668457,3.42878532409668,-1.590925693511963,0.8912600874900818
3835187140.0,-0.9095001816749572,0.556587278842926,10.073911666870115,2.576369285583496,-1.5120339393615725,0.9160802364349364
3835195473.0,-0.6910681128501892,-0.1830633133649826,9.620428085327148,2.480905294418335,-1.4720245599746704,0.8483563661575317
3835203806.0,-0.6891743540763855,-0.1271516978740692,9.606267929077148,3.2329907417297363,-1.1751556396484375,1.0222771167755127
3835212139.0,-0.887195348739624,0.6782921552658081,10.096709251403809,3.612541675567627,-0.8406079411506653,0.9547321796417236
3835220472.0,-1.1343053579330444,0.9140875935554504,10.343915939331056,2.7734198570251465,-0.7990360260009766,0.8975867629051208
3835228805.0,-1.1738513708114624,0.1413802951574325,9.942439079284668,2.1383144855499268,-1.05797016620636,0.9236875772476196
3835237138.0,-1.158392310142517,-0.3654364347457886,9.589078903198242,2.750674247741699,-1.3364739418029783,0.9434875249862672
3835245471.0,-1.172951102256775,0.175382062792778,9.877405166625977,3.5616202354431152,-1.3984346389770508,1.0333932638168335
3835253804.0,-1.1052950620651243,0.8434975743293762,10.321799278259276,3.429066896438598,-1.550045132637024,0.8731250762939453
3835262137.0,-0.851416289806366,0.6059059500694275,10.149843215942385,2.4764227867126465,-1.9042136669158936,0.911341667175293
3835270470.0,-0.6351306438446045,-0.1113426461815834,9.615948677062988,2.3405134677886963,-1.4881871938705444,0.938569724559784
3835278803.0,-0.6278519034385681,-0.0363689139485359,9.63617706298828,3.17584490776062,-1.087503433227539,1.0057812929153442
3835287136.0,-0.8932777643203735,0.5933594703674316,10.087749481201172,3.355400800704956,-0.6504990458488464,0.9896186590194702
3835295469.0,-1.1639487743377686,0.5876878499984741,10.27584457397461,2.764327049255371,-0.6446334719657898,0.9653621912002563
3835303802.0,-1.2400561571121216,-0.0481926165521144,9.93531608581543,2.354524612426758,-1.1480556726455688,0.9173355102539062
3835312135.0,-1.1764371395111084,-0.1423725634813308,9.742084503173828,3.2277393341064453,-1.3615758419036863,1.0300122499465942
3835320468.0,-1.0824559926986694,0.5588170289993286,10.033658027648926,3.687053442001343,-1.526249647140503,0.9581644535064696
3835328801.0,-0.9525657296180724,0.9023705720901488,10.257171630859377,3.02116060256958,-1.6198188066482544,0.9001739025115967
3835337134.0,-0.7569566965103149,0.226176232099533,9.923745155334473,2.1522231101989746,-1.4636998176574707,0.8705637454986572
3835345467.0,-0.6746507883071899,-0.3217186629772186,9.505931854248049,2.531416177749634,-1.327816367149353,0.9450499415397644
3835353800.0,-0.8295289874076843,0.1667892634868621,9.782953262329102,3.54074501991272,-0.8414788246154785,1.0214316844940186
3835362133.0,-1.0897042751312256,0.9059667587280272,10.3080415725708,3.54215407371521,-0.5492972731590271,0.9384926557540894
3835370466.0,-1.2282949686050415,0.6864907145500183,10.2923583984375,2.4835433959960938,-0.8953711986541748,0.868540346622467
3835378799.0,-1.1917186975479126,-0.1885958909988403,9.794368743896484,2.158114433288574,-1.2749998569488523,0.98019278049469
3835387132.0,-1.1143637895584106,-0.2527493238449096,9.65000820159912,3.1313788890838623,-1.3687992095947266,0.9611614346504213
3835395465.0,-1.053113341331482,0.5417991280555725,10.054165840148926,3.677884101867676,-1.4466407299041748,0.9244816899299622
3835403798.0,-0.9682877659797668,0.8872647285461426,10.320907592773438,2.931715488433838,-1.4323480129241943,0.8928995132446289
3835412131.0,-0.7588749527931213,0.2363882511854171,9.8816556930542,2.3366458415985107,-1.5544254779815674,0.8903379440307617
3835420464.0,-0.6652766466140747,-0.2612311542034149,9.498120307922363,2.670808792114258,-1.0733132362365725,1.0095466375350952
3835428797.0,-0.8331890106201172,0.2446845769882202,9.780553817749023,3.535212516784668,-0.7438885569572449,0.9929742217063904
3835437130.0,-1.1361873149871826,0.7771487236022949,10.309259414672852,3.28913688659668,-0.679801881313324,0.9539382457733154
3835445463.0,-1.2687273025512695,0.3764929175376892,10.1858491897583,2.465664863586426,-0.9602776765823364,0.904758870601654
3835453796.0,-1.1879558563232422,-0.2308055609464645,9.763014793395996,2.6048014163970947,-1.3927228450775146,0.9458440542221068
3835462129.0,-1.1031523942947388,0.048807606101036,9.8145170211792,3.4615461826324463,-1.632881760597229,0.9662073254585266
3835470462.0,-0.953177571296692,0.8008220195770264,10.166934967041016,3.643048286437988,-1.5211269855499268,0.9219202399253844
3835478795.0,-0.872291088104248,0.7672631144523621,10.176839828491213,2.6712188720703125,-1.460779905319214,0.903196394443512
3835487128.0,-0.7304732799530029,-0.0708483532071113,9.726399421691896,2.240669250488281,-1.417670965194702,0.8027373552322388
3835495461.0,-0.758672833442688,-0.2909799814224243,9.562423706054688,3.0744128227233887,-1.0764894485473633,0.9284264445304872
