Lat_GNSS,Long_GNSS,Height_GNSS,Acc_X,Acc_Y,Acc_Z,Gyro_X,Gyro_Y,Gyro_Z,Magn_X,Magn_Y,Magn_Z
32.7643151,35.0164359,482.0,-0.053,-0.00125,0.99875,0.46,0.0,-0.08,30710.0,-3410.0,-33320.0
32.7643151,35.0164359,482.0,-0.048,-0.00575,0.99075,-0.3,-0.42,-0.08,30710.0,-3410.0,-33320.0
32.7643151,35.0164359,482.0,-0.05525,0.01175,0.99675,-0.34,-0.2,-0.06,30760.0,-3430.0,-33320.0
32.7643151,35.0164359,482.0,-0.056,0.00675,0.9995,0.42,0.18,-0.04,30770.0,-3420.0,-33310.0
32.7643151,35.0164359,482.0,-0.05475,-0.0145,0.998,-0.04,0.64,-0.1,30730.0,-3400.0,-33320.0
32.7643151,35.0164359,482.0,-0.06275,-0.0065,0.99975,-0.3,0.48,0.06,30720.0,-3400.0,-33320.0
32.7643151,35.0164359,482.0,-0.0635,0.01975,1.00375,0.56,0.28,-0.04,30700.0,-3390.0,-33320.0
32.7643151,35.0164359,482.0,-0.05375,0.01025,0.992,0.5,0.0,-0.1,30680.0,-3370.0,-33320.0
32.7643151,35.0164359,482.0,-0.05025,-0.015,0.984,-0.6,-0.22,-0.06,30670.0,-3390.0,-33320.0
32.7643151,35.0164359,482.0,-0.058,-0.00225,0.998,-0.54,-0.24,0.04,30730.0,-3460.0,-33320.0
32.7643151,35.0164359,482.0,-0.05725,0.0165,1.00875,0.72,0.1,-0.14,30730.0,-3490.0,-33320.0
32.7643151,35.0164359,481.99,-0.05425,0.0055,0.99925,0.48,0.18,-0.06,30690.0,-3420.0,-33320.0
32.7643151,35.0164359,481.99,-0.06025,-0.0075,0.99025,-0.7,0.34,-0.04,30680.0,-3430.0,-33320.0
32.7643151,35.0164359,481.99,-0.067,0.00725,0.999,-0.22,0.04,0.08,30710.0,-3420.0,-33320.0
32.7643151,35.0164359,481.99,-0.05625,0.00725,1.00075,0.7,-0.16,-0.02,30690.0,-3360.0,-33320.0
32.7643151,35.0164359,481.99,-0.0465,-0.00425,0.99375,0.02,-0.54,-0.06,30700.0,-3350.0,-33320.0
32.7643151,35.0164359,481.99,-0.052,0.00675,0.99525,-0.44,-0.4,0.02,30700.0,-3370.0,-33320.0
32.7643151,35.0164359,481.99,-0.05675,0.0125,1.00125,0.1,-0.02,0.02,30710.0,-3360.0,-33320.0
32.7643151,35.0164359,481.99,-0.05525,-0.009,0.99625,0.2,0.4,0.0,30710.0,-3360.0,-33320.0
32.7643151,35.0164359,481.99,-0.05925,-0.0145,0.99625,-0.32,0.3,0.0,30720.0,-3400.0,-33320.0
32.7643151,35.0164359,481.99,-0.06475,0.01425,1.0045,0.3,0.14,0.06,30710.0,-3380.0,-33320.0
32.7643151,35.0164359,481.99,-0.0555,0.0215,1.0,0.88,-0.02,-0.08,30700.0,-3390.0,-33320.0
32.7643151,35.0164359,481.99,-0.0475,-0.00825,0.9855,-0.34,-0.18,-0.04,30720.0,-3400.0,-33320.0
32.7643151,35.0164359,481.99,-0.0535,-0.01175,0.9895,-0.74,-0.18,0.04,30710.0,-3370.0,-33320.0
32.7643151,35.0164359,481.99,-0.0595,0.013,1.00725,0.4,0.1,-0.1,30740.0,-3410.0,-33320.0
32.7643151,35.0164359,481.99,-0.0555,0.01425,1.004,0.76,0.42,-0.08,30740.0,-3390.0,-33320.0
32.7643151,35.0164359,481.99,-0.0575,-0.0035,0.99225,-0.52,0.5,-0.04,30720.0,-3370.0,-33320.0
32.7643151,35.0164359,481.99,-0.06625,0.002,0.994,-0.6,0.38,0.0,30720.0,-3350.0,-33320.0
32.7643151,35.0164359,481.99,-0.05975,0.00875,1.00175,0.5,0.0,-0.08,30730.0,-3360.0,-33320.0
32.7643151,35.0164359,481.99,-0.048,-0.0045,0.996,0.32,-0.34,-0.06,30730.0,-3360.0,-33320.0
32.7643151,35.0164359,481.99,-0.049,-0.002,0.99325,-0.4,-0.44,-0.06,30720.0,-3340.0,-33320.0
32.7643151,35.0164359,481.99,-0.05875,0.01375,0.99925,0.0,-0.02,0.0,30660.0,-3320.0,-33320.0
32.7643151,35.0164359,481.99,-0.0585,0.00175,0.99825,0.34,0.42,-0.12,30610.0,-3280.0,-33320.0
32.7643151,35.0164359,481.99,-0.05925,-0.01875,0.99375,-0.28,0.42,-0.08,30560.0,-3210.0,-33330.0
32.7643151,35.0164359,481.99,-0.06475,0.00025,0.99925,-0.18,0.08,0.0,30500.0,-3210.0,-33330.0
32.7643151,35.0164359,481.99,-0.0595,0.022,1.001,0.68,-0.26,-0.02,30560.0,-3210.0,-33330.0
32.7643151,35.0164359,481.99,-0.0475,0.001,0.99,0.12,-0.4,-0.12,30600.0,-3160.0,-33330.0
32.7643151,35.0164359,481.99,-0.0495,-0.01625,0.9895,-0.76,-0.38,0.02,30570.0,-3190.0,-33330.0
32.7643151,35.0164359,481.99,-0.059,0.00425,1.0045,-0.12,-0.04,0.04,30640.0,-3250.0,-33320.0
32.7643151,35.0164359,481.99,-0.0575,0.016,1.0075,0.94,0.32,-0.02,30670.0,-3280.0,-33320.0
32.7643151,35.0164359,481.99,-0.056,-0.00175,0.9935,0.0,0.4,-0.08,30700.0,-3310.0,-33320.0
32.7643151,35.0164359,481.99,-0.0635,-0.00475,0.99025,-0.7,0.36,0.02,30690.0,-3280.0,-33320.0
32.7643151,35.0164359,481.99,-0.06275,0.00975,1.00125,0.12,0.02,0.08,30700.0,-3230.0,-33320.0
32.7643151,35.0164359,481.99,-0.05025,0.0025,0.99475,0.44,-0.36,-0.02,30710.0,-3180.0,-33320.0
32.7643151,35.0164359,481.99,-0.044,-0.0045,0.99525,-0.18,-0.72,0.04,30720.0,-3150.0,-33320.0
32.7643151,35.0164359,481.99,-0.0555,0.01,1.00425,-0.16,-0.26,0.04,30710.0,-3170.0,-33320.0
32.7643151,35.0164359,481.99,-0.05925,0.00975,1.0035,0.36,0.34,-0.04,30710.0,-3230.0,-33320.0
32.7643151,35.0164359,481.99,-0.058,-0.01325,0.99525,0.06,0.76,0.0,30710.0,-3260.0,-33320.0
32.7643151,35.0164359,481.99,-0.062,-0.00825,0.99675,-0.3,0.56,0.0,30680.0,-3220.0,-33320.0
32.7643151,35.0164359,481.99,-0.062,0.0225,1.00375,0.66,0.16,0.04,30640.0,-3240.0,-33320.0
32.7643151,35.0164359,481.99,-0.04875,0.0155,0.9955,0.54,-0.16,-0.04,30670.0,-3270.0,-33320.0
32.7643151,35.0164359,481.99,-0.0465,-0.014,0.983,-0.68,-0.18,-0.04,30640.0,-3200.0,-33320.0
32.7643151,35.0164359,481.99,-0.05725,-0.00575,0.99425,-0.46,0.1,0.08,30630.0,-3180.0,-33320.0
32.7643151,35.0164359,481.99,-0.06125,0.017,1.0105,0.9,0.44,-0.08,30690.0,-3270.0,-33320.0
32.7643151,35.0164359,481.99,-0.058,0.009,1.00225,0.62,0.68,-0.04,30720.0,-3290.0,-33320.0
32.7643151,35.0164359,481.99,-0.0615,-0.0055,0.9915,-0.58,0.78,-0.04,30700.0,-3220.0,-33320.0
32.7643151,35.0164359,481.99,-0.0655,0.004,0.9945,-0.12,0.52,0.02,30690.0,-3200.0,-33320.0
32.7643151,35.0164359,481.99,-0.0545,0.00575,0.9975,0.74,0.06,-0.14,30720.0,-3250.0,-33320.0
32.7643151,35.0164359,481.99,-0.04525,-0.00625,0.99375,0.12,-0.22,0.0,30730.0,-3280.0,-33320.0
32.7643151,35.0164359,481.99,-0.05275,0.0045,0.996,-0.28,-0.06,-0.02,30750.0,-3320.0,-33320.0
32.7643151,35.0164359,481.99,-0.06175,0.01525,1.0,0.28,0.4,-0.06,30740.0,-3280.0,-33320.0
32.7643151,35.0164359,481.99,-0.061,-0.0055,0.99475,0.22,0.9,-0.08,30710.0,-3250.0,-33320.0
32.7643151,35.0164359,481.99,-0.063,-0.01675,0.993,-0.36,0.76,0.02,30750.0,-3270.0,-33320.0
32.7643151,35.0164359,481.99,-0.066,0.012,1.00175,0.24,0.28,0.02,30750.0,-3260.0,-33320.0
32.7643151,35.0164359,481.99,-0.05475,0.02425,1.00175,0.9,-0.12,-0.06,30750.0,-3260.0,-33320.0
32.7643151,35.0164359,481.99,-0.046,-0.00275,0.988,-0.24,-0.28,0.02,30760.0,-3310.0,-33320.0
32.7643151,35.0164359,481.99,-0.0535,-0.0105,0.99025,-0.84,-0.1,0.02,30770.0,-3360.0,-33320.0
32.7643151,35.0164359,481.99,-0.062,0.012,1.00575,0.36,0.28,0.02,30720.0,-3300.0,-33320.0
32.7643151,35.0164359,481.99,-0.0585,0.0145,1.00475,0.84,0.66,-0.12,30740.0,-3350.0,-33320.0
32.7643151,35.0164359,481.99,-0.0605,-0.00175,0.99425,-0.38,0.54,0.04,30860.0,-3490.0,-33310.0
32.7643151,35.0164359,481.99,-0.068,0.003,0.995,-0.66,0.22,0.02,30940.0,-3540.0,-33310.0
32.7643151,35.0164359,481.99,-0.06075,0.01,1.002,0.32,-0.22,0.0,30950.0,-3590.0,-33310.0
32.7643151,35.0164359,481.99,-0.048,-0.0025,0.9985,0.26,-0.42,-0.08,30990.0,-3590.0,-33300.0
32.7643151,35.0164359,481.99,-0.04825,0.0,0.996,-0.42,-0.48,0.02,31010.0,-3590.0,-33300.0
32.7643151,35.0164359,481.99,-0.058,0.01625,0.99875,-0.04,-0.08,-0.02,31030.0,-3610.0,-33300.0
32.7643151,35.0164359,481.99,-0.05925,0.0035,0.9965,0.24,0.44,0.04,31000.0,-3590.0,-33300.0
32.7643151,35.0164359,481.99,-0.062,-0.0175,0.99325,-0.4,0.3,0.0,30900.0,-3490.0,-33310.0
32.7643151,35.0164359,481.99,-0.0675,0.0015,1.00125,-0.2,0.0,0.06,30840.0,-3440.0,-33310.0
32.7643151,35.0164359,481.99,-0.06075,0.02525,1.0055,0.76,-0.34,-0.06,30800.0,-3420.0,-33310.0
32.7643151,35.0164359,481.99,-0.048,0.00625,0.9905,0.12,-0.46,-0.1,30760.0,-3380.0,-33320.0
32.7643151,35.0164359,481.99,-0.05025,-0.01425,0.9845,-0.98,-0.34,0.0,30740.0,-3360.0,-33320.0
32.7643151,35.0164359,481.99,-0.06,0.003,1.0005,-0.18,0.02,0.1,30690.0,-3340.0,-33320.0
32.7643151,35.0164359,481.99,-0.059,0.014,1.00725,1.0,0.42,-0.04,30700.0,-3350.0,-33320.0
32.7643151,35.0164359,481.99,-0.05775,-0.0005,0.997,0.08,0.46,0.0,30730.0,-3350.0,-33320.0
32.7643151,35.0164359,481.99,-0.0655,-0.0025,0.9905,-0.7,0.3,0.06,30720.0,-3350.0,-33320.0
32.7643151,35.0164359,481.99,-0.06375,0.00875,0.99875,0.28,0.08,0.1,30750.0,-3360.0,-33320.0
32.7643151,35.0164359,481.99,-0.05175,-0.001,0.995,0.48,-0.32,-0.06,30710.0,-3310.0,-33320.0
32.7643151,35.0164359,481.99,-0.04725,-0.00775,0.993,-0.32,-0.4,0.0,30700.0,-3320.0,-33320.0
32.7643151,35.0164359,481.99,-0.05825,0.011,0.99775,-0.14,-0.16,0.04,30720.0,-3330.0,-33320.0
32.7643151,35.0164359,481.99,-0.06075,0.0115,1.002,0.48,0.4,0.0,30680.0,-3290.0,-33320.0
32.7643151,35.0164359,481.99,-0.05925,-0.01275,0.995,-0.1,0.44,0.0,30710.0,-3330.0,-33320.0
32.7643151,35.0164359,481.99,-0.06325,-0.00875,0.9975,-0.38,0.22,0.0,30700.0,-3380.0,-33320.0
32.7643151,35.0164359,481.99,-0.062,0.02075,1.00475,0.5,-0.14,-0.02,30720.0,-3340.0,-33320.0
32.7643151,35.0164359,481.99,-0.05025,0.0145,0.99575,0.42,-0.26,-0.06,30730.0,-3370.0,-33320.0
32.7643151,35.0164359,481.99,-0.04725,-0.012,0.987,-0.74,-0.24,0.02,30750.0,-3380.0,-33320.0
32.7643151,35.0164359,481.99,-0.0575,-0.00175,0.99725,-0.48,0.0,-0.06,30730.0,-3300.0,-33320.0
32.7643151,35.0164359,481.99,-0.0605,0.018,1.0085,0.76,0.36,-0.1,30690.0,-3300.0,-33320.0
32.7643151,35.0164359,481.99,-0.05825,0.007,0.99725,0.4,0.36,-0.08,30770.0,-3390.0,-33310.0
32.7643151,35.0164359,481.99,-0.06325,-0.00575,0.99025,-0.76,0.2,0.02,30770.0,-3390.0,-33310.0
32.7643151,35.0164359,481.99,-0.0675,0.007,0.9995,-0.04,-0.08,0.0,30780.0,-3420.0,-33310.0
32.7643151,35.0164359,481.99,-0.05525,0.0095,1.0025,0.7,-0.24,-0.02,30760.0,-3410.0,-33320.0
32.7643151,35.0164359,481.99,-0.04525,-0.005,0.9935,-0.12,-0.34,-0.06,30740.0,-3370.0,-33320.0
32.7643151,35.0164359,481.99,-0.0515,0.003,0.99425,-0.48,-0.14,0.0,30770.0,-3370.0,-33320.0
32.7643151,35.0164359,481.99,-0.059,0.01375,1.0005,0.38,0.28,0.0,30780.0,-3410.0,-33310.0
32.7643151,35.0164359,481.99,-0.05875,-0.0055,0.9955,0.18,0.54,0.0,30790.0,-3410.0,-33310.0
32.7643151,35.0164359,481.99,-0.064,-0.016,0.9925,-0.64,0.36,0.02,30780.0,-3380.0,-33310.0
32.7643151,35.0164359,481.99,-0.06925,0.01275,1.003,0.2,0.0,0.0,30760.0,-3360.0,-33320.0
32.7643151,35.0164359,481.99,-0.059,0.0225,1.0015,0.74,-0.26,0.0,30730.0,-3350.0,-33320.0
32.7643151,35.0164359,481.99,-0.04875,-0.00575,0.9875,-0.36,-0.36,-0.02,30750.0,-3350.0,-33320.0
32.7643151,35.0164359,481.99,-0.0525,-0.0125,0.9905,-0.86,-0.18,0.06,30750.0,-3350.0,-33320.0
32.7643151,35.0164359,481.99,-0.06025,0.01175,1.00575,0.48,0.16,0.04,30710.0,-3280.0,-33320.0
32.7643151,35.0164359,481.98,-0.05775,0.01325,1.0025,0.68,0.36,0.02,30670.0,-3250.0,-33320.0
32.7643151,35.0164359,481.98,-0.06,-0.00475,0.9915,-0.56,0.38,-0.02,30670.0,-3230.0,-33320.0
32.7643151,35.0164359,481.98,-0.0675,0.00175,0.9965,-0.48,0.2,0.1,30660.0,-3220.0,-33320.0
32.7643151,35.0164359,481.98,-0.0625,0.01175,1.002,0.56,-0.14,-0.04,30640.0,-3200.0,-33320.0
32.7643151,35.0164359,481.98,-0.04975,-0.00325,0.9935,0.08,-0.36,-0.06,30650.0,-3190.0,-33320.0
32.7643151,35.0164359,481.98,-0.04925,-0.00475,0.99175,-0.56,-0.34,0.06,30630.0,-3200.0,-33320.0
32.7643151,35.0164359,481.98,-0.05725,0.014,1.00175,0.14,-0.04,0.02,30640.0,-3170.0,-33320.0
32.7643151,35.0164359,481.98,-0.057,0.0065,1.001,0.44,0.36,-0.04,30640.0,-3180.0,-33320.0
32.7643151,35.0164359,481.98,-0.05825,-0.016,0.9935,-0.48,0.34,-0.04,30630.0,-3190.0,-33320.0
32.7643151,35.0164359,481.98,-0.06575,-0.00075,1.0,-0.3,0.08,0.02,30620.0,-3140.0,-33320.0
32.7643151,35.0164359,481.98,-0.0625,0.0225,1.00575,0.72,-0.16,0.0,30610.0,-3160.0,-33330.0
32.7643151,35.0164359,481.98,-0.052,0.00525,0.9915,0.12,-0.24,-0.06,30640.0,-3140.0,-33320.0
32.7643151,35.0164359,481.98,-0.05075,-0.014,0.986,-0.86,-0.14,0.0,30620.0,-3130.0,-33330.0
32.7643151,35.0164359,481.98,-0.06025,0.00475,0.99575,0.0,-0.02,0.0,30610.0,-3180.0,-33330.0
32.7643151,35.0164359,481.98,-0.058,0.01725,1.00575,1.16,0.16,-0.04,30620.0,-3180.0,-33330.0
32.7643151,35.0164359,481.98,-0.056,-0.00075,1.00125,0.18,0.2,-0.06,30610.0,-3150.0,-33330.0
32.7643151,35.0164359,481.98,-0.0655,-0.0045,0.999,-0.7,0.3,0.06,30590.0,-3110.0,-33330.0
32.7643151,35.0164359,481.98,-0.06675,0.01175,0.9995,0.1,0.12,0.06,30620.0,-3120.0,-33330.0
32.7643151,35.0164359,481.98,-0.055,0.0055,0.9915,0.36,0.12,-0.04,30600.0,-3090.0,-33330.0
32.7643151,35.0164359,481.98,-0.0485,-0.0055,0.988,-0.46,-0.18,0.0,30570.0,-3030.0,-33330.0
32.7643151,35.0164359,481.98,-0.0555,0.0075,0.999,-0.24,-0.12,0.04,30550.0,-3040.0,-33330.0
32.7643151,35.0164359,481.98,-0.05775,0.011,1.00525,0.42,0.18,-0.04,30580.0,-3070.0,-33330.0
32.7643151,35.0164359,481.98,-0.05675,-0.0115,0.995,-0.16,0.46,-0.04,30590.0,-3120.0,-33330.0
32.7643151,35.0164359,481.98,-0.06375,-0.0085,0.9965,-0.46,0.34,0.02,30600.0,-3150.0,-33330.0
32.7643151,35.0164359,481.98,-0.06425,0.021,1.0085,0.5,0.18,0.0,30610.0,-3110.0,-33330.0
32.7643151,35.0164359,481.98,-0.055,0.01675,0.99875,0.62,0.02,0.02,30580.0,-3090.0,-33330.0
32.7643151,35.0164359,481.98,-0.0485,-0.01225,0.98725,-0.74,-0.14,0.04,30590.0,-3130.0,-33330.0
32.7643151,35.0164359,481.98,-0.05675,-0.0065,0.9935,-0.52,-0.08,0.04,30620.0,-3160.0,-33330.0
32.7643151,35.0164359,481.98,-0.0585,0.01675,1.00725,0.9,0.14,-0.02,30610.0,-3160.0,-33330.0
32.7643151,35.0164359,481.98,-0.05625,0.00875,1.0015,0.5,0.36,-0.1,30600.0,-3150.0,-33330.0
32.7643151,35.0164359,481.98,-0.0625,-0.004,0.99,-0.78,0.32,0.02,30640.0,-3180.0,-33320.0
32.7643151,35.0164359,481.98,-0.06875,0.00275,0.99625,-0.2,0.28,0.04,30650.0,-3130.0,-33320.0
32.7643151,35.0164359,481.98,-0.0595,0.0095,0.99875,0.74,-0.12,-0.04,30660.0,-3120.0,-33320.0
32.7643151,35.0164359,481.98,-0.048,-0.00375,0.9915,-0.08,-0.44,-0.1,30670.0,-3150.0,-33320.0
32.7643151,35.0164359,481.98,-0.05375,0.003,0.99225,-0.52,-0.36,-0.02,30690.0,-3120.0,-33320.0
32.7643151,35.0164359,481.98,-0.06,0.01475,1.0,0.16,0.02,0.02,30680.0,-3100.0,-33320.0
32.7643151,35.0164359,481.98,-0.0595,-0.004,0.9975,0.14,0.5,-0.02,30670.0,-3110.0,-33320.0
32.7643151,35.0164359,481.98,-0.06175,-0.016,0.993,-0.56,0.26,-0.06,30620.0,-3070.0,-33320.0
32.7643151,35.0164359,481.98,-0.06675,0.00975,1.00125,0.04,-0.04,-0.04,30610.0,-3070.0,-33320.0
32.7643151,35.0164359,481.98,-0.058,0.0235,1.00075,0.78,-0.3,-0.04,30620.0,-3100.0,-33320.0
32.7643151,35.0164359,481.98,-0.04925,-0.0055,0.987,-0.38,-0.36,0.02,30580.0,-3060.0,-33330.0
32.7643151,35.0164359,481.98,-0.054,-0.01325,0.992,-0.84,-0.2,-0.02,30580.0,-3090.0,-33330.0
32.7643151,35.0164359,481.98,-0.062,0.012,1.00875,0.42,0.12,0.0,30610.0,-3120.0,-33320.0
32.7643151,35.0164359,481.98,-0.05925,0.0165,1.004,0.8,0.38,-0.02,30620.0,-3120.0,-33320.0
32.7643151,35.0164359,481.98,-0.06075,-0.0035,0.9915,-0.62,0.26,0.02,30620.0,-3160.0,-33320.0
32.7643151,35.0164359,481.98,-0.0665,-0.00125,0.995,-0.6,0.04,0.02,30650.0,-3190.0,-33320.0
32.7643151,35.0164359,481.98,-0.06175,0.0115,1.006,0.6,-0.16,0.0,30640.0,-3180.0,-33320.0
32.7643151,35.0164359,481.98,-0.049,0.0015,0.99825,0.24,-0.34,-0.02,30620.0,-3160.0,-33320.0
32.7643151,35.0164359,481.98,-0.049,-0.00225,0.99225,-0.52,-0.26,-0.02,30610.0,-3170.0,-33320.0
32.7643151,35.0164359,481.98,-0.059,0.01325,0.99875,0.0,0.04,0.02,30600.0,-3150.0,-33320.0
32.7643151,35.0164359,481.98,-0.061,0.0065,0.999,0.48,0.5,-0.02,30610.0,-3110.0,-33320.0
32.7643151,35.0164359,481.98,-0.06075,-0.01675,0.99275,-0.32,0.42,-0.02,30650.0,-3160.0,-33320.0
32.7643151,35.0164359,481.98,-0.06575,-0.0015,0.998,-0.26,0.14,0.06,30660.0,-3180.0,-33320.0
32.7643151,35.0164359,481.98,-0.0615,0.0265,1.0055,0.78,-0.28,0.0,30630.0,-3120.0,-33320.0
32.7643151,35.0164359,481.98,-0.0495,0.00875,0.9905,0.18,-0.36,0.0,30620.0,-3140.0,-33320.0
32.7643151,35.0164359,481.98,-0.047,-0.0175,0.9855,-0.98,-0.24,0.0,30640.0,-3220.0,-33320.0
32.7643151,35.0164359,481.98,-0.058,0.001,1.00025,-0.12,0.08,0.06,30620.0,-3190.0,-33320.0
32.7643151,35.0164359,481.98,-0.06,0.022,1.008,1.0,0.4,0.0,30620.0,-3190.0,-33320.0
32.7643151,35.0164359,481.98,-0.059,0.003,0.99175,-0.02,0.4,-0.08,30670.0,-3270.0,-33320.0
32.7643151,35.0164359,481.98,-0.06475,-0.0085,0.98825,-0.9,0.2,0.04,30680.0,-3280.0,-33320.0
32.7643151,35.0164359,481.98,-0.067,0.0055,1.00325,0.16,0.0,0.06,30650.0,-3260.0,-33320.0
32.7643151,35.0164359,481.98,-0.055,0.00625,0.99975,0.6,-0.2,-0.04,30650.0,-3260.0,-33320.0
32.7643151,35.0164359,481.98,-0.04575,-0.00625,0.99075,-0.46,-0.36,-0.04,30640.0,-3230.0,-33320.0
32.7643151,35.0164359,481.98,-0.0545,0.00525,0.99475,-0.4,-0.14,0.06,30660.0,-3250.0,-33320.0
32.7643151,35.0164359,481.98,-0.06075,0.01225,1.0015,0.54,0.36,0.0,30790.0,-3400.0,-33310.0
32.7643151,35.0164359,481.98,-0.0595,-0.011,0.997,-0.04,0.44,0.02,30920.0,-3480.0,-33310.0
32.7643151,35.0164359,481.98,-0.0645,-0.01475,0.99325,-0.68,0.26,0.02,30950.0,-3490.0,-33300.0
32.7643151,35.0164359,481.98,-0.06625,0.015,1.00775,0.44,-0.2,-0.06,30960.0,-3550.0,-33300.0
32.7643151,35.0164359,481.98,-0.0575,0.02325,1.0015,0.78,-0.36,-0.02,30980.0,-3550.0,-33300.0
32.7643151,35.0164359,481.98,-0.04875,-0.00925,0.98525,-0.66,-0.32,-0.02,30990.0,-3510.0,-33300.0
32.7643151,35.0164359,481.98,-0.0565,-0.01075,0.9935,-0.76,-0.06,0.12,30880.0,-3390.0,-33310.0
32.7643151,35.0164359,481.98,-0.062,0.01625,1.01325,0.76,0.18,-0.02,30780.0,-3240.0,-33320.0
32.7643151,35.0164359,481.98,-0.059,0.015,1.0035,0.68,0.4,-0.06,30700.0,-3150.0,-33320.0
32.7643151,35.0164359,481.98,-0.06125,-0.0045,0.98675,-0.78,0.2,0.0,30660.0,-3160.0,-33320.0
32.7643151,35.0164359,481.98,-0.06775,0.0015,0.9945,-0.54,-0.02,0.02,30670.0,-3190.0,-33320.0
32.7643151,35.0164359,481.98,-0.0605,0.01125,1.00775,0.72,-0.18,0.04,30640.0,-3140.0,-33320.0
32.7643151,35.0164359,481.98,-0.049,-0.00175,0.9965,0.1,-0.32,-0.04,30640.0,-3140.0,-33320.0
32.7643151,35.0164359,481.98,-0.05075,0.00075,0.98825,-0.66,-0.22,0.02,30670.0,-3180.0,-33320.0
32.7643151,35.0164359,481.98,-0.06,0.0155,0.99675,0.14,0.06,0.1,30660.0,-3190.0,-33320.0
32.7643151,35.0164359,481.98,-0.06,0.00375,0.99925,0.38,0.42,-0.02,30670.0,-3200.0,-33320.0
32.7643151,35.0164359,481.98,-0.06025,-0.01725,0.99325,-0.52,0.28,0.08,30640.0,-3150.0,-33320.0
32.7643151,35.0164359,481.98,-0.06425,0.00325,0.99925,-0.14,0.0,0.06,30640.0,-3130.0,-33320.0
32.7643151,35.0164359,481.98,-0.05925,0.02825,1.004,0.94,-0.32,-0.02,30680.0,-3180.0,-33320.0
32.7643151,35.0164359,481.98,-0.048,0.00675,0.9875,0.06,-0.34,-0.04,30710.0,-3230.0,-33320.0
32.7643151,35.0164359,481.98,-0.04975,-0.01525,0.98575,-1.18,-0.22,0.04,30720.0,-3150.0,-33320.0
32.7643151,35.0164359,481.98,-0.06,0.00525,1.005,0.0,0.08,0.06,30650.0,-3100.0,-33320.0
32.7643151,35.0164359,481.98,-0.0595,0.02125,1.00825,1.1,0.34,-0.04,30680.0,-3140.0,-33320.0
32.7643151,35.0164359,481.98,-0.05775,0.002,0.991,-0.2,0.28,-0.02,30710.0,-3140.0,-33320.0
32.7643151,35.0164359,481.98,-0.06425,-0.0045,0.98875,-1.0,0.2,0.06,30710.0,-3170.0,-33320.0
32.7643151,35.0164359,481.98,-0.06525,0.0095,1.004,0.3,-0.1,0.0,30700.0,-3150.0,-33320.0
32.7643151,35.0164359,481.98,-0.05325,0.0065,1.00325,0.68,-0.3,-0.06,30660.0,-3070.0,-33320.0
32.7643151,35.0164359,481.98,-0.0475,-0.006,0.989,-0.52,-0.24,0.04,30670.0,-3070.0,-33320.0
32.7643151,35.0164359,481.98,-0.05625,0.00725,0.9955,-0.42,0.04,0.02,30690.0,-3100.0,-33320.0
32.7643151,35.0164359,481.98,-0.06275,0.01325,1.004,0.54,0.44,-0.08,30690.0,-3070.0,-33320.0
32.7643151,35.0164359,481.98,-0.06125,-0.01075,0.9975,-0.02,0.52,-0.12,30670.0,-3060.0,-33320.0
32.7643151,35.0164359,481.98,-0.06475,-0.0145,0.9945,-0.64,0.24,0.02,30650.0,-3030.0,-33320.0
32.7643151,35.0164359,481.98,-0.066,0.01575,1.00325,0.56,-0.1,-0.02,30610.0,-3010.0,-33330.0
32.7643151,35.0164359,481.98,-0.0545,0.018,1.0,0.76,-0.34,-0.06,30600.0,-2950.0,-33330.0
32.7643151,35.0164359,481.98,-0.04875,-0.01325,0.98625,-0.72,-0.16,-0.02,30610.0,-3010.0,-33320.0
32.7643151,35.0164359,481.98,-0.056,-0.0095,0.99475,-0.7,0.12,0.0,30620.0,-3030.0,-33320.0
32.7643151,35.0164359,481.98,-0.062,0.0165,1.00875,0.94,0.38,-0.02,30590.0,-2980.0,-33330.0
32.7643151,35.0164359,481.98,-0.05925,0.012,0.9975,0.68,0.54,-0.08,30630.0,-3020.0,-33320.0
32.7643151,35.0164359,481.98,-0.0635,-0.00775,0.98725,-0.8,0.38,0.02,30680.0,-3030.0,-33320.0
32.7643151,35.0164359,481.98,-0.07,0.001,0.995,-0.4,0.14,-0.02,30660.0,-3020.0,-33320.0
32.7643151,35.0164359,481.98,-0.0615,0.0095,1.00525,0.8,-0.12,-0.02,30680.0,-3050.0,-33320.0
32.7643151,35.0164359,481.98,-0.0485,-0.0025,0.99375,0.14,-0.26,-0.1,30710.0,-3130.0,-33320.0
32.7643151,35.0164359,481.98,-0.05,-0.0005,0.98925,-0.64,-0.24,0.04,30740.0,-3130.0,-33320.0
32.7643151,35.0164359,481.98,-0.0585,0.01425,0.999,0.14,0.14,-0.06,30710.0,-3130.0,-33320.0
32.7643151,35.0164359,481.98,-0.05825,0.00075,0.99775,0.4,0.54,-0.06,30690.0,-3140.0,-33320.0
32.7643151,35.0164359,481.98,-0.06,-0.01775,0.9945,-0.52,0.44,0.06,30700.0,-3120.0,-33320.0
32.7643151,35.0164359,481.98,-0.0665,0.0045,1.0015,0.0,0.14,0.0,30670.0,-3140.0,-33320.0
32.7643151,35.0164359,481.98,-0.0605,0.0255,1.00425,0.86,-0.2,0.02,30700.0,-3190.0,-33320.0
32.7643151,35.0164359,481.98,-0.0495,0.001,0.9895,0.06,-0.3,-0.02,30730.0,-3200.0,-33320.0
32.7643151,35.0164359,481.98,-0.04975,-0.017,0.9865,-1.0,-0.2,-0.02,30750.0,-3220.0,-33320.0
32.7643151,35.0164359,481.98,-0.05875,0.006,1.0075,0.16,0.0,-0.02,30750.0,-3220.0,-33320.0
32.7643151,35.0164359,481.98,-0.0575,0.018,1.00875,1.06,0.4,-0.02,30730.0,-3200.0,-33320.0
32.7643151,35.0164359,481.98,-0.0575,0.0005,0.99225,-0.2,0.4,-0.02,30710.0,-3200.0,-33320.0
32.7643151,35.0164359,481.98,-0.06625,-0.00275,0.99325,-0.78,0.3,0.06,30730.0,-3230.0,-33320.0
32.7643151,35.0164359,481.98,-0.0675,0.0115,1.006,0.34,0.04,-0.06,30730.0,-3220.0,-33320.0
32.7643151,35.0164359,481.98,-0.05425,0.00375,0.99925,0.52,-0.26,-0.08,30700.0,-3210.0,-33320.0
32.7643151,35.0164359,481.98,-0.04925,-0.0035,0.99,-0.48,-0.4,-0.02,30630.0,-3210.0,-33320.0
32.7643151,35.0164359,481.98,-0.0585,0.011,0.99575,-0.26,-0.12,0.06,30620.0,-3220.0,-33320.0
32.7643151,35.0164359,481.98,-0.06075,0.00975,1.0025,0.44,0.26,0.02,30620.0,-3200.0,-33320.0
32.7643151,35.0164359,481.98,-0.06025,-0.01275,0.99425,-0.22,0.36,-0.1,30680.0,-3250.0,-33320.0
32.7643151,35.0164359,481.98,-0.06525,-0.00825,0.99525,-0.46,0.14,0.0,30700.0,-3270.0,-33320.0
32.7643151,35.0164359,481.98,-0.0665,0.02225,1.00525,0.6,-0.2,-0.04,30690.0,-3280.0,-33320.0
32.7643151,35.0164359,481.98,-0.05425,0.015,0.9935,0.48,-0.42,-0.04,30740.0,-3330.0,-33320.0
32.7643151,35.0164359,481.98,-0.0495,-0.012,0.984,-0.86,-0.36,-0.02,30740.0,-3320.0,-33320.0
32.7643151,35.0164359,481.98,-0.05875,-0.00075,1.00075,-0.38,-0.14,0.08,30700.0,-3260.0,-33320.0
32.7643151,35.0164359,481.98,-0.06025,0.02125,1.01125,0.9,0.18,0.02,30710.0,-3290.0,-33320.0
32.7643151,35.0164359,481.98,-0.05825,0.00925,0.99575,0.34,0.36,-0.02,30670.0,-3290.0,-33320.0
32.7643151,35.0164359,481.98,-0.06325,-0.00425,0.9875,-0.92,0.22,0.06,30690.0,-3260.0,-33320.0
32.7643151,35.0164359,481.98,-0.07,0.0065,0.9985,-0.26,-0.08,0.06,30690.0,-3260.0,-33320.0
32.7643151,35.0164359,481.98,-0.05675,0.00825,1.004,0.8,-0.3,-0.06,30690.0,-3280.0,-33320.0
32.7643151,35.0164359,481.98,-0.0475,-0.0035,0.99075,-0.2,-0.48,-0.02,30690.0,-3290.0,-33320.0
32.7643151,35.0164359,481.98,-0.053,0.0055,0.9925,-0.58,-0.2,-0.04,30700.0,-3280.0,-33320.0
32.7643151,35.0164359,481.98,-0.05975,0.015,1.002,0.3,0.24,0.0,30680.0,-3290.0,-33320.0
32.7643151,35.0164359,481.98,-0.05875,-0.006,0.997,0.08,0.5,0.0,30640.0,-3230.0,-33320.0
32.7643151,35.0164359,481.98,-0.063,-0.01375,0.993,-0.56,0.36,-0.06,30670.0,-3290.0,-33320.0
32.7643151,35.0164359,481.98,-0.0675,0.015,1.005,0.26,-0.02,-0.02,30700.0,-3340.0,-33320.0
32.7643151,35.0164358,481.97,-0.056,0.022,1.00075,0.82,-0.18,-0.04,30660.0,-3290.0,-33320.0
32.7643151,35.0164358,481.97,-0.047,-0.00875,0.986,-0.54,-0.34,-0.02,30630.0,-3220.0,-33320.0
32.7643151,35.0164358,481.97,-0.0535,-0.01225,0.9915,-0.94,-0.06,0.02,30650.0,-3250.0,-33320.0
32.7643151,35.0164358,481.97,-0.05925,0.01225,1.009,0.66,0.26,0.0,30710.0,-3310.0,-33320.0
32.7643151,35.0164358,481.97,-0.05675,0.0125,1.0015,0.76,0.48,-0.02,30750.0,-3350.0,-33320.0
32.7643151,35.0164358,481.97,-0.06125,-0.00225,0.99,-0.64,0.38,0.02,30750.0,-3360.0,-33320.0
32.7643151,35.0164358,481.97,-0.06975,0.004,0.99875,-0.6,0.14,0.06,30750.0,-3330.0,-33320.0
32.7643151,35.0164358,481.97,-0.061,0.00975,1.00625,0.62,-0.12,-0.04,30730.0,-3330.0,-33320.0
32.7643151,35.0164358,481.97,-0.0485,-0.00275,0.99675,0.14,-0.38,-0.04,30740.0,-3310.0,-33320.0
32.7643151,35.0164358,481.97,-0.0505,0.001,0.992,-0.66,-0.3,0.06,30730.0,-3310.0,-33320.0
32.7643151,35.0164358,481.97,-0.058,0.01275,0.9975,0.06,0.22,0.04,30680.0,-3220.0,-33320.0
32.7643151,35.0164358,481.97,-0.05925,-0.0045,0.99475,0.24,0.6,-0.02,30680.0,-3210.0,-33320.0
32.7643151,35.0164358,481.97,-0.0635,-0.02125,0.99175,-0.48,0.46,0.04,30700.0,-3260.0,-33320.0
32.7643151,35.0164358,481.97,-0.07025,0.00125,0.99875,0.04,0.0,0.02,30700.0,-3230.0,-33320.0
32.7643151,35.0164358,481.97,-0.0615,0.0215,0.99825,0.88,-0.36,-0.04,30700.0,-3250.0,-33320.0
32.7643151,35.0164358,481.97,-0.0505,0.00325,0.9875,0.0,-0.5,0.0,30710.0,-3240.0,-33320.0
32.7643151,35.0164358,481.97,-0.05275,-0.0075,0.9905,-0.86,-0.36,0.04,30660.0,-3180.0,-33320.0
32.7643151,35.0164358,481.97,-0.06,0.01025,1.00675,0.14,0.14,-0.02,30650.0,-3200.0,-33320.0
32.7643151,35.0164358,481.97,-0.05925,0.016,1.00375,0.78,0.4,-0.08,30680.0,-3260.0,-33320.0
32.7643151,35.0164358,481.97,-0.05975,0.0,0.991,-0.38,0.32,-0.02,30690.0,-3200.0,-33320.0
32.7643152,35.016436,481.99,-0.06675,-0.001,0.991,-0.8,0.1,0.02,30610.0,-3130.0,-33320.0
32.7643152,35.016436,481.99,-0.065,0.0065,1.001,0.22,-0.38,0.02,30640.0,-3200.0,-33320.0
32.7643152,35.016436,481.99,-0.0535,-0.00325,0.99725,0.26,-0.62,-0.02,30680.0,-3170.0,-33320.0
32.7643152,35.016436,481.99,-0.0485,-0.0065,0.98925,-0.52,-0.74,0.06,30720.0,-3180.0,-33320.0
32.7643152,35.016436,481.99,-0.05775,0.0125,1.0,-0.14,-0.36,0.04,30710.0,-3180.0,-33320.0
32.7643152,35.016436,481.99,-0.06,0.0125,1.00475,0.32,0.12,0.02,30710.0,-3150.0,-33320.0
32.7643152,35.016436,481.99,-0.05975,-0.009,0.99925,-0.4,0.26,0.08,30710.0,-3200.0,-33320.0
32.7643152,35.016436,481.99,-0.06525,-0.00325,1.00025,-0.56,-0.04,0.04,30710.0,-3220.0,-33320.0
32.7643152,35.016436,481.99,-0.0625,0.02025,1.00825,0.46,-0.52,0.02,30700.0,-3170.0,-33320.0
32.7643152,35.016436,481.99,-0.05125,0.008,0.9965,0.22,-0.72,-0.02,30660.0,-3150.0,-33320.0
32.7643152,35.016436,481.99,-0.0475,-0.0155,0.9885,-1.04,-0.76,0.04,30720.0,-3210.0,-33320.0
32.7643152,35.016436,481.99,-0.057,-0.00225,0.99825,-0.56,-0.48,0.1,30860.0,-3320.0,-33310.0
32.7643152,35.016436,481.99,-0.05825,0.01575,1.00775,0.66,-0.18,0.1,30920.0,-3380.0,-33310.0
32.7643152,35.016436,481.99,-0.0575,0.0045,0.99675,-0.04,-0.08,0.02,30950.0,-3420.0,-33310.0
32.7643152,35.016436,481.99,-0.0645,-0.00175,0.99325,-1.06,-0.24,0.14,30970.0,-3470.0,-33300.0
32.7643152,35.016436,481.99,-0.0695,0.0105,1.00175,-0.38,-0.54,0.16,30970.0,-3470.0,-33300.0
32.7643152,35.016436,481.99,-0.05525,0.00475,1.00125,0.4,-0.84,0.08,30950.0,-3470.0,-33310.0
32.7643152,35.016436,481.99,-0.04425,-0.00675,0.99125,-0.36,-1.02,0.1,30830.0,-3320.0,-33310.0
32.7643152,35.016436,481.99,-0.0505,0.0065,0.9925,-0.78,-0.86,0.2,30730.0,-3220.0,-33320.0
32.7643152,35.016436,481.99,-0.057,0.0085,0.9935,-0.18,-0.46,0.14,30700.0,-3170.0,-33320.0
32.7643151,35.016436,482.0,-0.05675,-0.0155,0.9925,-0.24,-0.22,0.14,30640.0,-3080.0,-33320.0
32.7643151,35.016436,482.0,-0.06425,-0.01575,0.995,-0.62,-0.14,0.22,30620.0,-3020.0,-33320.0
32.7643151,35.016436,482.0,-0.06875,0.01625,1.0005,0.1,-0.46,0.16,30680.0,-3130.0,-33320.0
32.7643151,35.016436,482.0,-0.05725,0.01875,0.9965,0.66,-0.72,0.08,30680.0,-3170.0,-33320.0
32.7643151,35.016436,482.0,-0.04775,-0.0065,0.9875,-0.56,-0.98,0.1,30690.0,-3150.0,-33320.0
32.7643151,35.016436,482.0,-0.05475,-0.00525,0.99025,-1.12,-0.86,0.22,30660.0,-3200.0,-33320.0
32.7643151,35.016436,482.0,-0.057,0.014,1.00425,0.18,-0.58,0.18,30700.0,-3260.0,-33320.0
32.7643151,35.016436,482.0,-0.0555,0.00675,1.005,0.54,-0.18,0.04,30700.0,-3250.0,-33320.0
32.7643151,35.016436,482.0,-0.0585,-0.0015,0.99675,-0.48,0.16,0.12,30720.0,-3270.0,-33320.0
32.7643151,35.016436,482.0,-0.0695,0.00825,0.99925,-0.64,0.04,0.14,30710.0,-3280.0,-33320.0
32.7643151,35.016436,482.0,-0.06125,0.00875,0.9985,0.08,-0.28,0.06,30700.0,-3240.0,-33320.0
32.7643151,35.016436,482.0,-0.04925,-0.00475,0.99525,-0.1,-0.76,0.04,30730.0,-3270.0,-33320.0
32.7643151,35.016436,482.0,-0.052,0.00475,1.0005,-0.68,-1.22,0.2,30740.0,-3300.0,-33320.0
32.7643151,35.016436,482.0,-0.0575,0.0175,1.00625,-0.54,-1.02,0.22,30720.0,-3300.0,-33320.0
32.7643151,35.016436,482.0,-0.05575,-0.00325,1.0015,-0.6,-0.66,0.28,30660.0,-3260.0,-33320.0
32.7643151,35.016436,482.0,-0.05525,-0.01975,1.0005,-0.82,-0.4,0.22,30660.0,-3300.0,-33320.0
32.7643151,35.016436,482.0,-0.06025,0.00225,1.00375,-0.04,-0.26,0.16,30700.0,-3340.0,-33320.0
32.7643151,35.016436,482.0,-0.0515,0.01925,1.003,0.8,-0.08,0.02,30700.0,-3320.0,-33320.0
32.7643151,35.016436,482.0,-0.04425,-0.00475,0.991,0.14,-0.02,0.04,30720.0,-3360.0,-33320.0
32.7643151,35.016436,482.0,-0.05225,-0.014,0.9935,-1.02,-0.16,0.2,30750.0,-3410.0,-33320.0
32.7643152,35.016436,482.01,-0.0635,0.00725,1.001,-0.2,-0.18,0.14,30680.0,-3350.0,-33320.0
32.7643152,35.016436,482.01,-0.0565,0.011,1.00125,0.8,0.0,-0.02,30690.0,-3340.0,-33320.0
32.7643152,35.016436,482.01,-0.05475,-0.002,0.994,0.18,0.14,0.06,30710.0,-3370.0,-33320.0
32.7643152,35.016436,482.01,-0.06175,0.00275,0.99575,-0.74,0.24,0.18,30720.0,-3360.0,-33320.0
32.7643152,35.016436,482.01,-0.06,0.00925,0.99575,-0.14,0.04,0.06,30750.0,-3420.0,-33320.0
32.7643152,35.016436,482.01,-0.0475,-0.00125,0.994,0.36,-0.36,0.02,30780.0,-3450.0,-33310.0
32.7643152,35.016436,482.01,-0.04725,0.0015,0.99425,-0.16,-0.54,0.12,30770.0,-3370.0,-33320.0
32.7643152,35.016436,482.01,-0.0575,0.018,0.99725,-0.38,-0.3,0.12,30710.0,-3320.0,-33320.0
32.7643152,35.016436,482.01,-0.05875,0.0045,0.99175,-0.14,0.16,0.0,30700.0,-3350.0,-33320.0
32.7643152,35.016436,482.01,-0.059,-0.01675,0.98925,-0.28,0.34,0.12,30700.0,-3330.0,-33320.0
32.7643152,35.016436,482.01,-0.06675,-0.0025,0.997,-0.3,0.1,0.06,30670.0,-3340.0,-33320.0
32.7643152,35.016436,482.01,-0.062,0.01875,1.0005,0.48,-0.02,-0.04,30700.0,-3370.0,-33320.0
32.7643152,35.016436,482.01,-0.048,0.00475,0.9925,0.36,-0.36,-0.02,30710.0,-3340.0,-33320.0
32.7643152,35.016436,482.01,-0.04875,-0.00925,0.98925,-0.84,-0.62,0.06,30720.0,-3340.0,-33320.0
32.7643152,35.016436,482.01,-0.05825,0.0025,0.9945,-0.62,-0.48,0.06,30730.0,-3380.0,-33320.0
32.7643152,35.016436,482.01,-0.056,0.01175,1.002,0.44,-0.14,0.0,30700.0,-3340.0,-33320.0
32.7643152,35.016436,482.01,-0.0535,0.00275,1.0045,0.4,0.36,-0.02,30690.0,-3330.0,-33320.0
32.7643152,35.016436,482.01,-0.062,0.00475,1.004,-0.5,0.38,0.06,30700.0,-3330.0,-33320.0
32.7643152,35.016436,482.01,-0.06425,0.01275,1.00175,-0.34,0.28,0.14,30720.0,-3360.0,-33320.0
32.7643152,35.016436,482.01,-0.04975,0.0025,0.999,0.24,-0.3,0.0,30670.0,-3280.0,-33320.0
32.7643151,35.016436,482.0,-0.043,-0.00325,0.99975,-0.28,-0.74,-0.02,30610.0,-3270.0,-33320.0
32.7643151,35.016436,482.0,-0.05125,0.012,1.00525,-0.52,-0.62,0.04,30610.0,-3240.0,-33330.0
32.7643151,35.016436,482.0,-0.05425,0.01275,1.0035,-0.08,0.02,-0.02,30570.0,-3220.0,-33330.0
32.7643151,35.016436,482.0,-0.052,-0.0095,1.00075,-0.14,0.58,0.06,30630.0,-3290.0,-33320.0
32.7643151,35.016436,482.0,-0.0625,-0.00525,1.0055,-0.4,0.62,0.06,30660.0,-3310.0,-33320.0
32.7643151,35.016436,482.0,-0.0655,0.02,1.00825,0.28,0.48,0.0,30660.0,-3280.0,-33320.0
32.7643151,35.016436,482.0,-0.052,0.01475,0.9975,0.38,-0.04,-0.04,30680.0,-3310.0,-33320.0
32.7643151,35.016436,482.0,-0.048,-0.0065,0.99275,-0.7,-0.44,0.0,30730.0,-3360.0,-33320.0
32.7643151,35.016436,482.0,-0.057,0.00325,1.00225,-0.94,-0.54,0.04,30720.0,-3300.0,-33320.0
32.7643151,35.016436,482.0,-0.057,0.01775,1.00675,0.12,-0.18,-0.02,30710.0,-3300.0,-33320.0
32.7643151,35.016436,482.0,-0.0525,0.00625,0.999,0.14,0.26,-0.08,30680.0,-3280.0,-33320.0
32.7643151,35.016436,482.0,-0.06175,0.001,0.9965,-0.64,0.66,-0.02,30700.0,-3290.0,-33320.0
32.7643151,35.016436,482.0,-0.07075,0.00825,0.998,-0.54,0.8,-0.06,30750.0,-3340.0,-33320.0
32.7643151,35.016436,482.0,-0.06175,0.00125,0.9945,0.08,0.28,-0.08,30740.0,-3330.0,-33320.0
32.7643151,35.016436,482.0,-0.05325,-0.00825,0.9885,-0.36,-0.42,-0.02,30710.0,-3270.0,-33320.0
32.7643151,35.016436,482.0,-0.05675,0.0025,0.98775,-0.82,-0.78,-0.06,30700.0,-3300.0,-33320.0
32.7643151,35.016436,482.0,-0.05825,-0.0005,0.9885,-0.26,-0.52,-0.1,30720.0,-3270.0,-33320.0
32.7643151,35.016436,482.0,-0.053,-0.02325,0.98875,-0.1,0.14,-0.06,30700.0,-3230.0,-33320.0
32.7643151,35.016436,482.0,-0.05925,-0.02,0.99175,-0.3,0.68,0.02,30690.0,-3240.0,-33320.0
32.7643151,35.016436,482.0,-0.064,0.00525,0.99425,0.28,0.66,-0.08,30690.0,-3250.0,-33320.0
32.7643151,35.016436,482.0,-0.05525,0.00425,0.9875,0.56,0.22,-0.08,30670.0,-3270.0,-33320.0
32.7643151,35.016436,482.0,-0.048,-0.01575,0.9825,-0.34,-0.36,0.0,30670.0,-3260.0,-33320.0
32.7643151,35.016436,482.0,-0.051,-0.01,0.98975,-0.68,-0.66,0.06,30730.0,-3320.0,-33320.0
32.7643151,35.016436,482.0,-0.05325,0.0045,1.00425,0.12,-0.66,0.14,30740.0,-3330.0,-33320.0
32.7643151,35.016436,482.0,-0.04775,0.0,1.00425,0.1,-0.42,0.16,30730.0,-3340.0,-33320.0
32.7643151,35.016436,482.0,-0.05225,-0.00675,0.994,-0.84,-0.12,0.2,30740.0,-3340.0,-33320.0
32.7643151,35.016436,482.0,-0.0585,0.001,0.996,-0.54,-0.02,0.18,30720.0,-3330.0,-33320.0
32.7643151,35.016436,482.0,-0.0515,-0.00125,1.003,0.24,-0.02,0.08,30740.0,-3330.0,-33320.0
32.7643151,35.016436,482.0,-0.0425,-0.01225,1.002,0.04,-0.26,-0.02,30760.0,-3340.0,-33320.0
32.7643151,35.016436,482.0,-0.044,-0.003,1.0005,-0.56,-0.34,0.06,30720.0,-3320.0,-33320.0
32.7643151,35.016436,482.0,-0.05225,0.00675,1.003,-0.04,-0.04,0.1,30700.0,-3290.0,-33320.0
32.7643151,35.016436,482.0,-0.05425,-0.011,1.0045,0.0,0.34,0.06,30710.0,-3280.0,-33320.0
32.7643151,35.016436,482.0,-0.0575,-0.01975,1.0075,-0.38,0.5,0.02,30720.0,-3280.0,-33320.0
32.7643151,35.016436,482.0,-0.06425,0.00925,1.01525,0.12,0.34,0.04,30690.0,-3210.0,-33320.0
32.7643151,35.016436,482.0,-0.05775,0.02875,1.01525,0.76,0.04,-0.08,30690.0,-3180.0,-33320.0
32.7643151,35.016436,482.0,-0.04775,0.00875,1.0045,-0.3,-0.14,0.0,30680.0,-3220.0,-33320.0
32.7643151,35.016436,482.0,-0.05525,0.00275,1.00675,-1.22,-0.22,0.0,30690.0,-3210.0,-33320.0
32.7643151,35.016436,482.0,-0.06525,0.02275,1.0155,-0.28,-0.04,-0.08,30660.0,-3240.0,-33320.0
32.7643151,35.016436,482.0,-0.0595,0.02825,1.019,0.48,0.32,-0.16,30670.0,-3260.0,-33320.0
32.7643151,35.016436,482.0,-0.06375,0.0165,1.01175,-0.64,0.66,-0.14,30670.0,-3190.0,-33320.0
32.7643151,35.016436,482.0,-0.07525,0.0195,1.00825,-1.42,0.6,-0.04,30610.0,-3170.0,-33330.0
32.7643151,35.016436,482.0,-0.07325,0.02025,1.00675,-0.54,0.18,-0.14,30630.0,-3210.0,-33320.0
32.7643151,35.016436,482.0,-0.06,0.01225,1.0045,-0.28,-0.5,-0.2,30650.0,-3230.0,-33320.0
32.7643151,35.016436,482.0,-0.05725,0.0205,1.00425,-0.94,-0.64,-0.1,30670.0,-3280.0,-33320.0
32.7643151,35.016436,482.0,-0.06475,0.0275,1.0035,-1.06,-0.32,-0.12,30690.0,-3340.0,-33320.0
32.7643151,35.016436,482.0,-0.0655,0.005,0.9965,-0.74,0.28,-0.16,30680.0,-3340.0,-33320.0
32.7643151,35.016436,482.0,-0.06675,-0.01025,0.999,-0.8,0.46,-0.04,30690.0,-3390.0,-33320.0
32.7643151,35.016436,482.0,-0.072,0.01075,0.9995,-0.5,0.32,-0.12,30670.0,-3390.0,-33320.0
32.7643151,35.016436,482.0,-0.06575,0.02025,0.9935,-0.2,-0.16,-0.1,30650.0,-3380.0,-33320.0
32.7643151,35.016436,482.0,-0.05375,-0.00225,0.98625,-0.78,-0.62,-0.1,30640.0,-3390.0,-33320.0
32.7643151,35.016436,482.0,-0.0535,-0.01,0.9855,-1.36,-0.82,0.04,30620.0,-3390.0,-33320.0
32.7643151,35.016436,482.0,-0.059,0.00175,0.9905,-0.54,-0.68,-0.02,30650.0,-3400.0,-33320.0
32.7643151,35.016436,482.0,-0.0545,0.003,0.99475,0.24,-0.08,0.04,30670.0,-3460.0,-33320.0
32.7643151,35.016436,482.0,-0.056,-0.00325,0.99225,-0.5,0.22,0.1,30670.0,-3460.0,-33320.0
32.7643151,35.016436,482.0,-0.06575,0.0,0.9845,-1.16,0.24,0.14,30650.0,-3460.0,-33320.0
32.7643151,35.016436,482.0,-0.064,-0.0035,0.98225,-0.56,-0.24,0.1,30610.0,-3410.0,-33320.0
32.7643151,35.016436,482.0,-0.05,-0.01375,0.9865,-0.3,-0.96,0.1,30590.0,-3420.0,-33320.0
32.7643151,35.016436,482.0,-0.04375,-0.0075,0.98725,-0.94,-1.32,0.14,30730.0,-3590.0,-33320.0
32.7643151,35.016436,482.0,-0.04875,0.0015,0.9855,-0.9,-0.96,0.14,30830.0,-3690.0,-33310.0
32.7643151,35.016436,482.0,-0.05075,-0.01675,0.98425,-0.62,-0.3,0.04,30910.0,-3720.0,-33310.0
32.7643152,35.016436,482.0,-0.05225,-0.0365,0.98925,-0.82,0.2,0.08,30900.0,-3720.0,-33310.0
32.7643152,35.016436,482.0,-0.05825,-0.023,0.99275,-0.62,0.1,-0.02,30880.0,-3720.0,-33310.0
32.7643152,35.016436,482.0,-0.055,-0.00825,0.98975,0.1,-0.32,-0.04,30920.0,-3760.0,-33310.0
32.7643152,35.016436,482.0,-0.04,-0.0225,0.987,-0.14,-0.92,-0.12,30800.0,-3670.0,-33310.0
32.7643152,35.016436,482.0,-0.037,-0.0395,0.98725,-1.1,-1.2,-0.02,30710.0,-3570.0,-33320.0
32.7643152,35.016436,482.0,-0.04425,-0.03125,0.98875,-0.64,-0.84,-0.12,30620.0,-3510.0,-33320.0
32.7643152,35.016436,482.0,-0.04325,-0.02425,0.9965,0.48,-0.22,-0.16,30620.0,-3550.0,-33320.0
32.7643152,35.016436,482.0,-0.04225,-0.03,0.9995,0.34,0.4,-0.06,30580.0,-3460.0,-33330.0
32.7643152,35.016436,482.0,-0.05,-0.02775,0.99175,-0.42,0.64,-0.06,30550.0,-3400.0,-33330.0
32.7643152,35.016436,482.0,-0.0525,-0.02175,0.989,0.0,0.14,0.0,30540.0,-3380.0,-33330.0
32.7643152,35.016436,482.0,-0.04225,-0.02825,0.99225,0.58,-0.44,-0.1,30520.0,-3380.0,-33330.0
32.7643152,35.016436,482.0,-0.03425,-0.028,0.99425,0.1,-0.78,0.02,30540.0,-3400.0,-33330.0
32.7643152,35.016436,482.0,-0.03875,-0.008,0.9955,0.02,-0.58,0.08,30560.0,-3400.0,-33330.0
32.7643152,35.016436,482.0,-0.04525,-0.00425,0.9965,0.52,0.16,0.04,30570.0,-3420.0,-33330.0
32.7643152,35.016436,482.0,-0.0485,-0.0225,0.99575,0.42,0.82,0.06,30590.0,-3480.0,-33320.0
32.7643152,35.016436,482.0,-0.056,-0.017,0.99725,0.02,0.96,0.08,30610.0,-3500.0,-33320.0
32.7643152,35.016436,482.0,-0.06025,0.01275,1.0005,0.8,0.46,0.1,30590.0,-3490.0,-33320.0
32.7643152,35.016436,482.0,-0.051,0.0185,0.997,1.08,-0.18,0.06,30530.0,-3370.0,-33330.0
32.7643152,35.016436,482.0,-0.04475,0.00175,0.9915,-0.14,-0.56,0.14,30540.0,-3390.0,-33330.0
32.7643152,35.016436,482.0,-0.05325,0.00375,0.99375,-0.54,-0.42,0.08,30570.0,-3410.0,-33330.0
32.7643152,35.016436,482.0,-0.059,0.01975,1.002,0.7,0.1,0.12,30550.0,-3380.0,-33330.0
32.7643152,35.016436,482.0,-0.057,0.01675,1.00375,0.94,0.64,0.04,30580.0,-3400.0,-33330.0
32.7643152,35.016436,482.0,-0.0625,0.01275,0.999,-0.18,0.86,0.08,30620.0,-3420.0,-33320.0
32.7643152,35.016436,482.0,-0.0715,0.02,0.99625,-0.34,0.5,0.06,30600.0,-3360.0,-33320.0
32.7643152,35.016436,482.0,-0.0635,0.016,0.996,0.46,-0.24,-0.04,30640.0,-3430.0,-33320.0
32.7643152,35.016436,482.0,-0.0505,0.0055,0.99575,0.22,-0.8,-0.04,30660.0,-3460.0,-33320.0
32.7643152,35.016436,482.0,-0.0525,0.01475,0.9985,-0.4,-0.78,0.06,30640.0,-3380.0,-33320.0
32.7643152,35.016436,482.0,-0.0605,0.02275,1.001,0.0,-0.14,-0.06,30610.0,-3340.0,-33320.0
32.7643152,35.016436,482.0,-0.05975,0.004,0.9985,0.08,0.54,-0.06,30610.0,-3360.0,-33320.0
32.7643152,35.016436,482.0,-0.06275,-0.006,0.99975,-0.28,0.76,0.06,30610.0,-3360.0,-33320.0
32.7643152,35.016436,482.0,-0.06775,0.01225,1.00075,-0.12,0.3,-0.08,30610.0,-3380.0,-33320.0
32.7643152,35.016436,482.0,-0.05725,0.02025,0.99875,0.4,-0.4,0.0,30620.0,-3380.0,-33320.0
32.7643152,35.016436,482.0,-0.045,0.00025,0.994,-0.36,-0.92,0.0,30620.0,-3330.0,-33320.0
32.7643152,35.016436,482.0,-0.047,-0.00875,0.995,-0.98,-0.8,0.02,30620.0,-3320.0,-33320.0
32.7643152,35.016436,482.0,-0.0545,0.0065,1.0015,-0.12,-0.26,-0.04,30620.0,-3350.0,-33320.0
32.7643152,35.016436,482.0,-0.0515,0.00525,1.004,0.62,0.48,0.0,30640.0,-3340.0,-33320.0
32.7643152,35.016436,482.0,-0.0535,-0.0085,0.99775,-0.32,0.78,0.02,30590.0,-3250.0,-33330.0
32.7643152,35.016436,482.0,-0.06225,-0.00525,0.996,-0.82,0.5,0.1,30570.0,-3280.0,-33330.0
32.7643152,35.016436,482.0,-0.05875,0.0,0.99625,0.04,-0.2,-0.04,30610.0,-3320.0,-33320.0
32.7643152,35.016436,482.0,-0.042,-0.01175,0.994,0.24,-0.9,-0.02,30610.0,-3360.0,-33320.0
32.7643151,35.0164361,482.01,-0.03975,-0.01225,0.9965,-0.56,-0.94,-0.06,30580.0,-3350.0,-33330.0
32.7643151,35.0164361,482.01,-0.04825,0.00225,1.00075,-0.44,-0.26,0.04,30530.0,-3290.0,-33330.0
32.7643151,35.0164361,482.01,-0.05,-0.00975,0.99625,0.16,0.48,0.06,30490.0,-3270.0,-33330.0
32.7643151,35.0164361,482.01,-0.05325,-0.0305,0.99325,-0.14,0.88,0.04,30520.0,-3300.0,-33330.0
32.7643151,35.0164361,482.01,-0.061,-0.0145,0.999,-0.2,0.58,-0.06,30550.0,-3330.0,-33330.0
32.7643151,35.0164361,482.01,-0.05725,0.0085,1.00275,0.54,-0.02,-0.06,30570.0,-3310.0,-33330.0
32.7643151,35.0164361,482.01,-0.04475,-0.00675,0.99175,0.22,-0.62,-0.08,30610.0,-3310.0,-33320.0
32.7643151,35.0164361,482.01,-0.04575,-0.02575,0.98725,-0.94,-0.68,0.02,30630.0,-3360.0,-33320.0
32.7643151,35.0164361,482.01,-0.05525,-0.013,0.99725,-0.36,-0.3,0.06,30600.0,-3300.0,-33330.0
32.7643151,35.0164361,482.01,-0.05525,-0.00175,1.00475,0.88,0.36,0.0,30580.0,-3280.0,-33330.0
32.7643151,35.0164361,482.01,-0.05525,-0.00975,0.999,0.42,0.82,-0.02,30540.0,-3300.0,-33330.0
32.7643151,35.0164361,482.01,-0.06375,-0.01075,0.9945,-0.52,0.7,0.04,30560.0,-3280.0,-33330.0
32.7643151,35.0164361,482.01,-0.065,-0.00375,0.99575,-0.08,0.08,-0.04,30580.0,-3300.0,-33330.0
32.7643151,35.0164361,482.01,-0.05225,-0.01025,0.99625,0.58,-0.58,-0.04,30580.0,-3330.0,-33330.0
32.7643151,35.0164361,482.01,-0.0445,-0.012,0.99575,0.0,-0.9,-0.02,30570.0,-3280.0,-33330.0
32.7643151,35.0164361,482.01,-0.0535,0.0055,0.9995,-0.16,-0.42,0.06,30540.0,-3300.0,-33330.0
32.7643151,35.0164361,482.01,-0.059,0.003,1.00025,0.26,0.38,0.0,30590.0,-3410.0,-33320.0
32.7643151,35.0164361,482.01,-0.0595,-0.017,0.996,0.18,0.9,-0.04,30610.0,-3350.0,-33320.0
32.7643151,35.0164361,482.01,-0.066,-0.00925,0.99875,-0.04,0.7,0.06,30560.0,-3340.0,-33330.0
32.7643151,35.0164361,482.01,-0.064,0.01775,1.004,0.58,-0.02,0.08,30560.0,-3370.0,-33330.0
32.7643151,35.0164361,482.0,-0.04975,0.01225,0.99525,0.48,-0.68,-0.04,30530.0,-3350.0,-33330.0
32.7643151,35.0164361,482.0,-0.045,-0.00875,0.9875,-0.64,-0.9,0.08,30520.0,-3320.0,-33330.0
32.7643151,35.0164361,482.0,-0.05375,0.0005,0.99725,-0.4,-0.44,0.12,30580.0,-3390.0,-33330.0
32.7643151,35.0164361,482.0,-0.05425,0.01575,1.0065,0.8,0.16,0.08,30590.0,-3380.0,-33330.0
32.7643151,35.0164361,482.0,-0.05375,0.00925,1.001,0.66,0.76,0.0,30590.0,-3420.0,-33320.0
32.7643151,35.0164361,482.0,-0.062,0.00375,0.9945,-0.56,0.76,0.1,30580.0,-3420.0,-33330.0
32.7643151,35.0164361,482.0,-0.066,0.00925,0.99425,-0.3,0.2,0.02,30610.0,-3440.0,-33320.0
32.7643151,35.0164361,482.0,-0.05275,0.0055,0.99775,0.36,-0.7,-0.04,30620.0,-3460.0,-33320.0
32.7643151,35.0164361,482.0,-0.0405,-0.00025,0.9975,0.04,-0.94,-0.08,30630.0,-3450.0,-33320.0
32.7643151,35.0164361,482.0,-0.0435,0.01125,0.99775,-0.5,-0.76,0.04,30590.0,-3420.0,-33320.0
32.7643151,35.0164361,482.0,-0.05075,0.0115,0.998,-0.06,0.12,0.02,30540.0,-3340.0,-33330.0
32.7643151,35.0164361,482.0,-0.05225,-0.0105,0.996,0.02,0.78,0.0,30540.0,-3370.0,-33330.0
32.7643151,35.0164361,482.0,-0.059,-0.014,0.996,-0.2,0.86,0.0,30570.0,-3400.0,-33330.0
32.7643151,35.0164361,482.0,-0.06525,0.0115,1.00125,0.14,0.28,0.0,30570.0,-3390.0,-33330.0
32.7643151,35.0164361,482.0,-0.05325,0.015,0.998,0.42,-0.36,-0.1,30580.0,-3400.0,-33320.0
32.7643151,35.0164361,482.0,-0.0435,-0.01125,0.98825,-0.64,-0.78,0.0,30590.0,-3410.0,-33320.0
32.7643151,35.0164361,482.0,-0.04825,-0.01525,0.99275,-0.88,-0.7,0.0,30540.0,-3360.0,-33330.0
32.7643151,35.0164361,482.0,-0.05175,0.002,1.00325,0.3,-0.02,0.02,30530.0,-3390.0,-33330.0
32.7643151,35.0164361,482.0,-0.0485,-0.00075,1.003,0.66,0.58,0.02,30560.0,-3420.0,-33330.0
32.7643151,35.0164361,482.0,-0.0575,-0.0105,0.996,-0.38,0.9,0.04,30550.0,-3340.0,-33330.0
32.7643151,35.0164361,482.01,-0.068,-0.0055,0.99575,-0.6,0.56,0.14,30500.0,-3340.0,-33330.0
32.7643151,35.0164361,482.01,-0.06225,-0.004,0.99675,0.3,-0.14,0.06,30540.0,-3410.0,-33330.0
32.7643151,35.0164361,482.01,-0.04875,-0.01475,0.99525,0.22,-0.74,0.0,30570.0,-3380.0,-33330.0
32.7643151,35.0164361,482.01,-0.04775,-0.007,0.99625,-0.48,-0.82,0.02,30520.0,-3330.0,-33330.0
32.7643151,35.0164361,482.01,-0.05325,0.0045,1.0005,-0.1,-0.22,0.08,30540.0,-3390.0,-33330.0
32.7643151,35.0164361,482.01,-0.05325,-0.01275,0.999,0.22,0.46,0.0,30570.0,-3420.0,-33330.0
32.7643151,35.0164361,482.01,-0.05675,-0.02575,0.9985,-0.1,0.8,-0.02,30600.0,-3440.0,-33320.0
32.7643151,35.0164361,482.01,-0.06475,-0.0005,1.00225,0.12,0.48,0.06,30610.0,-3470.0,-33320.0
32.7643151,35.0164361,482.01,-0.05875,0.0155,1.00075,0.7,-0.14,0.0,30590.0,-3450.0,-33320.0
32.7643151,35.0164361,482.01,-0.049,-0.008,0.98925,-0.12,-0.56,-0.04,30570.0,-3450.0,-33330.0
32.7643151,35.0164361,482.01,-0.052,-0.0195,0.99,-0.98,-0.64,0.02,30550.0,-3450.0,-33330.0
32.7643151,35.0164361,482.01,-0.058,0.001,1.00225,0.1,-0.24,0.0,30560.0,-3450.0,-33330.0
32.7643151,35.0164361,482.01,-0.0525,0.008,1.0065,0.94,0.34,-0.06,30560.0,-3370.0,-33330.0
32.7643151,35.0164361,482.01,-0.0525,-0.00475,0.9975,-0.04,0.72,-0.02,30550.0,-3390.0,-33330.0
32.7643151,35.0164361,482.01,-0.06325,-0.00425,0.9925,-0.82,0.52,0.04,30600.0,-3450.0,-33320.0
32.7643151,35.0164361,482.01,-0.0625,0.00175,0.995,0.18,-0.08,-0.04,30600.0,-3410.0,-33320.0
32.7643151,35.0164361,482.01,-0.048,-0.00625,0.99575,0.68,-0.66,0.0,30570.0,-3420.0,-33330.0
32.7643151,35.0164361,482.01,-0.04425,-0.00375,0.996,-0.22,-0.82,0.0,30560.0,-3390.0,-33330.0
32.7643151,35.0164361,482.01,-0.05225,0.01175,0.9995,-0.38,-0.36,0.02,30550.0,-3370.0,-33330.0
32.7643151,35.0164361,482.01,-0.0535,0.0015,0.9965,0.22,0.42,-0.04,30590.0,-3390.0,-33330.0
32.7643151,35.0164361,482.01,-0.05375,-0.0205,0.994,0.02,0.68,-0.02,30550.0,-3400.0,-33330.0
32.7643151,35.0164361,482.01,-0.061,-0.0045,0.99975,-0.1,0.46,0.02,30540.0,-3330.0,-33330.0
32.7643151,35.0164361,482.01,-0.058,0.0225,1.00425,0.62,-0.14,0.08,30590.0,-3390.0,-33320.0
32.7643151,35.0164361,482.01,-0.04525,0.0085,0.993,0.24,-0.48,-0.02,30740.0,-3520.0,-33320.0
32.7643151,35.0164361,482.01,-0.04475,-0.0145,0.988,-0.82,-0.62,0.06,30870.0,-3640.0,-33310.0
32.7643151,35.0164361,482.01,-0.05425,-0.002,0.99925,-0.34,-0.3,0.0,30950.0,-3680.0,-33310.0
32.7643151,35.0164361,482.01,-0.05225,0.01325,1.00725,0.9,0.24,-0.04,30970.0,-3710.0,-33300.0
32.7643151,35.0164361,482.01,-0.05175,0.00225,0.99975,0.42,0.7,-0.04,30920.0,-3670.0,-33310.0
32.7643151,35.0164361,482.01,-0.06275,-0.00175,0.9935,-0.78,0.64,0.12,30940.0,-3700.0,-33310.0
32.7643151,35.0164361,482.01,-0.06625,0.0055,0.997,-0.28,0.14,0.02,30820.0,-3580.0,-33310.0
32.7643151,35.0164361,482.01,-0.05175,-0.0015,0.99925,0.58,-0.48,0.02,30720.0,-3440.0,-33320.0
32.7643151,35.0164361,482.01,-0.043,-0.00725,0.996,-0.2,-0.8,-0.06,30630.0,-3320.0,-33320.0
32.7643151,35.0164361,482.01,-0.0495,0.00775,0.99775,-0.46,-0.48,-0.04,30640.0,-3330.0,-33320.0
32.7643151,35.0164361,482.01,-0.0545,0.007,0.99925,0.08,0.24,0.06,30640.0,-3360.0,-33320.0
32.7643151,35.0164361,482.01,-0.056,-0.0185,0.9955,-0.04,0.78,-0.04,30650.0,-3420.0,-33320.0
32.7643151,35.0164361,482.01,-0.0635,-0.0155,0.998,-0.32,0.64,0.04,30660.0,-3410.0,-33320.0
32.7643151,35.0164361,482.01,-0.065,0.01275,1.00375,0.26,0.1,0.0,30620.0,-3350.0,-33320.0
32.7643151,35.0164361,482.01,-0.052,0.0095,0.99575,0.5,-0.44,0.0,30610.0,-3340.0,-33320.0
32.7643151,35.0164361,482.01,-0.0455,-0.0175,0.98625,-0.74,-0.68,-0.06,30620.0,-3380.0,-33320.0
32.7643151,35.0164361,482.01,-0.0535,-0.01275,0.99375,-0.82,-0.52,0.1,30600.0,-3360.0,-33320.0
32.7643151,35.0164361,482.01,-0.0545,0.00575,1.00575,0.62,0.08,0.0,30550.0,-3310.0,-33330.0
32.7643151,35.0164361,482.01,-0.0515,-0.00125,1.00275,0.7,0.54,-0.1,30590.0,-3310.0,-33330.0
32.7643151,35.0164361,482.01,-0.0605,-0.00875,0.994,-0.54,0.82,0.02,30620.0,-3350.0,-33320.0
32.7643151,35.0164361,482.01,-0.06725,-0.001,0.994,-0.48,0.3,0.0,30580.0,-3310.0,-33330.0
32.7643151,35.0164361,482.01,-0.05625,-0.00325,0.996,0.52,-0.38,-0.02,30590.0,-3310.0,-33330.0
32.7643151,35.0164361,482.01,-0.043,-0.01375,0.99475,0.14,-0.84,-0.02,30580.0,-3320.0,-33330.0
32.7643151,35.0164361,482.01,-0.047,-0.0015,0.99725,-0.48,-0.68,0.02,30610.0,-3300.0,-33320.0
32.7643151,35.0164361,482.01,-0.052,0.00775,1.00025,0.0,0.0,0.06,30630.0,-3350.0,-33320.0
32.7643151,35.0164361,482.01,-0.05175,-0.01375,0.99625,0.24,0.64,-0.02,30630.0,-3370.0,-33320.0
32.7643151,35.0164361,482.01,-0.05775,-0.0215,0.99625,-0.28,0.76,0.02,30590.0,-3330.0,-33330.0
32.7643151,35.0164361,482.01,-0.06425,0.00525,1.00275,0.14,0.3,0.02,30570.0,-3330.0,-33330.0
32.7643151,35.0164361,482.01,-0.054,0.01475,0.99925,0.68,-0.26,-0.1,30590.0,-3340.0,-33330.0
32.7643151,35.0164361,482.01,-0.04425,-0.0105,0.989,-0.24,-0.66,0.02,30590.0,-3300.0,-33330.0
32.7643151,35.0164361,482.01,-0.0495,-0.0135,0.99275,-0.84,-0.56,0.1,30610.0,-3310.0,-33320.0
32.7643151,35.0164361,482.01,-0.0535,0.007,1.00525,0.38,-0.14,0.0,30620.0,-3320.0,-33320.0
32.7643151,35.0164361,482.01,-0.05,0.00575,1.0055,0.88,0.48,0.0,30600.0,-3280.0,-33320.0
32.7643151,35.0164361,482.01,-0.0555,-0.0065,0.996,-0.3,0.72,0.02,30550.0,-3260.0,-33330.0
32.7643151,35.0164361,482.01,-0.06575,-0.00025,0.994,-0.66,0.52,0.1,30550.0,-3320.0,-33330.0
32.7643151,35.0164361,482.01,-0.06075,0.00475,0.997,0.44,-0.14,-0.06,30600.0,-3350.0,-33320.0
32.7643151,35.0164361,482.01,-0.047,-0.00675,0.99525,0.28,-0.72,-0.04,30560.0,-3300.0,-33330.0
32.7643151,35.0164361,482.01,-0.0465,-0.003,0.995,-0.58,-0.68,0.06,30520.0,-3310.0,-33330.0
32.7643151,35.0164361,482.01,-0.0545,0.01,1.00025,-0.2,-0.2,0.06,30500.0,-3300.0,-33330.0
32.7643152,35.0164361,482.0,-0.05425,-0.00325,0.9975,0.32,0.44,0.0,30480.0,-3300.0,-33330.0
32.7643152,35.0164361,482.0,-0.05725,-0.01925,0.9945,-0.12,0.84,-0.06,30520.0,-3340.0,-33330.0
32.7643152,35.0164361,482.0,-0.06525,0.00175,1.00025,-0.08,0.5,0.04,30540.0,-3350.0,-33330.0
32.7643152,35.0164361,482.0,-0.05925,0.019,1.0015,0.58,-0.16,0.02,30550.0,-3380.0,-33330.0
32.7643152,35.0164361,482.0,-0.04675,-0.003,0.99125,-0.04,-0.62,-0.1,30600.0,-3420.0,-33320.0
32.7643152,35.0164361,482.0,-0.0485,-0.01625,0.99,-0.86,-0.7,0.06,30640.0,-3460.0,-33320.0
32.7643152,35.0164361,482.0,-0.0555,0.00325,1.00225,-0.12,-0.26,0.02,30580.0,-3350.0,-33330.0
32.7643152,35.0164361,482.0,-0.052,0.01125,1.00675,0.82,0.32,-0.04,30550.0,-3340.0,-33330.0
32.7643152,35.0164361,482.0,-0.0535,-0.00425,0.99675,0.06,0.74,0.02,30530.0,-3380.0,-33330.0
32.7643152,35.0164361,482.0,-0.064,-0.00425,0.99325,-0.84,0.62,0.12,30580.0,-3390.0,-33330.0
32.7643152,35.0164361,482.0,-0.06325,0.00425,0.9975,0.14,0.06,0.08,30580.0,-3420.0,-33320.0
32.7643152,35.0164361,482.0,-0.0475,-0.005,0.9975,0.46,-0.7,-0.08,30570.0,-3400.0,-33330.0
32.7643152,35.0164361,482.0,-0.04225,-0.00725,0.99525,-0.4,-0.86,-0.04,30570.0,-3350.0,-33330.0
32.7643152,35.0164361,482.0,-0.0505,0.007,0.99875,-0.56,-0.28,0.04,30530.0,-3350.0,-33330.0
32.7643152,35.0164361,482.0,-0.05325,0.00025,0.998,0.24,0.34,0.0,30590.0,-3430.0,-33320.0
32.7643152,35.0164361,482.0,-0.054,-0.02175,0.995,0.06,0.8,-0.02,30570.0,-3390.0,-33330.0
32.7643152,35.0164361,482.0,-0.0625,-0.00975,0.99925,-0.28,0.6,-0.02,30540.0,-3380.0,-33330.0
32.7643152,35.0164361,482.0,-0.061,0.016,1.0035,0.48,0.02,0.06,30540.0,-3410.0,-33330.0
32.7643152,35.0164361,482.0,-0.048,0.003,0.99375,0.34,-0.52,-0.1,30540.0,-3410.0,-33330.0
32.7643152,35.0164361,482.0,-0.04475,-0.0205,0.988,-0.78,-0.68,-0.02,30570.0,-3450.0,-33330.0
32.7643152,35.0164361,482.0,-0.05325,-0.0075,0.99825,-0.46,-0.42,0.04,30610.0,-3460.0,-33320.0
32.7643152,35.0164361,482.0,-0.05225,0.00975,1.00775,0.78,0.16,-0.04,30590.0,-3430.0,-33320.0
32.7643152,35.0164361,482.0,-0.051,-0.00175,1.0005,0.4,0.74,-0.08,30590.0,-3440.0,-33320.0
32.7643152,35.0164361,482.0,-0.06175,-0.00875,0.9935,-0.8,0.74,0.04,30590.0,-3440.0,-33320.0
32.7643152,35.0164361,482.0,-0.06725,0.00075,0.99575,-0.22,0.24,0.02,30570.0,-3440.0,-33330.0
32.7643152,35.0164361,482.0,-0.0535,-0.0025,0.99825,0.64,-0.46,0.02,30530.0,-3370.0,-33330.0
32.7643152,35.0164361,482.0,-0.04375,-0.00975,0.995,-0.06,-0.82,0.0,30540.0,-3380.0,-33330.0
32.7643152,35.0164361,482.0,-0.0495,0.00375,0.99675,-0.52,-0.56,0.06,30550.0,-3380.0,-33330.0
32.7643152,35.0164361,482.0,-0.055,0.0065,0.999,0.1,0.14,0.0,30510.0,-3370.0,-33330.0
32.7643152,35.0164361,482.0,-0.05425,-0.016,0.996,0.18,0.64,0.0,30570.0,-3430.0,-33330.0
32.7643152,35.0164361,482.0,-0.0605,-0.01725,0.9975,-0.26,0.72,0.04,30580.0,-3440.0,-33320.0
32.7643152,35.0164361,482.0,-0.06425,0.012,1.00275,0.26,0.14,-0.04,30590.0,-3430.0,-33320.0
32.7643152,35.0164361,482.0,-0.05325,0.015,0.99675,0.64,-0.4,-0.04,30600.0,-3420.0,-33320.0
32.7643152,35.0164361,482.0,-0.0455,-0.01475,0.98725,-0.44,-0.66,-0.04,30590.0,-3410.0,-33320.0
32.7643152,35.0164361,482.0,-0.05125,-0.014,0.994,-0.86,-0.44,0.14,30530.0,-3340.0,-33330.0
32.7643152,35.0164361,482.0,-0.05375,0.0095,1.006,0.62,-0.04,-0.04,30510.0,-3380.0,-33330.0
32.7643152,35.0164361,482.0,-0.04975,0.00775,1.00325,0.82,0.48,-0.08,30560.0,-3440.0,-33330.0
32.7643152,35.0164361,482.0,-0.05725,-0.007,0.99325,-0.48,0.7,0.0,30580.0,-3410.0,-33330.0
32.7643151,35.0164361,482.01,-0.06725,-0.0015,0.994,-0.7,0.44,0.1,30530.0,-3360.0,-33330.0
32.7643151,35.0164361,482.01,-0.0605,0.00275,0.99925,0.56,-0.28,0.0,30520.0,-3350.0,-33330.0
32.7643151,35.0164361,482.01,-0.04525,-0.00725,0.998,0.3,-0.76,-0.08,30550.0,-3340.0,-33330.0
32.7643151,35.0164361,482.01,-0.044,0.0,0.99625,-0.54,-0.78,0.06,30520.0,-3330.0,-33330.0
32.7643151,35.0164361,482.01,-0.05075,0.01175,0.999,-0.22,-0.12,-0.08,30540.0,-3340.0,-33330.0
32.7643151,35.0164361,482.01,-0.0505,-0.00625,0.99625,0.2,0.46,0.0,30560.0,-3320.0,-33330.0
32.7643151,35.0164361,482.01,-0.05525,-0.02325,0.99625,-0.16,0.76,0.02,30570.0,-3340.0,-33330.0
32.7643151,35.0164361,482.01,-0.065,0.0015,1.003,-0.04,0.42,0.06,30590.0,-3350.0,-33320.0
32.7643151,35.0164361,482.01,-0.0595,0.02225,1.00225,0.72,-0.06,-0.06,30600.0,-3380.0,-33320.0
32.7643151,35.0164361,482.01,-0.04825,-0.0025,0.98875,-0.06,-0.48,0.0,30570.0,-3340.0,-33330.0
32.7643151,35.0164361,482.01,-0.048,-0.01925,0.98775,-1.04,-0.58,0.08,30540.0,-3320.0,-33330.0
32.7643151,35.0164361,482.01,-0.05375,-0.00075,1.00175,-0.08,-0.36,0.08,30560.0,-3310.0,-33330.0
32.7643151,35.0164361,482.01,-0.04875,0.00975,1.008,0.98,0.18,-0.08,30570.0,-3350.0,-33330.0
32.7643151,35.0164361,482.01,-0.04975,-0.00475,0.99825,0.1,0.62,0.04,30630.0,-3420.0,-33320.0
32.7643151,35.0164361,482.01,-0.06275,-0.00625,0.993,-0.86,0.74,0.1,30660.0,-3450.0,-33320.0
32.7643151,35.0164361,482.01,-0.06575,0.00275,0.99625,-0.04,0.2,0.04,30610.0,-3380.0,-33320.0
32.7643151,35.0164361,482.01,-0.052,-0.0065,0.99575,0.64,-0.44,-0.08,30590.0,-3340.0,-33330.0
32.7643151,35.0164361,482.01,-0.046,-0.01025,0.994,-0.34,-0.74,0.02,30580.0,-3350.0,-33330.0
32.7643151,35.0164361,482.01,-0.0535,0.0055,0.99875,-0.4,-0.44,0.04,30590.0,-3340.0,-33330.0
32.7643151,35.0164361,482.01,-0.05525,0.00225,0.9995,0.28,0.22,-0.02,30600.0,-3370.0,-33320.0
32.7643151,35.0164361,482.01,-0.05325,-0.021,0.997,-0.02,0.64,0.06,30590.0,-3310.0,-33330.0
32.7643151,35.0164361,482.01,-0.06025,-0.013,0.99875,-0.36,0.52,0.1,30560.0,-3260.0,-33330.0
32.7643151,35.0164361,482.01,-0.06025,0.0155,1.00225,0.48,0.02,0.0,30560.0,-3290.0,-33330.0
32.7643151,35.0164361,482.01,-0.04925,0.0065,0.99275,0.54,-0.52,-0.02,30620.0,-3360.0,-33320.0
32.7643151,35.0164361,482.01,-0.046,-0.01925,0.987,-0.82,-0.58,0.08,30640.0,-3330.0,-33320.0
32.7643151,35.0164361,482.01,-0.05525,-0.00975,0.9985,-0.64,-0.34,0.06,30610.0,-3340.0,-33320.0
32.7643151,35.0164361,482.01,-0.05525,0.01125,1.00875,0.86,0.2,0.0,30620.0,-3350.0,-33320.0
32.7643151,35.0164361,482.01,-0.05125,0.0025,1.00075,0.6,0.62,-0.06,30600.0,-3300.0,-33320.0
32.7643151,35.0164361,482.01,-0.05875,-0.00875,0.991,-0.72,0.64,-0.04,30600.0,-3320.0,-33320.0
32.7643151,35.0164361,482.01,-0.06425,0.001,0.995,-0.4,0.16,0.06,30710.0,-3460.0,-33320.0
32.7643151,35.0164361,482.01,-0.0525,0.0005,1.0,0.68,-0.44,-0.02,30800.0,-3550.0,-33310.0
32.7643151,35.0164361,482.01,-0.04125,-0.00925,0.9985,0.1,-0.8,0.02,30900.0,-3660.0,-33310.0
32.7643151,35.0164361,482.01,-0.04675,0.0025,0.99825,-0.58,-0.36,0.0,30940.0,-3700.0,-33310.0
32.7643151,35.0164361,482.01,-0.05475,0.01125,0.999,0.06,0.16,0.02,30940.0,-3710.0,-33310.0
32.7643151,35.0164361,482.01,-0.05475,-0.01025,0.995,0.18,0.72,0.06,30940.0,-3700.0,-33310.0
32.7643151,35.0164361,482.01,-0.0595,-0.02025,0.99575,-0.34,0.68,0.04,30840.0,-3610.0,-33310.0
32.7643151,35.0164361,482.01,-0.06575,0.008,1.0025,0.1,0.1,-0.02,30710.0,-3520.0,-33320.0
32.7643151,35.0164361,482.01,-0.0555,0.01975,1.0,0.78,-0.36,-0.04,30660.0,-3470.0,-33320.0
32.7643151,35.0164361,482.01,-0.0445,-0.00725,0.9885,-0.2,-0.64,-0.02,30630.0,-3450.0,-33320.0
32.7643151,35.0164361,482.01,-0.04875,-0.01625,0.991,-1.06,-0.46,0.04,30610.0,-3370.0,-33320.0
32.7643152,35.0164361,482.01,-0.056,0.00425,1.0035,0.22,-0.06,0.06,30550.0,-3330.0,-33330.0
32.7643152,35.0164361,482.01,-0.05275,0.00775,1.00475,1.0,0.48,-0.06,30580.0,-3360.0,-33330.0
32.7643152,35.0164361,482.01,-0.056,-0.00625,0.995,-0.26,0.78,0.04,30640.0,-3430.0,-33320.0
32.7643152,35.0164361,482.01,-0.06675,-0.00075,0.994,-0.82,0.4,0.06,30590.0,-3340.0,-33320.0
32.7643152,35.0164361,482.01,-0.06175,0.005,0.99825,0.3,-0.14,0.02,30580.0,-3310.0,-33330.0
32.7643152,35.0164361,482.01,-0.0465,-0.008,0.99575,0.44,-0.74,-0.04,30590.0,-3390.0,-33320.0
32.7643152,35.0164361,482.01,-0.04375,-0.008,0.995,-0.54,-0.76,0.02,30610.0,-3390.0,-33320.0
32.7643152,35.0164361,482.01,-0.05225,0.009,1.00075,-0.24,-0.28,-0.02,30610.0,-3440.0,-33320.0
32.7643152,35.0164361,482.01,-0.05375,0.001,1.0,0.38,0.46,0.02,30640.0,-3450.0,-33320.0
32.7643152,35.0164361,482.01,-0.0545,-0.0205,0.99625,-0.06,0.84,0.04,30630.0,-3410.0,-33320.0
32.7643152,35.0164361,482.01,-0.06225,-0.00625,1.0005,-0.34,0.5,0.0,30600.0,-3390.0,-33320.0
32.7643152,35.0164361,482.01,-0.059,0.0175,1.00275,0.54,-0.18,-0.08,30630.0,-3410.0,-33320.0
32.7643152,35.0164361,482.01,-0.0465,0.00125,0.99075,0.26,-0.64,-0.06,30630.0,-3380.0,-33320.0
32.7643152,35.0164361,482.01,-0.04625,-0.01925,0.988,-0.86,-0.6,0.0,30560.0,-3330.0,-33330.0
32.7643152,35.0164361,482.01,-0.05625,-0.004,1.00075,-0.38,-0.2,0.04,30580.0,-3390.0,-33320.0
32.7643152,35.0164361,482.01,-0.05475,0.00975,1.008,0.98,0.36,-0.06,30610.0,-3430.0,-33320.0
32.7643152,35.0164361,482.01,-0.05225,-0.00425,0.9975,0.28,0.72,-0.04,30620.0,-3460.0,-33320.0
32.7643152,35.0164361,482.01,-0.06075,-0.009,0.98975,-0.82,0.46,0.12,30620.0,-3460.0,-33320.0
32.7643152,35.0164361,482.01,-0.063,0.00125,0.995,-0.24,-0.02,0.0,30610.0,-3430.0,-33320.0
32.7643152,35.0164361,482.01,-0.04875,-0.00425,0.998,0.66,-0.62,0.0,30580.0,-3410.0,-33330.0
32.7643152,35.0164361,482.01,-0.042,-0.011,0.9965,-0.22,-0.74,0.04,30530.0,-3410.0,-33330.0
32.7643152,35.0164361,482.01,-0.05125,0.0035,0.99925,-0.54,-0.26,0.04,30530.0,-3370.0,-33330.0
32.7643152,35.0164361,482.01,-0.05625,0.006,0.99875,0.24,0.4,0.02,30490.0,-3380.0,-33330.0
32.7643152,35.0164361,482.01,-0.05525,-0.0175,0.99375,0.18,0.76,0.0,30540.0,-3420.0,-33330.0
32.7643152,35.0164361,482.01,-0.06125,-0.015,0.99675,-0.34,0.5,-0.02,30570.0,-3490.0,-33330.0
32.7643152,35.0164361,482.01,-0.06175,0.014,1.0045,0.3,-0.16,-0.04,30580.0,-3420.0,-33320.0
32.7643152,35.0164361,482.01,-0.04925,0.0125,0.998,0.62,-0.52,-0.08,30560.0,-3420.0,-33330.0
32.7643152,35.0164361,482.01,-0.04325,-0.0145,0.9895,-0.54,-0.56,0.02,30580.0,-3430.0,-33320.0
32.7643152,35.0164361,482.01,-0.0525,-0.01025,0.9955,-0.72,-0.24,0.08,30550.0,-3400.0,-33330.0
32.7643152,35.0164361,482.01,-0.056,0.01025,1.006,0.62,0.28,-0.02,30560.0,-3420.0,-33330.0
32.7643152,35.0164361,482.01,-0.05325,0.00425,1.00075,0.78,0.66,-0.04,30550.0,-3420.0,-33330.0
32.7643152,35.0164361,482.01,-0.0615,-0.00675,0.9925,-0.58,0.7,-0.02,30560.0,-3400.0,-33330.0
32.7643152,35.0164361,482.01,-0.06825,0.002,0.99525,-0.5,0.2,0.02,30570.0,-3410.0,-33330.0
32.7643152,35.0164361,482.01,-0.05675,0.0025,0.9995,0.54,-0.48,0.04,30590.0,-3430.0,-33320.0
32.7643152,35.0164361,482.01,-0.043,-0.0095,0.9965,0.2,-0.8,-0.02,30570.0,-3430.0,-33330.0
32.7643152,35.0164361,482.01,-0.0455,-0.0005,0.99575,-0.58,-0.74,0.04,30590.0,-3470.0,-33320.0
32.7643152,35.0164361,482.01,-0.05225,0.00975,0.998,-0.02,-0.06,0.0,30600.0,-3450.0,-33320.0
32.7643152,35.0164361,482.01,-0.05275,-0.00975,0.99575,0.26,0.66,-0.02,30540.0,-3380.0,-33330.0
32.7643152,35.0164361,482.01,-0.05825,-0.0205,0.996,-0.24,0.74,0.04,30480.0,-3330.0,-33330.0
32.7643152,35.0164361,482.01,-0.06575,0.00575,1.0025,-0.02,0.28,0.04,30490.0,-3350.0,-33330.0
32.7643152,35.016436,482.0,-0.0565,0.01725,1.001,0.62,-0.32,0.04,30510.0,-3310.0,-33330.0
32.7643152,35.016436,482.0,-0.04575,-0.0095,0.989,-0.22,-0.6,-0.04,30510.0,-3330.0,-33330.0
32.7643152,35.016436,482.0,-0.0475,-0.0175,0.99125,-1.0,-0.62,0.1,30560.0,-3360.0,-33330.0
32.7643152,35.016436,482.0,-0.05225,0.00425,1.005,0.16,-0.14,-0.02,30570.0,-3340.0,-33330.0
32.7643152,35.016436,482.0,-0.0485,0.008,1.007,1.0,0.4,-0.04,30580.0,-3380.0,-33330.0
32.7643152,35.016436,482.0,-0.0525,-0.008,0.99725,-0.24,0.74,-0.04,30590.0,-3390.0,-33320.0
32.7643152,35.016436,482.0,-0.06475,-0.00475,0.9935,-0.78,0.58,0.06,30590.0,-3350.0,-33320.0
32.7643152,35.016436,482.0,-0.0635,0.004,0.99725,0.36,-0.06,0.06,30550.0,-3290.0,-33330.0
32.7643152,35.016436,482.0,-0.04925,-0.00525,0.996,0.58,-0.64,-0.04,30560.0,-3350.0,-33330.0
32.7643152,35.016436,482.0,-0.04575,-0.0045,0.994,-0.46,-0.7,-0.02,30610.0,-3380.0,-33320.0
32.7643152,35.016436,482.0,-0.05325,0.009,0.99825,-0.36,-0.34,-0.02,30560.0,-3340.0,-33330.0
32.7643152,35.016436,482.0,-0.05325,-0.00125,0.99825,0.3,0.36,-0.02,30600.0,-3360.0,-33320.0
32.7643152,35.016436,482.0,-0.0535,-0.022,0.9965,-0.08,0.7,-0.06,30610.0,-3370.0,-33320.0
32.7643152,35.016436,482.0,-0.06175,-0.00525,0.99975,-0.18,0.4,0.1,30590.0,-3330.0,-33320.0
32.7643152,35.016436,482.0,-0.05975,0.0195,1.0015,0.6,-0.08,0.0,30590.0,-3340.0,-33320.0
32.7643152,35.016436,482.0,-0.04975,0.0025,0.99075,0.18,-0.42,0.02,30600.0,-3330.0,-33320.0
32.7643152,35.016436,482.0,-0.04775,-0.0215,0.988,-0.98,-0.56,0.08,30560.0,-3290.0,-33330.0
32.7643152,35.016436,482.0,-0.05625,-0.0065,1.0005,-0.36,-0.3,-0.02,30570.0,-3330.0,-33330.0
32.7643152,35.016436,482.0,-0.05425,0.01175,1.009,1.02,0.22,-0.06,30610.0,-3390.0,-33320.0
32.7643152,35.016436,482.0,-0.05175,-0.0025,0.99975,0.32,0.66,-0.02,30610.0,-3300.0,-33320.0
32.7643152,35.0164361,482.01,-0.06025,-0.01025,0.99125,-0.9,0.56,0.06,30510.0,-3240.0,-33330.0
32.7643152,35.0164361,482.01,-0.06425,0.0005,0.99525,-0.26,0.06,-0.04,30540.0,-3300.0,-33330.0
32.7643152,35.0164361,482.01,-0.0505,-0.0005,0.999,0.82,-0.6,0.02,30570.0,-3320.0,-33330.0
32.7643152,35.0164361,482.01,-0.04125,-0.00925,0.9965,-0.06,-0.76,-0.04,30580.0,-3340.0,-33330.0
32.7643152,35.0164361,482.01,-0.04975,0.00225,0.998,-0.68,-0.42,0.02,30600.0,-3340.0,-33320.0
32.7643152,35.0164361,482.01,-0.05725,0.00675,0.999,0.16,0.26,0.1,30580.0,-3290.0,-33330.0
32.7643152,35.0164361,482.01,-0.056,-0.0155,0.9965,0.32,0.76,0.06,30570.0,-3240.0,-33330.0
32.7643152,35.0164361,482.01,-0.05925,-0.01725,0.99825,-0.3,0.6,0.0,30570.0,-3280.0,-33330.0
32.7643152,35.0164361,482.01,-0.0615,0.01225,1.0025,0.04,-0.04,0.04,30590.0,-3300.0,-33330.0
32.7643152,35.0164361,482.01,-0.05075,0.016,0.9965,0.64,-0.52,0.0,30590.0,-3310.0,-33320.0
32.7643152,35.0164361,482.01,-0.0425,-0.01475,0.98875,-0.44,-0.66,0.0,30560.0,-3330.0,-33330.0
32.7643152,35.0164361,482.01,-0.05,-0.0175,0.9955,-0.86,-0.32,0.04,30590.0,-3360.0,-33330.0
32.7643152,35.0164361,482.01,-0.058,0.0095,1.00675,0.54,0.2,0.04,30610.0,-3370.0,-33320.0
32.7643152,35.0164361,482.01,-0.0545,0.0105,1.0025,1.0,0.7,-0.04,30640.0,-3390.0,-33320.0
32.7643152,35.0164361,482.01,-0.05875,-0.0065,0.991,-0.5,0.78,0.06,30640.0,-3390.0,-33320.0
32.7643152,35.0164361,482.01,-0.066,-0.00225,0.99075,-0.88,0.2,0.12,30580.0,-3320.0,-33330.0
32.7643152,35.0164361,482.01,-0.05875,0.00625,0.99825,0.48,-0.5,-0.1,30530.0,-3310.0,-33330.0
32.7643152,35.0164361,482.01,-0.04275,-0.0035,0.998,0.5,-0.86,-0.1,30550.0,-3350.0,-33330.0
32.7643152,35.0164361,482.01,-0.0415,-0.002,0.99575,-0.52,-0.64,0.0,30540.0,-3300.0,-33330.0
32.7643152,35.0164361,482.01,-0.05275,0.01275,0.9975,-0.32,0.02,-0.02,30530.0,-3280.0,-33330.0
32.7643152,35.016436,482.0,-0.05575,0.001,0.9965,0.4,0.68,-0.04,30530.0,-3340.0,-33330.0
32.7643152,35.016436,482.0,-0.05675,-0.02125,0.99525,-0.1,0.82,-0.02,30540.0,-3360.0,-33330.0
32.7643152,35.016436,482.0,-0.06375,-0.004,1.00175,-0.34,0.34,0.02,30600.0,-3410.0,-33320.0
32.7643152,35.016436,482.0,-0.0605,0.02275,1.00425,0.46,-0.32,-0.02,30600.0,-3410.0,-33320.0
32.7643152,35.016436,482.0,-0.04725,0.004,0.99225,0.14,-0.7,-0.06,30600.0,-3390.0,-33320.0
32.7643152,35.016436,482.0,-0.04425,-0.02125,0.9885,-1.1,-0.68,0.1,30610.0,-3400.0,-33320.0
32.7643152,35.016436,482.0,-0.05375,-0.00575,1.0,-0.52,-0.18,0.02,30630.0,-3450.0,-33320.0
32.7643152,35.016436,482.0,-0.05425,0.0125,1.00825,1.02,0.36,-0.04,30600.0,-3420.0,-33320.0
32.7643152,35.016436,482.0,-0.0535,-0.00225,0.999,0.42,0.72,0.0,30590.0,-3430.0,-33320.0
32.7643152,35.016436,482.0,-0.06325,-0.01225,0.9915,-0.98,0.62,0.06,30590.0,-3450.0,-33320.0
32.7643152,35.016436,482.0,-0.068,-0.0015,0.99675,-0.3,0.08,0.04,30580.0,-3440.0,-33330.0
32.7643152,35.016436,482.0,-0.05375,-0.00275,0.9995,0.72,-0.6,0.0,30560.0,-3400.0,-33330.0
32.7643152,35.016436,482.0,-0.0415,-0.01275,0.99525,-0.08,-0.86,0.04,30580.0,-3410.0,-33320.0
32.7643152,35.016436,482.0,-0.04725,-0.00125,0.99675,-0.72,-0.5,0.06,30580.0,-3420.0,-33320.0
32.7643152,35.016436,482.0,-0.054,0.0045,0.99975,0.06,0.26,0.02,30580.0,-3460.0,-33320.0
32.7643152,35.016436,482.0,-0.05225,-0.0175,0.9975,0.28,0.66,0.02,30680.0,-3560.0,-33320.0
32.7643152,35.016436,482.0,-0.0585,-0.02125,0.9985,-0.24,0.64,0.04,30770.0,-3610.0,-33310.0
32.7643152,35.016436,482.0,-0.064,0.00775,1.00225,0.12,0.06,0.02,30810.0,-3620.0,-33310.0
32.7643152,35.016436,482.0,-0.05525,0.0135,0.9955,0.66,-0.32,-0.04,30860.0,-3710.0,-33310.0
32.7643152,35.016436,482.0,-0.0455,-0.0155,0.9865,-0.38,-0.6,-0.02,30880.0,-3730.0,-33310.0
32.7643152,35.0164361,482.01,-0.0485,-0.0185,0.994,-0.86,-0.46,0.04,30860.0,-3690.0,-33310.0
32.7643152,35.0164361,482.01,-0.05375,0.00475,1.007,0.34,-0.12,0.0,30810.0,-3670.0,-33310.0
32.7643152,35.0164361,482.01,-0.05,0.006,1.004,0.94,0.46,-0.06,30710.0,-3560.0,-33320.0
32.7643152,35.0164361,482.01,-0.05525,-0.01125,0.992,-0.34,0.66,0.04,30630.0,-3480.0,-33320.0
32.7643152,35.0164361,482.01,-0.0655,-0.00675,0.99125,-0.74,0.44,0.06,30640.0,-3500.0,-33320.0
32.7643152,35.0164361,482.01,-0.06325,0.00325,0.99925,0.52,-0.16,-0.08,30640.0,-3540.0,-33320.0
32.7643152,35.0164361,482.01,-0.0475,-0.005,0.99925,0.54,-0.68,-0.08,30630.0,-3500.0,-33320.0
32.7643152,35.0164361,482.01,-0.0435,-0.00475,0.99575,-0.52,-0.7,-0.02,30610.0,-3470.0,-33320.0
32.7643152,35.0164361,482.01,-0.0515,0.0085,0.9985,-0.3,-0.18,0.08,30600.0,-3480.0,-33320.0
32.7643152,35.0164361,482.01,-0.0525,0.00025,0.99825,0.44,0.46,-0.06,30590.0,-3450.0,-33320.0
32.7643152,35.0164361,482.01,-0.053,-0.01875,0.99775,0.1,0.68,0.02,30580.0,-3440.0,-33320.0
32.7643152,35.0164361,482.01,-0.06225,-0.004,1.002,-0.2,0.48,0.04,30600.0,-3440.0,-33320.0
32.7643152,35.0164361,482.01,-0.06275,0.02225,1.003,0.56,-0.04,0.02,30590.0,-3420.0,-33320.0
32.7643152,35.0164361,482.01,-0.05075,0.0065,0.9915,0.38,-0.34,-0.06,30600.0,-3460.0,-33320.0
32.7643152,35.0164361,482.01,-0.04625,-0.0185,0.98875,-0.9,-0.52,0.06,30630.0,-3470.0,-33320.0
32.7643152,35.0164361,482.01,-0.05425,-0.00425,1.0005,-0.42,-0.36,0.04,30610.0,-3440.0,-33320.0
32.7643152,35.0164361,482.01,-0.0525,0.01575,1.0075,0.88,0.12,0.0,30540.0,-3370.0,-33330.0
32.7643152,35.0164361,482.01,-0.05,0.00275,0.998,0.48,0.6,0.0,30560.0,-3380.0,-33330.0
32.7643152,35.0164361,482.01,-0.06125,-0.0075,0.99125,-0.86,0.68,0.1,30560.0,-3370.0,-33330.0
32.7643152,35.0164361,482.01,-0.06725,0.004,0.996,-0.3,0.24,0.04,30570.0,-3380.0,-33330.0
32.7643152,35.016436,482.0,-0.055,0.00275,0.99825,0.64,-0.44,-0.06,30540.0,-3370.0,-33330.0
32.7643152,35.016436,482.0,-0.04325,-0.00825,0.99475,-0.12,-0.68,-0.06,30510.0,-3300.0,-33330.0
32.7643152,35.016436,482.0,-0.0485,0.003,0.99525,-0.66,-0.56,0.06,30450.0,-3230.0,-33330.0
32.7643152,35.016436,482.0,-0.05425,0.011,0.9985,0.08,0.08,0.04,30520.0,-3310.0,-33330.0
32.7643152,35.016436,482.0,-0.0525,-0.0115,0.99675,0.28,0.62,-0.06,30550.0,-3360.0,-33330.0
32.7643152,35.016436,482.0,-0.0575,-0.0195,0.99775,-0.42,0.62,0.04,30560.0,-3320.0,-33330.0
32.7643152,35.016436,482.0,-0.06375,0.008,1.00225,0.04,0.18,0.02,30560.0,-3320.0,-33330.0
32.7643152,35.016436,482.0,-0.0555,0.0165,0.9965,0.66,-0.32,-0.02,30590.0,-3370.0,-33320.0
32.7643152,35.016436,482.0,-0.04525,-0.01325,0.988,-0.36,-0.58,-0.04,30590.0,-3330.0,-33330.0
32.7643152,35.016436,482.0,-0.04975,-0.0175,0.9945,-0.96,-0.48,0.06,30570.0,-3330.0,-33330.0
32.7643152,35.016436,482.0,-0.05425,0.00625,1.0065,0.28,-0.08,-0.08,30560.0,-3310.0,-33330.0
32.7643152,35.016436,482.0,-0.0505,0.0065,1.00475,0.94,0.34,-0.08,30580.0,-3330.0,-33330.0
32.7643152,35.016436,482.0,-0.0545,-0.01075,0.99375,-0.38,0.72,0.04,30610.0,-3390.0,-33320.0
32.7643152,35.016436,482.0,-0.0655,-0.0065,0.993,-0.8,0.44,0.06,30630.0,-3410.0,-33320.0
32.7643152,35.016436,482.0,-0.06325,0.003,0.99875,0.42,-0.14,0.0,30610.0,-3310.0,-33320.0
32.7643152,35.016436,482.0,-0.04775,-0.007,0.998,0.5,-0.6,-0.1,30550.0,-3270.0,-33330.0
32.7643152,35.016436,482.0,-0.0445,-0.00775,0.9955,-0.54,-0.64,-0.02,30560.0,-3330.0,-33330.0
32.7643152,35.016436,482.0,-0.05325,0.00575,0.99825,-0.4,-0.2,0.02,30580.0,-3340.0,-33330.0
32.7643152,35.016436,482.0,-0.054,-0.00275,0.99775,0.34,0.38,0.02,30590.0,-3380.0,-33330.0
32.7643152,35.016436,482.0,-0.05425,-0.02275,0.99625,-0.08,0.62,0.0,30600.0,-3370.0,-33330.0
32.7643152,35.016436,482.01,-0.0625,-0.0075,1.001,-0.26,0.42,0.08,30560.0,-3310.0,-33330.0
32.7643152,35.016436,482.01,-0.06175,0.0175,1.00325,0.46,-0.12,-0.02,30540.0,-3300.0,-33330.0
32.7643152,35.016436,482.01,-0.04875,0.0005,0.99175,0.28,-0.46,0.0,30580.0,-3340.0,-33330.0
32.7643152,35.016436,482.01,-0.0445,-0.0225,0.98825,-0.86,-0.58,0.04,30590.0,-3320.0,-33330.0
32.7643152,35.016436,482.01,-0.05225,-0.008,1.00025,-0.34,-0.32,0.04,30540.0,-3250.0,-33330.0
32.7643152,35.016436,482.01,-0.052,0.0115,1.009,0.94,0.16,0.0,30530.0,-3270.0,-33330.0
32.7643152,35.016436,482.01,-0.05075,-0.00075,0.9985,0.5,0.64,-0.06,30570.0,-3290.0,-33330.0
32.7643152,35.016436,482.01,-0.06025,-0.01125,0.98975,-0.82,0.66,0.08,30560.0,-3300.0,-33330.0
32.7643152,35.016436,482.01,-0.06675,0.0005,0.9955,-0.2,0.18,-0.04,30620.0,-3340.0,-33320.0
32.7643152,35.016436,482.01,-0.054,0.00125,0.99875,0.82,-0.46,0.0,30580.0,-3340.0,-33330.0
32.7643152,35.016436,482.01,-0.042,-0.00925,0.995,-0.06,-0.76,0.04,30540.0,-3310.0,-33330.0
32.7643152,35.016436,482.01,-0.048,0.001,0.995,-0.72,-0.46,0.06,30570.0,-3330.0,-33330.0
32.7643152,35.016436,482.01,-0.055,0.0085,0.99775,0.1,0.2,0.02,30600.0,-3360.0,-33320.0
32.7643152,35.016436,482.01,-0.05325,-0.011,0.997,0.42,0.64,-0.02,30580.0,-3360.0,-33330.0
32.7643152,35.016436,482.01,-0.05725,-0.0175,0.99825,-0.28,0.62,0.02,30590.0,-3390.0,-33320.0
32.7643152,35.016436,482.01,-0.06425,0.00925,1.00275,0.04,0.14,0.02,30570.0,-3370.0,-33330.0
32.7643152,35.016436,482.01,-0.055,0.016,0.99725,0.58,-0.3,-0.08,30520.0,-3300.0,-33330.0
32.7643152,35.016436,482.01,-0.04475,-0.0115,0.98875,-0.32,-0.6,-0.08,30490.0,-3300.0,-33330.0
32.7643152,35.016436,482.01,-0.049,-0.01475,0.99475,-0.9,-0.48,0.06,30490.0,-3310.0,-33330.0
32.7643152,35.016436,482.01,-0.0545,0.00975,1.00725,0.34,-0.04,-0.04,30500.0,-3290.0,-33330.0
32.7643152,35.016436,482.01,-0.0505,0.00975,1.005,0.86,0.48,-0.08,30490.0,-3350.0,-33330.0
32.7643152,35.016436,482.01,-0.055,-0.009,0.99425,-0.44,0.74,0.02,30510.0,-3360.0,-33330.0
32.7643152,35.016436,482.01,-0.06575,-0.00375,0.994,-0.78,0.44,0.04,30530.0,-3370.0,-33330.0
32.7643152,35.016436,482.01,-0.06125,0.00775,1.00025,0.52,-0.18,0.02,30550.0,-3460.0,-33330.0
32.7643152,35.016436,482.01,-0.0465,-0.00375,0.9975,0.44,-0.56,-0.12,30590.0,-3450.0,-33320.0
32.7643152,35.016436,482.01,-0.04475,-0.00575,0.994,-0.64,-0.66,0.04,30570.0,-3380.0,-33330.0
32.7643152,35.016436,482.01,-0.053,0.0075,0.99875,-0.48,-0.22,0.0,30530.0,-3360.0,-33330.0
32.7643152,35.016436,482.01,-0.05325,-0.00075,0.99875,0.52,0.38,-0.04,30560.0,-3460.0,-33330.0
32.7643152,35.016436,482.01,-0.05375,-0.0195,0.99675,0.02,0.64,0.0,30610.0,-3480.0,-33320.0
32.7643152,35.016436,482.01,-0.0625,-0.0045,0.99925,-0.28,0.46,0.02,30560.0,-3440.0,-33330.0
32.7643152,35.016436,482.01,-0.06025,0.0185,1.0,0.46,-0.1,-0.08,30530.0,-3420.0,-33330.0
32.7643152,35.016436,482.01,-0.0485,-0.00125,0.99025,0.16,-0.5,-0.02,30580.0,-3460.0,-33330.0
32.7643152,35.016436,482.01,-0.046,-0.02175,0.98925,-0.84,-0.56,0.06,30580.0,-3450.0,-33320.0
32.7643152,35.016436,482.01,-0.0545,-0.00425,1.001,-0.4,-0.28,-0.02,30590.0,-3450.0,-33320.0
32.7643152,35.016436,482.01,-0.053,0.012,1.007,0.94,0.2,0.0,30600.0,-3470.0,-33320.0
32.7643152,35.016436,482.01,-0.05125,-0.0035,0.997,0.24,0.64,-0.04,30600.0,-3460.0,-33320.0
32.7643152,35.016436,482.01,-0.061,-0.01175,0.99025,-0.9,0.6,0.08,30580.0,-3480.0,-33320.0
32.7643152,35.016436,482.01,-0.065,0.00025,0.996,-0.2,0.06,0.16,30600.0,-3510.0,-33320.0
32.7643152,35.016436,482.01,-0.05175,-0.0015,1.0,0.78,-0.5,-0.1,30570.0,-3410.0,-33330.0
32.7643152,35.016436,482.01,-0.0425,-0.0105,0.99675,-0.14,-0.76,-0.02,30550.0,-3390.0,-33330.0
32.7643152,35.016436,482.01,-0.0495,0.00025,0.9955,-0.62,-0.36,0.04,30530.0,-3450.0,-33330.0
32.7643152,35.016436,482.01,-0.0555,0.00525,0.99775,0.12,0.22,0.0,30560.0,-3470.0,-33330.0
32.7643152,35.016436,482.01,-0.05425,-0.0155,0.99675,0.36,0.58,-0.02,30610.0,-3510.0,-33320.0
32.7643152,35.016436,482.01,-0.058,-0.01875,0.9985,-0.28,0.56,0.06,30620.0,-3500.0,-33320.0
32.7643152,35.016436,482.01,-0.06425,0.01,1.00225,0.06,0.06,0.0,30620.0,-3470.0,-33320.0
32.7643152,35.016436,482.01,-0.05425,0.0135,0.997,0.7,-0.38,-0.06,30610.0,-3460.0,-33320.0
32.7643152,35.016436,482.01,-0.04475,-0.0145,0.989,-0.38,-0.62,-0.06,30630.0,-3440.0,-33320.0
32.7643152,35.016436,482.01,-0.04975,-0.01525,0.995,-0.84,-0.38,0.08,30600.0,-3380.0,-33320.0
32.7643152,35.016436,482.01,-0.05475,0.00925,1.0065,0.44,-0.04,-0.04,30550.0,-3350.0,-33330.0
32.7643152,35.016436,482.01,-0.051,0.0075,1.00325,0.86,0.46,-0.06,30550.0,-3360.0,-33330.0
32.7643152,35.016436,482.01,-0.055,-0.01025,0.994,-0.46,0.68,0.02,30560.0,-3360.0,-33330.0
32.7643152,35.016436,482.01,-0.0645,-0.003,0.99475,-0.68,0.28,0.08,30600.0,-3380.0,-33320.0
32.7643152,35.016436,482.01,-0.05925,0.0075,0.99975,0.62,-0.18,0.06,30590.0,-3390.0,-33320.0
32.7643152,35.016436,482.01,-0.046,-0.00425,0.99675,0.48,-0.74,-0.04,30580.0,-3350.0,-33330.0
32.7643152,35.016436,482.01,-0.04475,-0.0065,0.993,-0.6,-0.58,-0.02,30580.0,-3390.0,-33320.0
32.7643152,35.016436,482.01,-0.0545,0.008,0.9975,-0.32,-0.14,0.02,30580.0,-3390.0,-33320.0
32.7643152,35.016436,482.01,-0.0555,0.00025,0.999,0.52,0.48,0.02,30580.0,-3380.0,-33330.0
32.7643152,35.016436,482.01,-0.05425,-0.019,0.998,0.0,0.74,0.08,30550.0,-3330.0,-33330.0
32.7643152,35.016436,482.01,-0.06125,-0.0035,0.99975,-0.42,0.28,0.08,30580.0,-3380.0,-33330.0
32.7643152,35.016436,482.01,-0.059,0.01975,0.9995,0.52,-0.24,0.0,30620.0,-3420.0,-33320.0
32.7643152,35.016436,482.01,-0.0475,0.0025,0.99025,0.32,-0.5,-0.04,30560.0,-3340.0,-33330.0
32.7643152,35.016436,482.01,-0.04575,-0.0205,0.98975,-0.92,-0.52,0.06,30640.0,-3390.0,-33320.0
32.7643152,35.016436,482.01,-0.05575,-0.0035,1.0025,-0.44,-0.16,0.0,30760.0,-3490.0,-33320.0
32.7643152,35.016436,482.01,-0.056,0.015,1.00825,0.96,0.3,0.0,30820.0,-3530.0,-33310.0
32.7643152,35.016436,482.01,-0.05225,-0.00025,0.99775,0.36,0.68,-0.04,30900.0,-3650.0,-33310.0
32.7643152,35.016436,482.01,-0.05975,-0.0115,0.9905,-1.02,0.5,0.08,30940.0,-3660.0,-33310.0
32.7643152,35.016436,482.01,-0.0635,0.00175,0.99575,-0.32,-0.12,0.0,30940.0,-3630.0,-33310.0
32.7643152,35.016436,482.01,-0.05075,0.00275,1.0,0.76,-0.66,-0.04,30910.0,-3620.0,-33310.0
32.7643152,35.016436,482.01,-0.04125,-0.01025,0.99725,-0.04,-0.64,0.0,30830.0,-3510.0,-33310.0
32.7643152,35.016436,482.01,-0.05025,-0.00125,0.9965,-0.72,-0.24,0.04,30740.0,-3400.0,-33320.0
32.7643152,35.016436,482.01,-0.059,0.0075,0.99775,0.18,0.4,0.02,30670.0,-3380.0,-33320.0
32.7643152,35.016436,482.01,-0.05625,-0.012,0.996,0.48,0.68,0.08,30620.0,-3340.0,-33320.0
32.7643152,35.016436,482.01,-0.05775,-0.02,0.997,-0.3,0.5,-0.08,30620.0,-3320.0,-33320.0
32.7643152,35.016436,482.01,-0.06225,0.00575,1.002,-0.06,-0.12,0.04,30600.0,-3350.0,-33320.0
32.7643152,35.016436,482.01,-0.053,0.0155,0.9985,0.66,-0.58,0.02,30580.0,-3350.0,-33330.0
32.7643152,35.016436,482.01,-0.04225,-0.01275,0.98925,-0.22,-0.58,-0.02,30550.0,-3330.0,-33330.0
32.7643152,35.016436,482.01,-0.0475,-0.02025,0.9935,-1.0,-0.32,0.04,30530.0,-3290.0,-33330.0
32.7643152,35.016436,482.01,-0.056,0.004,1.005,0.3,0.12,0.0,30500.0,-3280.0,-33330.0
32.7643152,35.016436,482.01,-0.054,0.00875,1.00275,1.06,0.6,-0.04,30490.0,-3260.0,-33330.0
32.7643152,35.016436,482.01,-0.0555,-0.0105,0.993,-0.26,0.7,0.04,30490.0,-3290.0,-33330.0
32.7643152,35.016436,482.01,-0.0635,-0.00775,0.99325,-0.96,0.28,0.02,30490.0,-3290.0,-33330.0
32.7643152,35.016436,482.01,-0.05975,0.00575,1.0005,0.34,-0.38,0.02,30470.0,-3260.0,-33330.0
32.7643152,35.016436,482.01,-0.045,-0.00325,0.9995,0.54,-0.68,-0.04,30410.0,-3150.0,-33340.0
32.7643152,35.016436,482.01,-0.04175,-0.0085,0.99375,-0.56,-0.56,0.0,30420.0,-3210.0,-33340.0
32.7643152,35.016436,482.01,-0.053,0.0055,0.99675,-0.42,-0.04,0.04,30460.0,-3290.0,-33330.0
32.7643152,35.016436,482.01,-0.058,0.003,0.99975,0.44,0.66,0.08,30440.0,-3250.0,-33330.0
32.7643152,35.016436,482.01,-0.05575,-0.0175,0.99775,0.14,0.72,-0.02,30450.0,-3270.0,-33330.0
32.7643152,35.016436,482.01,-0.06175,-0.0085,1.00025,-0.42,0.34,0.06,30470.0,-3280.0,-33330.0
32.7643152,35.016436,482.01,-0.06175,0.01775,1.001,0.28,-0.32,0.02,30460.0,-3270.0,-33330.0
32.7643152,35.016436,482.01,-0.0495,0.00675,0.992,0.42,-0.68,-0.04,30460.0,-3300.0,-33330.0
32.7643152,35.016436,482.01,-0.044,-0.019,0.98875,-0.7,-0.56,0.0,30480.0,-3310.0,-33330.0
32.7643152,35.016436,482.01,-0.05325,-0.00775,0.99925,-0.64,-0.14,0.08,30480.0,-3350.0,-33330.0
32.7643152,35.016436,482.01,-0.0565,0.0145,1.00775,0.88,0.34,-0.08,30490.0,-3410.0,-33330.0
32.7643152,35.016436,482.01,-0.053,0.00275,0.99975,0.56,0.74,-0.02,30500.0,-3420.0,-33330.0
32.7643152,35.016436,482.01,-0.05925,-0.0115,0.99125,-0.86,0.54,0.02,30470.0,-3350.0,-33330.0
32.7643152,35.016436,482.01,-0.06525,-0.00025,0.9955,-0.48,-0.08,0.0,30440.0,-3320.0,-33330.0
32.7643152,35.016436,482.01,-0.05425,0.00475,1.0,0.72,-0.58,-0.06,30470.0,-3320.0,-33330.0
32.7643152,35.016436,482.01,-0.042,-0.007,0.99725,0.12,-0.72,0.0,30490.0,-3340.0,-33330.0
32.7643152,35.016436,482.01,-0.0465,-0.00225,0.9955,-0.8,-0.36,0.02,30490.0,-3350.0,-33330.0
32.7643152,35.016436,482.01,-0.05625,0.00825,0.998,-0.06,0.2,0.12,30500.0,-3370.0,-33330.0
32.7643153,35.016436,482.01,-0.055,-0.00875,0.99775,0.44,0.7,0.02,30470.0,-3320.0,-33330.0
32.7643153,35.016436,482.01,-0.056,-0.021,0.99775,-0.22,0.64,0.08,30480.0,-3360.0,-33330.0
32.7643153,35.016436,482.01,-0.06175,0.00375,1.0005,-0.12,0.06,0.12,30550.0,-3460.0,-33330.0
32.7643153,35.016436,482.01,-0.0555,0.0195,0.9985,0.56,-0.44,-0.04,30540.0,-3450.0,-33330.0
32.7643153,35.016436,482.01,-0.04475,-0.0075,0.98975,-0.08,-0.54,-0.08,30530.0,-3380.0,-33330.0
32.7643153,35.016436,482.01,-0.046,-0.022,0.9925,-0.98,-0.34,0.02,30530.0,-3390.0,-33330.0
32.7643153,35.016436,482.01,-0.05575,0.0005,1.004,0.04,0.08,0.06,30540.0,-3410.0,-33330.0
32.7643153,35.016436,482.01,-0.054,0.01125,1.005,1.08,0.48,-0.08,30550.0,-3450.0,-33330.0
32.7643153,35.016436,482.01,-0.05475,-0.007,0.99375,-0.02,0.64,-0.02,30600.0,-3480.0,-33320.0
32.7643153,35.016436,482.01,-0.0635,-0.0105,0.991,-1.06,0.32,0.02,30570.0,-3460.0,-33330.0
32.7643153,35.016436,482.01,-0.065,0.00075,0.9985,0.1,-0.22,0.02,30510.0,-3390.0,-33330.0
32.7643153,35.016436,482.01,-0.049,-0.00425,1.0,0.74,-0.68,-0.02,30540.0,-3420.0,-33330.0
32.7643153,35.016436,482.01,-0.04075,-0.011,0.99575,-0.3,-0.66,0.02,30560.0,-3430.0,-33330.0
32.7643153,35.016436,482.01,-0.05,0.0025,0.99575,-0.64,-0.22,0.02,30530.0,-3370.0,-33330.0
32.7643153,35.016436,482.01,-0.057,0.003,0.997,0.36,0.48,0.0,30530.0,-3410.0,-33330.0
32.7643153,35.016436,482.01,-0.05525,-0.01875,0.997,0.3,0.66,0.04,30570.0,-3480.0,-33330.0
32.7643153,35.016436,482.01,-0.061,-0.01575,1.00025,-0.4,0.46,0.04,30550.0,-3440.0,-33330.0
32.7643153,35.016436,482.01,-0.0635,0.01375,1.002,0.26,-0.16,0.02,30550.0,-3470.0,-33330.0
32.7643153,35.016436,482.01,-0.05225,0.01225,0.9945,0.58,-0.54,-0.02,30570.0,-3460.0,-33330.0
32.7643153,35.016436,482.01,-0.044,-0.017,0.9885,-0.48,-0.58,-0.02,30550.0,-3390.0,-33330.0
32.7643152,35.016436,482.01,-0.05025,-0.0155,0.9975,-0.82,-0.36,0.0,30490.0,-3350.0,-33330.0
32.7643152,35.016436,482.01,-0.0555,0.00925,1.00775,0.62,0.14,0.0,30480.0,-3400.0,-33330.0
32.7643152,35.016436,482.01,-0.0515,0.00675,1.0025,0.94,0.62,-0.06,30530.0,-3400.0,-33330.0
32.7643152,35.016436,482.01,-0.0565,-0.011,0.9925,-0.62,0.7,0.08,30560.0,-3410.0,-33330.0
32.7643152,35.016436,482.01,-0.065,-0.004,0.994,-0.7,0.2,0.1,30580.0,-3420.0,-33320.0
32.7643152,35.016436,482.01,-0.05875,0.0045,0.9995,0.58,-0.34,0.06,30570.0,-3380.0,-33330.0
32.7643152,35.016436,482.01,-0.04425,-0.007,0.997,0.48,-0.62,-0.06,30550.0,-3340.0,-33330.0
32.7643152,35.016436,482.01,-0.0445,-0.00575,0.99425,-0.68,-0.56,0.02,30550.0,-3360.0,-33330.0
32.7643152,35.016436,482.01,-0.05425,0.01,0.998,-0.24,-0.02,0.0,30550.0,-3390.0,-33330.0
32.7643152,35.016436,482.01,-0.0545,-0.00225,0.998,0.5,0.54,-0.02,30550.0,-3420.0,-33330.0
32.7643152,35.016436,482.01,-0.05425,-0.022,0.997,-0.1,0.64,0.02,30540.0,-3400.0,-33330.0
32.7643152,35.016436,482.01,-0.062,-0.00375,1.00025,-0.3,0.26,0.1,30550.0,-3370.0,-33330.0
32.7643152,35.016436,482.01,-0.05975,0.022,0.9995,0.6,-0.24,-0.02,30550.0,-3340.0,-33330.0
32.7643152,35.016436,482.01,-0.04725,0.00275,0.99,0.3,-0.54,-0.02,30580.0,-3380.0,-33330.0
32.7643152,35.016436,482.01,-0.04525,-0.02025,0.9905,-0.92,-0.46,0.04,30610.0,-3410.0,-33320.0
32.7643152,35.016436,482.01,-0.0555,-0.003,1.0025,-0.3,-0.18,0.02,30570.0,-3340.0,-33330.0
32.7643152,35.016436,482.01,-0.0545,0.0145,1.00675,1.04,0.34,0.04,30510.0,-3300.0,-33330.0
32.7643152,35.016436,482.01,-0.0515,-0.001,0.99675,0.4,0.6,-0.08,30500.0,-3280.0,-33330.0
32.7643152,35.016436,482.01,-0.0605,-0.00975,0.991,-0.98,0.46,0.1,30520.0,-3290.0,-33330.0
32.7643152,35.016436,482.01,-0.0655,0.00275,0.99675,-0.2,-0.02,-0.02,30560.0,-3350.0,-33330.0
32.7643153,35.016436,482.01,-0.052,0.001,0.99975,0.76,-0.52,-0.06,30560.0,-3390.0,-33330.0
32.7643153,35.016436,482.01,-0.0425,-0.011,0.997,-0.16,-0.62,-0.06,30560.0,-3360.0,-33330.0
32.7643153,35.016436,482.01,-0.05,0.0,0.997,-0.64,-0.36,-0.02,30590.0,-3370.0,-33320.0
32.7643153,35.016436,482.01,-0.05725,0.008,0.99825,0.16,0.3,-0.02,30610.0,-3370.0,-33320.0
32.7643153,35.016436,482.01,-0.055,-0.01225,0.9965,0.34,0.62,-0.02,30610.0,-3350.0,-33320.0
32.7643153,35.016436,482.01,-0.058,-0.02025,0.9985,-0.36,0.52,0.0,30630.0,-3370.0,-33320.0
32.7643153,35.016436,482.01,-0.0635,0.0075,1.00225,-0.02,-0.02,-0.02,30640.0,-3360.0,-33320.0
32.7643153,35.016436,482.01,-0.055,0.017,0.99725,0.76,-0.48,-0.04,30610.0,-3320.0,-33320.0
32.7643153,35.016436,482.01,-0.045,-0.01075,0.98875,-0.2,-0.54,-0.02,30600.0,-3300.0,-33320.0
32.7643153,35.016436,482.01,-0.05025,-0.0175,0.9945,-0.94,-0.32,0.04,30590.0,-3350.0,-33320.0
32.7643153,35.016436,482.01,-0.05725,0.008,1.00625,0.26,0.1,-0.04,30580.0,-3350.0,-33330.0
32.7643153,35.016436,482.01,-0.0535,0.01025,1.00275,1.02,0.5,-0.06,30600.0,-3360.0,-33320.0
32.7643153,35.016436,482.01,-0.0545,-0.0095,0.993,-0.38,0.66,0.02,30620.0,-3340.0,-33320.0
32.7643153,35.016436,482.01,-0.06225,-0.0065,0.99275,-0.98,0.14,0.04,30590.0,-3330.0,-33320.0
32.7643153,35.016436,482.01,-0.05925,0.00675,0.99875,0.34,-0.34,0.02,30580.0,-3360.0,-33330.0
32.7643153,35.016436,482.01,-0.0455,-0.00325,0.9985,0.62,-0.72,-0.06,30590.0,-3380.0,-33320.0
32.7643153,35.016436,482.01,-0.04375,-0.011,0.9945,-0.58,-0.48,0.0,30570.0,-3330.0,-33330.0
32.7643153,35.016436,482.01,-0.055,0.004,0.997,-0.54,0.02,0.08,30510.0,-3270.0,-33330.0
32.7643153,35.016436,482.01,-0.05775,0.003,0.998,0.62,0.6,0.0,30570.0,-3350.0,-33330.0
32.7643153,35.016436,482.01,-0.054,-0.01775,0.99675,0.22,0.64,0.0,30590.0,-3410.0,-33320.0
32.7643153,35.016436,482.01,-0.05975,-0.01125,0.99975,-0.52,0.18,0.0,30530.0,-3340.0,-33330.0
32.7643153,35.016436,482.01,-0.06,0.0155,1.00175,0.18,-0.32,0.06,30560.0,-3350.0,-33330.0
32.7643153,35.016436,482.01,-0.0485,0.0065,0.994,0.52,-0.58,-0.06,30590.0,-3380.0,-33320.0
32.7643153,35.016436,482.01,-0.043,-0.01975,0.991,-0.6,-0.42,0.04,30570.0,-3370.0,-33330.0
32.7643153,35.016436,482.01,-0.052,-0.00825,0.99975,-0.68,-0.08,0.04,30600.0,-3400.0,-33320.0
32.7643153,35.016436,482.01,-0.05525,0.01475,1.007,0.82,0.3,0.0,30610.0,-3410.0,-33320.0
32.7643153,35.016436,482.01,-0.05225,0.0025,0.9975,0.62,0.58,-0.04,30620.0,-3380.0,-33320.0
32.7643153,35.016436,482.01,-0.0585,-0.015,0.991,-0.9,0.48,0.1,30660.0,-3420.0,-33320.0
32.7643153,35.016436,482.01,-0.06575,-0.00225,0.9965,-0.54,0.02,0.0,30780.0,-3540.0,-33310.0
32.7643153,35.016436,482.01,-0.05675,0.00775,1.00175,0.8,-0.5,0.02,30830.0,-3560.0,-33310.0
32.7643153,35.016436,482.01,-0.04275,-0.00725,0.9965,0.24,-0.64,0.02,30810.0,-3570.0,-33310.0
32.7643153,35.016436,482.01,-0.04675,-0.0075,0.99325,-0.88,-0.32,0.02,30860.0,-3670.0,-33310.0
32.7643153,35.016436,482.01,-0.0565,0.00475,0.99675,-0.16,0.14,0.0,30900.0,-3730.0,-33310.0
32.7643153,35.016436,482.01,-0.054,-0.00625,0.99875,0.66,0.5,-0.04,30910.0,-3730.0,-33310.0
32.7643153,35.016436,482.01,-0.0545,-0.02125,0.99875,-0.16,0.52,-0.02,30820.0,-3630.0,-33310.0
32.7643153,35.016436,482.01,-0.06225,-0.0005,1.00025,-0.34,0.12,0.06,30700.0,-3550.0,-33320.0
32.7643153,35.016436,482.01,-0.0595,0.01875,0.99775,0.6,-0.28,-0.02,30640.0,-3480.0,-33320.0
32.7643153,35.016436,482.01,-0.04825,-0.00525,0.9895,0.26,-0.44,-0.08,30640.0,-3460.0,-33320.0
32.7643153,35.016436,482.01,-0.04725,-0.023,0.99225,-0.96,-0.32,0.02,30630.0,-3450.0,-33320.0
32.7643153,35.016436,482.01,-0.05525,0.00025,1.004,-0.16,-0.12,0.04,30570.0,-3370.0,-33330.0
32.7643153,35.016436,482.01,-0.054,0.016,1.00575,1.12,0.26,-0.02,30490.0,-3330.0,-33330.0
32.7643153,35.016436,482.01,-0.05125,-0.00425,0.99425,0.14,0.56,-0.02,30490.0,-3380.0,-33330.0
32.7643153,35.016436,482.01,-0.06,-0.013,0.992,-1.1,0.4,0.1,30500.0,-3410.0,-33330.0
32.7643153,35.016436,482.01,-0.0645,0.00325,0.99825,-0.06,-0.14,0.0,30550.0,-3420.0,-33330.0
32.7643153,35.016436,482.01,-0.05,0.00325,1.0,0.9,-0.5,-0.06,30560.0,-3440.0,-33330.0
32.7643153,35.016436,482.01,-0.04225,-0.00875,0.99525,-0.16,-0.54,-0.02,30540.0,-3430.0,-33330.0
32.7643153,35.016436,482.01,-0.05175,0.00075,0.9955,-0.82,-0.2,0.06,30570.0,-3450.0,-33330.0
32.7643153,35.016436,482.01,-0.05875,0.00675,0.99775,0.2,0.36,0.1,30600.0,-3460.0,-33320.0
32.7643153,35.016436,482.01,-0.0535,-0.01275,0.9975,0.46,0.52,-0.06,30560.0,-3390.0,-33330.0
32.7643153,35.016436,482.01,-0.056,-0.0175,0.999,-0.4,0.46,0.1,30500.0,-3370.0,-33330.0
32.7643153,35.016436,482.01,-0.06025,0.01125,1.0015,-0.1,-0.08,0.1,30530.0,-3450.0,-33330.0
32.7643153,35.016436,482.01,-0.05275,0.0165,0.99525,0.74,-0.46,0.04,30570.0,-3480.0,-33320.0
32.7643153,35.016436,482.01,-0.045,-0.01425,0.98925,-0.26,-0.44,0.0,30620.0,-3510.0,-33320.0
32.7643153,35.016436,482.01,-0.0515,-0.0185,0.99625,-0.92,-0.2,0.06,30620.0,-3500.0,-33320.0
32.7643153,35.016436,482.01,-0.05875,0.01025,1.0065,0.4,0.1,0.02,30580.0,-3450.0,-33320.0
32.7643153,35.016436,482.01,-0.054,0.0125,1.002,1.04,0.48,-0.02,30580.0,-3460.0,-33320.0
32.7643153,35.016436,482.01,-0.05475,-0.011,0.99175,-0.5,0.54,0.02,30580.0,-3460.0,-33320.0
32.7643153,35.016436,482.01,-0.0625,-0.0095,0.99425,-1.1,0.06,0.02,30560.0,-3420.0,-33330.0
32.7643153,35.016436,482.01,-0.05925,0.006,1.00125,0.48,-0.38,0.04,30560.0,-3420.0,-33330.0
32.7643153,35.016436,482.01,-0.044,-0.002,0.99975,0.76,-0.66,-0.04,30550.0,-3410.0,-33330.0
32.7643153,35.016436,482.01,-0.04375,-0.00925,0.99375,-0.62,-0.42,0.06,30530.0,-3400.0,-33330.0
32.7643153,35.016436,482.01,-0.05475,0.00425,0.9965,-0.62,0.08,0.02,30510.0,-3380.0,-33330.0
32.7643153,35.016436,482.01,-0.05825,0.00125,0.99825,0.48,0.54,-0.02,30550.0,-3400.0,-33330.0
32.7643153,35.016436,482.01,-0.05475,-0.0195,0.9985,0.28,0.58,-0.02,30550.0,-3380.0,-33330.0
32.7643153,35.016436,482.01,-0.05925,-0.01125,1.0005,-0.42,0.2,0.08,30560.0,-3380.0,-33330.0
32.7643153,35.016436,482.01,-0.05925,0.01825,1.00075,0.28,-0.28,-0.02,30570.0,-3400.0,-33330.0
32.7643153,35.016436,482.01,-0.0475,0.00775,0.99275,0.56,-0.52,0.0,30590.0,-3400.0,-33320.0
32.7643153,35.016436,482.01,-0.043,-0.02225,0.9895,-0.8,-0.4,-0.06,30590.0,-3390.0,-33320.0
32.7643153,35.016436,482.01,-0.053,-0.01175,1.00075,-0.64,-0.06,0.04,30570.0,-3410.0,-33330.0
32.7643153,35.016436,482.01,-0.058,0.0145,1.008,0.86,0.34,-0.02,30550.0,-3380.0,-33330.0
32.7643153,35.016436,482.01,-0.0535,0.0045,0.998,0.82,0.54,-0.02,30530.0,-3360.0,-33330.0
32.7643153,35.016436,482.01,-0.05825,-0.0135,0.99,-0.84,0.5,0.02,30580.0,-3390.0,-33330.0
32.7643153,35.016436,482.01,-0.064,-0.003,0.995,-0.64,0.02,0.08,30590.0,-3390.0,-33320.0
32.7643153,35.016436,482.01,-0.0535,0.00575,1.0,0.82,-0.6,-0.12,30560.0,-3310.0,-33330.0
32.7643153,35.016436,482.01,-0.04125,-0.00775,0.997,0.32,-0.68,-0.04,30520.0,-3290.0,-33330.0
32.7643153,35.016436,482.01,-0.0465,-0.00675,0.994,-0.84,-0.28,0.12,30510.0,-3310.0,-33330.0
32.7643153,35.016436,482.01,-0.058,0.00725,0.997,-0.16,0.26,0.08,30500.0,-3240.0,-33330.0
32.7643153,35.016436,482.01,-0.0575,-0.00425,0.9975,0.66,0.62,-0.02,30490.0,-3300.0,-33330.0
32.7643153,35.016436,482.01,-0.056,-0.021,0.997,-0.08,0.56,-0.06,30540.0,-3340.0,-33330.0
32.7643153,35.016436,482.01,-0.06175,-0.0015,0.9995,-0.4,0.08,0.02,30530.0,-3300.0,-33330.0
32.7643153,35.0164361,482.02,-0.05775,0.01975,0.99875,0.58,-0.46,-0.02,30490.0,-3310.0,-33330.0
32.7643153,35.0164361,482.02,-0.04525,-0.00225,0.99175,0.34,-0.62,-0.06,30520.0,-3300.0,-33330.0
32.7643153,35.0164361,482.02,-0.0455,-0.0215,0.99375,-0.94,-0.42,0.06,30550.0,-3300.0,-33330.0
32.7643153,35.0164361,482.02,-0.0555,0.0,1.00375,-0.26,0.02,0.06,30560.0,-3320.0,-33330.0
32.7643153,35.0164361,482.02,-0.056,0.0165,1.005,1.16,0.4,-0.06,30570.0,-3330.0,-33330.0
32.7643153,35.0164361,482.02,-0.05325,-0.003,0.99475,0.2,0.66,-0.02,30600.0,-3310.0,-33320.0
32.7643153,35.0164361,482.02,-0.0615,-0.01325,0.99175,-1.08,0.4,0.08,30600.0,-3310.0,-33320.0
32.7643153,35.0164361,482.02,-0.06425,0.0035,1.00025,-0.12,-0.2,0.0,30610.0,-3350.0,-33320.0
32.7643153,35.0164361,482.02,-0.0495,0.0045,1.00225,0.9,-0.66,-0.06,30610.0,-3380.0,-33320.0
32.7643153,35.0164361,482.02,-0.04,-0.00925,0.9955,-0.18,-0.58,-0.04,30600.0,-3340.0,-33320.0
32.7643153,35.0164361,482.02,-0.04925,-0.0015,0.994,-0.88,-0.14,0.06,30560.0,-3330.0,-33330.0
32.7643153,35.0164361,482.02,-0.058,0.006,0.997,0.16,0.34,0.0,30580.0,-3310.0,-33330.0
32.7643153,35.0164361,482.02,-0.05475,-0.01175,0.998,0.56,0.66,-0.04,30610.0,-3330.0,-33320.0
32.7643153,35.0164361,482.02,-0.05775,-0.0175,0.9995,-0.22,0.48,0.0,30630.0,-3400.0,-33320.0
32.7643153,35.0164361,482.02,-0.0625,0.01025,1.002,-0.16,-0.14,0.06,30650.0,-3420.0,-33320.0
32.7643153,35.0164361,482.02,-0.05425,0.0155,0.9945,0.58,-0.42,-0.02,30610.0,-3300.0,-33320.0
32.7643153,35.0164361,482.02,-0.04425,-0.0145,0.98725,-0.28,-0.52,-0.02,30540.0,-3250.0,-33330.0
32.7643153,35.0164361,482.02,-0.04825,-0.01925,0.995,-0.92,-0.26,0.1,30560.0,-3290.0,-33330.0
32.7643153,35.0164361,482.02,-0.05575,0.00875,1.00675,0.42,0.08,0.02,30610.0,-3340.0,-33320.0
32.7643153,35.0164361,482.02,-0.0525,0.0115,1.0025,1.06,0.5,-0.06,30620.0,-3380.0,-33320.0
32.7643153,35.0164361,482.02,-0.0555,-0.012,0.9915,-0.38,0.66,0.0,30580.0,-3350.0,-33330.0
32.7643153,35.0164361,482.02,-0.065,-0.00975,0.99325,-1.02,0.26,0.1,30530.0,-3290.0,-33330.0
32.7643153,35.0164361,482.02,-0.0625,0.005,1.0005,0.44,-0.32,0.04,30560.0,-3330.0,-33330.0
32.7643153,35.0164361,482.02,-0.0465,-0.00275,0.9985,0.64,-0.7,-0.02,30590.0,-3340.0,-33330.0
32.7643153,35.0164361,482.02,-0.043,-0.009,0.993,-0.56,-0.48,-0.02,30600.0,-3280.0,-33320.0
32.7643153,35.0164361,482.02,-0.05225,0.00425,0.99725,-0.58,-0.14,0.08,30550.0,-3260.0,-33330.0
32.7643153,35.0164361,482.02,-0.055,0.001,1.0,0.42,0.44,0.0,30590.0,-3330.0,-33320.0
32.7643153,35.0164361,482.02,-0.053,-0.02,0.99825,0.18,0.52,-0.04,30590.0,-3330.0,-33320.0
32.7643153,35.0164361,482.02,-0.06125,-0.00975,0.9995,-0.4,0.28,-0.02,30630.0,-3390.0,-33320.0
32.7643153,35.0164361,482.02,-0.063,0.01875,1.0005,0.3,-0.12,0.0,30620.0,-3390.0,-33320.0
32.7643153,35.0164361,482.02,-0.051,0.008,0.99225,0.48,-0.44,-0.02,30590.0,-3350.0,-33320.0
32.7643153,35.0164361,482.02,-0.04525,-0.0205,0.98975,-0.8,-0.52,-0.02,30610.0,-3350.0,-33320.0
32.7643153,35.0164361,482.02,-0.05325,-0.0095,1.00125,-0.6,-0.24,0.1,30630.0,-3360.0,-33320.0
32.7643153,35.0164361,482.02,-0.05475,0.01425,1.0085,0.8,0.16,-0.02,30640.0,-3370.0,-33320.0
32.7643153,35.0164361,482.02,-0.05,0.00325,0.9985,0.62,0.48,-0.04,30600.0,-3370.0,-33320.0
32.7643153,35.0164361,482.02,-0.05875,-0.011,0.99125,-0.84,0.58,0.04,30580.0,-3380.0,-33330.0
32.7643153,35.0164361,482.02,-0.0655,0.0,0.99675,-0.5,0.22,0.04,30590.0,-3390.0,-33330.0
32.7643153,35.0164361,482.02,-0.055,0.004,1.00075,0.76,-0.36,-0.02,30550.0,-3370.0,-33330.0
32.7643153,35.0164361,482.02,-0.043,-0.00875,0.996,0.24,-0.64,-0.02,30580.0,-3370.0,-33330.0
32.7643153,35.0164361,482.02,-0.04775,-0.00325,0.99425,-0.76,-0.42,0.08,30540.0,-3350.0,-33330.0
32.7643153,35.0164361,482.02,-0.05675,0.009,0.998,0.0,0.1,0.06,30510.0,-3330.0,-33330.0
32.7643153,35.0164361,482.02,-0.054,-0.0075,0.99775,0.5,0.62,0.02,30570.0,-3390.0,-33330.0
32.7643153,35.0164361,482.02,-0.05575,-0.02,0.99775,-0.2,0.54,0.04,30590.0,-3410.0,-33320.0
32.7643153,35.0164361,482.02,-0.06225,0.0035,1.00075,-0.14,0.14,-0.04,30580.0,-3370.0,-33330.0
32.7643153,35.0164361,482.02,-0.056,0.01925,0.99825,0.74,-0.42,-0.02,30600.0,-3380.0,-33320.0
32.7643153,35.0164361,482.02,-0.045,-0.00725,0.98875,-0.02,-0.6,-0.04,30600.0,-3410.0,-33320.0
32.7643153,35.0164361,482.02,-0.048,-0.02025,0.99225,-0.98,-0.34,0.0,30630.0,-3400.0,-33320.0
32.7643153,35.0164361,482.02,-0.05675,0.0035,1.00475,0.04,-0.02,0.0,30630.0,-3410.0,-33320.0
32.7643153,35.0164361,482.02,-0.05325,0.01225,1.00425,1.06,0.52,-0.04,30580.0,-3390.0,-33330.0
32.7643153,35.0164361,482.02,-0.05375,-0.00675,0.9925,-0.1,0.56,-0.02,30560.0,-3380.0,-33330.0
32.7643153,35.0164361,482.02,-0.06375,-0.009,0.99225,-0.92,0.38,0.1,30570.0,-3430.0,-33330.0
32.7643153,35.0164361,482.02,-0.06375,0.003,1.0005,0.14,-0.22,0.1,30640.0,-3490.0,-33320.0
32.7643153,35.0164361,482.02,-0.04775,-0.00375,0.99975,0.7,-0.62,-0.1,30630.0,-3460.0,-33320.0
32.7643153,35.0164361,482.02,-0.042,-0.00875,0.99475,-0.36,-0.64,-0.06,30630.0,-3470.0,-33320.0
32.7643153,35.0164361,482.02,-0.051,0.0055,0.99725,-0.56,-0.16,0.06,30750.0,-3570.0,-33320.0
32.7643153,35.0164361,482.02,-0.05475,0.001,0.99825,0.26,0.44,0.04,30840.0,-3630.0,-33310.0
32.7643153,35.0164361,482.02,-0.05375,-0.02225,0.997,0.18,0.62,-0.04,30880.0,-3650.0,-33310.0
32.7643153,35.0164361,482.02,-0.0615,-0.01275,1.00025,-0.32,0.44,0.08,30910.0,-3690.0,-33310.0
32.7643153,35.0164361,482.02,-0.06225,0.0175,1.0035,0.4,-0.06,-0.02,30920.0,-3650.0,-33310.0
32.7643153,35.0164361,482.02,-0.0505,0.00825,0.99275,0.38,-0.42,-0.02,30890.0,-3610.0,-33310.0
32.7643153,35.0164361,482.02,-0.045,-0.0205,0.98725,-0.7,-0.52,0.0,30760.0,-3530.0,-33320.0
32.7643153,35.0164361,482.02,-0.05325,-0.012,0.99875,-0.68,-0.26,0.12,30660.0,-3480.0,-33320.0
32.7643153,35.0164361,482.02,-0.054,0.011,1.009,0.88,0.16,0.02,30560.0,-3400.0,-33330.0
32.7643153,35.0164361,482.02,-0.05025,0.00375,1.00075,0.78,0.54,-0.02,30530.0,-3380.0,-33330.0
32.7643153,35.0164361,482.02,-0.05875,-0.00825,0.9915,-0.78,0.62,0.04,30530.0,-3380.0,-33330.0
32.7643153,35.0164361,482.02,-0.0665,0.0,0.99525,-0.52,0.22,0.02,30540.0,-3360.0,-33330.0
32.7643153,35.0164361,482.02,-0.05575,0.0005,0.99975,0.56,-0.46,0.02,30580.0,-3370.0,-33330.0
32.7643153,35.0164361,482.02,-0.0435,-0.01025,0.9965,0.2,-0.72,-0.04,30600.0,-3410.0,-33320.0
32.7643153,35.0164361,482.02,-0.0475,0.00075,0.9955,-0.54,-0.56,0.04,30590.0,-3420.0,-33320.0
32.7643153,35.0164361,482.02,-0.05425,0.011,0.9985,-0.06,0.06,0.06,30620.0,-3450.0,-33320.0
32.7643153,35.0164361,482.02,-0.053,-0.0105,0.9965,0.34,0.56,-0.02,30600.0,-3450.0,-33320.0
32.7643153,35.0164361,482.02,-0.0575,-0.022,0.9965,-0.34,0.66,0.0,30620.0,-3350.0,-33320.0
32.7643153,35.0164361,482.02,-0.06425,0.0045,1.001,0.02,0.14,0.0,30560.0,-3300.0,-33330.0
32.7643153,35.0164361,482.02,-0.05625,0.01875,0.9985,0.7,-0.28,-0.04,30570.0,-3280.0,-33330.0
32.7643153,35.0164361,482.02,-0.04575,-0.00775,0.98875,-0.18,-0.64,-0.04,30560.0,-3300.0,-33330.0
32.7643153,35.0164361,482.02,-0.04925,-0.01775,0.9925,-1.08,-0.42,0.02,30540.0,-3320.0,-33330.0
32.7643153,35.0164361,482.02,-0.0555,0.00375,1.00425,0.12,-0.16,0.02,30580.0,-3320.0,-33330.0
32.7643153,35.0164361,482.02,-0.051,0.0085,1.0055,1.02,0.42,0.02,30540.0,-3280.0,-33330.0
32.7643153,35.0164361,482.02,-0.053,-0.00725,0.99425,-0.18,0.62,-0.02,30550.0,-3310.0,-33330.0
32.7643153,35.0164361,482.02,-0.06425,-0.00375,0.993,-0.82,0.42,0.06,30560.0,-3360.0,-33330.0
32.7643153,35.0164361,482.03,-0.06325,0.005,0.99875,0.22,-0.06,0.0,30540.0,-3300.0,-33330.0
32.7643153,35.0164361,482.03,-0.04825,-0.00625,0.9985,0.54,-0.58,-0.02,30520.0,-3240.0,-33330.0
32.7643153,35.0164361,482.03,-0.0445,-0.007,0.996,-0.48,-0.6,0.0,30550.0,-3280.0,-33330.0
32.7643153,35.0164361,482.03,-0.0525,0.00925,0.99825,-0.42,-0.16,-0.02,30590.0,-3330.0,-33330.0
32.7643153,35.0164361,482.03,-0.0535,0.001,0.998,0.4,0.4,0.02,30590.0,-3360.0,-33320.0
32.7643153,35.0164361,482.03,-0.0535,-0.02175,0.9965,-0.04,0.62,0.0,30580.0,-3380.0,-33330.0
32.7643153,35.0164361,482.03,-0.0615,-0.00825,1.001,-0.3,0.38,0.04,30600.0,-3350.0,-33330.0
32.7643153,35.0164361,482.03,-0.06075,0.01875,1.004,0.48,-0.1,0.04,30600.0,-3320.0,-33330.0
32.7643153,35.0164361,482.03,-0.04875,0.00425,0.99175,0.36,-0.44,-0.04,30600.0,-3330.0,-33320.0
32.7643153,35.0164361,482.03,-0.04575,-0.02025,0.987,-0.92,-0.48,0.04,30610.0,-3340.0,-33320.0
32.7643153,35.0164361,482.03,-0.0555,-0.007,0.99925,-0.5,-0.26,0.04,30560.0,-3250.0,-33330.0
32.7643153,35.0164361,482.03,-0.05375,0.01075,1.00875,0.98,0.2,-0.06,30540.0,-3270.0,-33330.0
32.7643153,35.0164361,482.03,-0.051,-0.00075,0.999,0.44,0.62,-0.02,30580.0,-3290.0,-33330.0
32.7643153,35.0164361,482.03,-0.06025,-0.00825,0.991,-0.88,0.58,0.08,30590.0,-3290.0,-33330.0
32.7643153,35.0164361,482.03,-0.0655,0.001,0.99525,-0.3,0.06,0.02,30620.0,-3310.0,-33320.0
32.7643153,35.0164361,482.03,-0.05225,-0.00225,0.99825,0.64,-0.48,-0.02,30600.0,-3310.0,-33330.0
32.7643153,35.0164361,482.03,-0.04275,-0.01125,0.9955,-0.1,-0.7,-0.1,30570.0,-3270.0,-33330.0
32.7643153,35.0164361,482.03,-0.04975,0.00275,0.99725,-0.56,-0.38,0.06,30570.0,-3310.0,-33330.0
32.7643153,35.0164361,482.03,-0.05525,0.00875,0.99925,0.12,0.24,0.02,30610.0,-3340.0,-33320.0
32.7643153,35.0164361,482.03,-0.0535,-0.0145,0.99575,0.3,0.62,-0.04,30590.0,-3310.0,-33330.0
32.7643153,35.0164361,482.03,-0.05925,-0.01925,0.99725,-0.38,0.52,0.04,30510.0,-3270.0,-33330.0
32.7643153,35.0164361,482.03,-0.063,0.01,1.00275,0.1,0.02,0.04,30540.0,-3290.0,-33330.0
32.7643153,35.0164361,482.03,-0.052,0.015,0.99775,0.7,-0.38,-0.06,30590.0,-3350.0,-33330.0
32.7643153,35.0164361,482.03,-0.04325,-0.01325,0.988,-0.42,-0.6,0.0,30610.0,-3410.0,-33320.0
32.7643153,35.0164361,482.03,-0.0505,-0.0145,0.99375,-0.92,-0.4,0.06,30620.0,-3410.0,-33320.0
32.7643153,35.0164361,482.03,-0.05475,0.00775,1.00675,0.46,0.04,-0.04,30600.0,-3390.0,-33320.0
32.7643153,35.0164361,482.03,-0.05175,0.0055,1.00275,0.9,0.52,-0.04,30630.0,-3410.0,-33320.0
32.7643153,35.0164361,482.03,-0.0575,-0.00925,0.9925,-0.52,0.68,0.06,30640.0,-3410.0,-33320.0
32.7643153,35.0164361,482.03,-0.0675,-0.0025,0.99375,-0.68,0.32,0.0,30630.0,-3380.0,-33320.0
32.7643153,35.0164361,482.03,-0.06025,0.00275,0.99925,0.42,-0.24,-0.04,30600.0,-3370.0,-33320.0
32.7643153,35.0164361,482.03,-0.045,-0.0095,0.99825,0.34,-0.76,-0.06,30550.0,-3390.0,-33330.0
32.7643153,35.0164361,482.03,-0.0445,-0.005,0.99575,-0.58,-0.7,0.04,30580.0,-3410.0,-33330.0
32.7643153,35.0164361,482.03,-0.05225,0.00875,0.999,-0.24,-0.1,0.02,30640.0,-3440.0,-33320.0
32.7643153,35.0164361,482.03,-0.05225,-0.0065,0.9975,0.36,0.5,-0.02,30650.0,-3450.0,-33320.0
32.7643153,35.0164361,482.03,-0.056,-0.023,0.99575,-0.18,0.7,0.02,30640.0,-3420.0,-33320.0
32.7643153,35.0164361,482.03,-0.0655,0.0,1.002,-0.1,0.44,-0.02,30590.0,-3360.0,-33330.0
32.7643153,35.0164361,482.03,-0.06,0.0195,1.002,0.66,-0.16,-0.02,30530.0,-3320.0,-33330.0
32.7643153,35.0164361,482.03,-0.04775,-0.004,0.99,0.12,-0.52,0.0,30540.0,-3370.0,-33330.0
32.7643153,35.0164361,482.03,-0.04625,-0.02,0.98875,-0.96,-0.62,-0.02,30550.0,-3390.0,-33330.0
32.7643153,35.0164361,482.03,-0.05275,0.00075,1.00175,-0.1,-0.26,0.02,30570.0,-3400.0,-33330.0
32.7643153,35.0164361,482.04,-0.0495,0.012,1.00775,1.0,0.32,-0.02,30550.0,-3380.0,-33330.0
32.7643153,35.0164361,482.04,-0.05125,-0.00425,0.99725,0.0,0.74,0.02,30560.0,-3360.0,-33330.0
32.7643153,35.0164361,482.04,-0.06375,-0.007,0.99225,-0.94,0.6,0.06,30620.0,-3440.0,-33320.0
32.7643153,35.0164361,482.04,-0.06725,0.0035,0.997,0.16,0.12,0.04,30640.0,-3420.0,-33320.0
32.7643153,35.0164361,482.04,-0.05175,-0.00225,0.9975,0.76,-0.56,-0.04,30610.0,-3370.0,-33320.0
32.7643153,35.0164361,482.04,-0.0435,-0.00675,0.99475,-0.3,-0.84,0.04,30600.0,-3390.0,-33320.0
32.7643153,35.0164361,482.04,-0.05075,0.00675,0.998,-0.56,-0.42,0.0,30610.0,-3450.0,-33320.0
32.7643153,35.0164361,482.04,-0.05275,0.0025,0.99925,0.22,0.24,0.02,30620.0,-3440.0,-33320.0
32.7643153,35.0164361,482.04,-0.05175,-0.02,0.99725,0.14,0.66,0.0,30620.0,-3440.0,-33320.0
32.7643153,35.0164361,482.04,-0.06025,-0.01075,0.99975,-0.28,0.6,0.02,30600.0,-3440.0,-33320.0
32.7643153,35.0164361,482.04,-0.06225,0.018,1.00275,0.46,0.02,-0.04,30570.0,-3410.0,-33330.0
32.7643153,35.0164361,482.04,-0.05175,0.009,0.9925,0.5,-0.34,-0.02,30600.0,-3420.0,-33320.0
32.7643153,35.0164361,482.04,-0.0465,-0.01975,0.98625,-0.76,-0.5,0.0,30620.0,-3450.0,-33320.0
32.7643153,35.0164361,482.04,-0.05375,-0.01,0.9975,-0.62,-0.42,0.08,30610.0,-3440.0,-33320.0
32.7643153,35.0164361,482.04,-0.0535,0.01275,1.00925,0.88,0.04,0.02,30620.0,-3460.0,-33320.0
32.7643153,35.0164361,482.04,-0.0495,0.00325,1.001,0.64,0.6,-0.04,30600.0,-3460.0,-33320.0
32.7643153,35.0164361,482.04,-0.05825,-0.01025,0.9905,-0.86,0.62,0.06,30580.0,-3410.0,-33330.0
32.7643153,35.0164361,482.04,-0.06625,-0.002,0.99375,-0.5,0.28,0.08,30570.0,-3400.0,-33330.0
32.7643153,35.0164361,482.04,-0.05525,0.0,1.0,0.7,-0.46,-0.06,30610.0,-3420.0,-33320.0
32.7643153,35.0164361,482.04,-0.04275,-0.00925,0.99725,0.14,-0.76,-0.06,30600.0,-3410.0,-33320.0
32.7643153,35.0164361,482.04,-0.04825,0.0005,0.99625,-0.66,-0.54,0.02,30530.0,-3360.0,-33330.0
32.7643153,35.0164361,482.04,-0.0555,0.007,0.999,-0.08,0.04,0.0,30570.0,-3390.0,-33330.0
32.7643153,35.0164361,482.04,-0.05425,-0.01375,0.997,0.3,0.64,0.02,30590.0,-3410.0,-33320.0
32.7643153,35.0164361,482.04,-0.05725,-0.0215,0.99775,-0.2,0.66,0.02,30590.0,-3410.0,-33320.0
32.7643153,35.0164361,482.04,-0.06325,0.007,1.0025,0.14,0.2,0.02,30620.0,-3410.0,-33320.0
32.7643153,35.0164361,482.04,-0.05425,0.018,0.99875,0.64,-0.32,-0.02,30630.0,-3410.0,-33320.0
32.7643153,35.0164361,482.04,-0.04425,-0.0115,0.98825,-0.34,-0.58,-0.06,30630.0,-3380.0,-33320.0
32.7643153,35.0164361,482.04,-0.05025,-0.019,0.9925,-0.94,-0.42,0.02,30640.0,-3400.0,-33320.0
32.7643153,35.0164361,482.04,-0.0565,0.005,1.0055,0.28,-0.08,-0.02,30630.0,-3400.0,-33320.0
32.7643153,35.0164361,482.04,-0.05225,0.009,1.00525,1.0,0.46,0.0,30630.0,-3400.0,-33320.0
32.7643153,35.0164361,482.04,-0.055,-0.00725,0.99375,-0.28,0.72,0.04,30620.0,-3430.0,-33320.0
32.7643153,35.0164361,482.04,-0.064,-0.00475,0.9915,-0.88,0.42,0.0,30640.0,-3410.0,-33320.0
32.7643153,35.0164361,482.04,-0.05925,0.00275,0.9985,0.3,-0.3,0.0,30630.0,-3360.0,-33320.0
32.7643153,35.0164361,482.04,-0.04475,-0.00725,0.99775,0.52,-0.7,-0.02,30650.0,-3350.0,-33320.0
32.7643153,35.0164361,482.04,-0.04375,-0.006,0.995,-0.46,-0.66,0.02,30660.0,-3350.0,-33320.0
32.7643153,35.0164361,482.04,-0.05475,0.00875,0.9985,-0.42,-0.04,0.0,30640.0,-3290.0,-33320.0
32.7643153,35.0164361,482.04,-0.05625,-0.0015,0.99725,0.36,0.62,0.0,30600.0,-3280.0,-33330.0
32.7643153,35.0164361,482.04,-0.056,-0.0215,0.995,0.04,0.76,0.04,30600.0,-3340.0,-33320.0
32.7643153,35.0164361,482.04,-0.06225,-0.0055,1.00025,-0.26,0.3,0.02,30640.0,-3330.0,-33320.0
32.7643153,35.0164361,482.04,-0.05775,0.02,1.00275,0.54,-0.32,-0.06,30590.0,-3280.0,-33330.0
32.7643153,35.0164361,482.04,-0.0455,0.00125,0.99225,0.24,-0.7,0.0,30620.0,-3340.0,-33320.0
32.7643153,35.0164361,482.04,-0.045,-0.02025,0.9895,-0.94,-0.52,0.1,30700.0,-3410.0,-33320.0
32.7643153,35.0164361,482.04,-0.0555,-0.00325,1.00075,-0.32,-0.1,0.02,30750.0,-3480.0,-33320.0
32.7643153,35.0164361,482.04,-0.05425,0.0135,1.008,1.06,0.46,-0.02,30820.0,-3600.0,-33310.0
32.7643153,35.0164361,482.04,-0.05325,0.0,0.99725,0.26,0.78,-0.04,30880.0,-3630.0,-33310.0
32.7643153,35.0164361,482.04,-0.0635,-0.00825,0.99025,-0.9,0.54,0.08,30900.0,-3610.0,-33310.0
32.7643153,35.0164361,482.04,-0.0665,0.00125,0.996,-0.24,-0.08,0.06,30850.0,-3570.0,-33310.0
32.7643153,35.0164361,482.04,-0.0505,-0.0025,1.0005,0.74,-0.66,-0.02,30770.0,-3510.0,-33320.0
32.7643153,35.0164361,482.04,-0.0405,-0.009,0.99725,-0.14,-0.8,0.0,30690.0,-3400.0,-33320.0
32.7643153,35.0164361,482.04,-0.048,0.00525,0.99775,-0.54,-0.28,0.02,30650.0,-3380.0,-33320.0
32.7643153,35.0164361,482.04,-0.054,0.00575,0.997,0.12,0.38,0.0,30600.0,-3310.0,-33320.0
32.7643153,35.0164361,482.04,-0.05425,-0.01875,0.995,0.18,0.78,-0.04,30600.0,-3320.0,-33320.0
32.7643153,35.0164361,482.04,-0.061,-0.0185,0.99875,-0.38,0.58,0.06,30640.0,-3370.0,-33320.0
32.7643153,35.0164361,482.04,-0.06475,0.013,1.00475,0.32,0.02,0.1,30640.0,-3390.0,-33320.0
32.7643153,35.0164361,482.04,-0.05275,0.01375,0.99675,0.62,-0.54,0.0,30610.0,-3330.0,-33320.0
32.7643153,35.0164361,482.04,-0.04475,-0.01625,0.98675,-0.56,-0.64,0.0,30610.0,-3330.0,-33320.0
32.7643153,35.0164361,482.04,-0.05025,-0.0155,0.99425,-0.98,-0.38,0.06,30630.0,-3350.0,-33320.0
32.7643153,35.0164361,482.04,-0.05275,0.0075,1.0075,0.64,0.1,0.02,30630.0,-3310.0,-33320.0
32.7643153,35.0164361,482.04,-0.04975,0.00525,1.004,0.88,0.5,-0.06,30560.0,-3330.0,-33330.0
32.7643153,35.0164361,482.04,-0.057,-0.00925,0.993,-0.56,0.68,0.06,30560.0,-3310.0,-33330.0
32.7643153,35.0164362,482.05,-0.067,-0.0025,0.99375,-0.64,0.4,0.08,30530.0,-3280.0,-33330.0
32.7643153,35.0164362,482.05,-0.0595,0.00225,0.99875,0.62,-0.24,0.0,30540.0,-3330.0,-33330.0
32.7643153,35.0164362,482.05,-0.04475,-0.00975,0.9965,0.32,-0.72,-0.02,30600.0,-3400.0,-33320.0
32.7643153,35.0164362,482.05,-0.04475,-0.0035,0.99475,-0.58,-0.64,0.0,30590.0,-3380.0,-33320.0
32.7643153,35.0164362,482.05,-0.05275,0.00975,0.99875,-0.12,-0.1,0.04,30590.0,-3410.0,-33320.0
32.7643153,35.0164362,482.05,-0.05275,-0.00575,0.99775,0.32,0.6,0.02,30610.0,-3430.0,-33320.0
32.7643153,35.0164362,482.05,-0.055,-0.02275,0.997,-0.14,0.68,0.0,30580.0,-3390.0,-33330.0
32.7643153,35.0164362,482.05,-0.064,0.0,1.0015,-0.16,0.38,0.04,30580.0,-3410.0,-33330.0
32.7643153,35.0164362,482.05,-0.05925,0.0205,1.0005,0.7,-0.22,0.0,30590.0,-3410.0,-33320.0
32.7643153,35.0164362,482.05,-0.04825,-0.00325,0.9895,0.02,-0.5,0.0,30580.0,-3380.0,-33330.0
32.7643153,35.0164362,482.05,-0.04825,-0.02025,0.9905,-0.88,-0.58,0.06,30520.0,-3310.0,-33330.0
32.7643153,35.0164362,482.05,-0.055,0.00025,1.00275,-0.14,-0.2,0.02,30530.0,-3330.0,-33330.0
32.7643153,35.0164362,482.05,-0.05125,0.013,1.008,1.08,0.32,-0.06,30560.0,-3370.0,-33330.0
32.7643153,35.0164362,482.05,-0.0505,-0.004,0.99675,0.08,0.64,0.02,30580.0,-3350.0,-33320.0
32.7643153,35.0164362,482.05,-0.0625,-0.008,0.9905,-0.98,0.56,0.04,30580.0,-3390.0,-33320.0
32.7643153,35.0164362,482.05,-0.06625,0.00375,0.9965,0.04,0.04,0.0,30570.0,-3400.0,-33330.0
32.7643153,35.0164362,482.05,-0.05175,-0.0015,0.99875,0.74,-0.54,-0.06,30560.0,-3410.0,-33330.0
32.7643153,35.0164362,482.05,-0.04275,-0.009,0.996,-0.3,-0.68,0.02,30590.0,-3440.0,-33320.0
32.7643153,35.0164362,482.05,-0.05025,0.00475,0.99775,-0.66,-0.36,0.04,30590.0,-3460.0,-33320.0
32.7643153,35.0164362,482.05,-0.05425,0.00575,0.9975,0.28,0.24,0.02,30550.0,-3410.0,-33330.0
32.7643153,35.0164362,482.05,-0.0525,-0.01825,0.99575,0.26,0.64,0.0,30520.0,-3380.0,-33330.0
32.7643153,35.0164362,482.05,-0.05875,-0.016,0.99975,-0.44,0.5,0.02,30550.0,-3430.0,-33330.0
32.7643153,35.0164362,482.05,-0.063,0.01525,1.004,0.22,-0.02,0.02,30550.0,-3400.0,-33330.0
32.7643153,35.0164362,482.05,-0.05275,0.01325,0.9945,0.64,-0.38,-0.06,30560.0,-3450.0,-33330.0
32.7643153,35.0164362,482.05,-0.04475,-0.01825,0.98675,-0.64,-0.48,0.0,30580.0,-3430.0,-33320.0
32.7643153,35.0164362,482.05,-0.0505,-0.01625,0.996,-0.82,-0.34,0.06,30580.0,-3410.0,-33320.0
32.7643153,35.0164362,482.05,-0.05375,0.011,1.00775,0.64,0.0,-0.04,30570.0,-3410.0,-33320.0
32.7643153,35.0164362,482.05,-0.05,0.0075,1.0025,0.88,0.5,-0.06,30560.0,-3430.0,-33330.0
32.7643153,35.0164362,482.05,-0.05625,-0.0115,0.99175,-0.68,0.68,0.02,30580.0,-3410.0,-33320.0
32.7643153,35.0164362,482.05,-0.06675,-0.00525,0.99325,-0.76,0.4,0.06,30550.0,-3390.0,-33330.0
32.7643153,35.0164362,482.05,-0.06,0.003,0.999,0.62,-0.28,-0.04,30510.0,-3380.0,-33330.0
32.7643153,35.0164362,482.05,-0.0445,-0.00825,0.99675,0.46,-0.58,-0.06,30560.0,-3420.0,-33330.0
32.7643153,35.0164362,482.05,-0.0445,-0.00675,0.995,-0.62,-0.66,0.04,30570.0,-3380.0,-33330.0
32.7643153,35.0164362,482.05,-0.05325,0.008,0.998,-0.34,-0.14,0.04,30580.0,-3390.0,-33320.0
32.7643153,35.0164362,482.05,-0.054,-0.0045,0.998,0.44,0.48,0.04,30600.0,-3410.0,-33320.0
32.7643153,35.0164362,482.05,-0.0545,-0.0245,0.998,-0.02,0.64,-0.02,30590.0,-3420.0,-33320.0
32.7643153,35.0164362,482.05,-0.063,-0.00425,1.0015,-0.26,0.34,0.04,30580.0,-3430.0,-33330.0
32.7643153,35.0164362,482.05,-0.05975,0.0215,1.00025,0.64,-0.22,-0.02,30590.0,-3470.0,-33320.0
32.7643153,35.0164362,482.05,-0.04775,0.00075,0.9895,0.24,-0.5,0.0,30600.0,-3430.0,-33320.0
32.7643153,35.0164362,482.05,-0.04575,-0.0225,0.99025,-0.96,-0.44,0.0,30600.0,-3410.0,-33320.0
32.7643153,35.0164362,482.06,-0.055,-0.004,1.00375,-0.34,-0.18,0.0,30560.0,-3360.0,-33330.0
32.7643153,35.0164362,482.06,-0.0545,0.0145,1.00825,1.1,0.3,-0.04,30550.0,-3380.0,-33330.0
32.7643153,35.0164362,482.06,-0.05175,0.0,0.99775,0.36,0.76,-0.04,30620.0,-3410.0,-33320.0
32.7643153,35.0164362,482.06,-0.06125,-0.01025,0.9905,-1.06,0.62,0.08,30630.0,-3400.0,-33320.0
32.7643153,35.0164362,482.06,-0.065,0.00225,0.99525,-0.24,-0.04,0.0,30620.0,-3330.0,-33320.0
32.7643153,35.0164362,482.06,-0.05175,0.002,1.0,0.8,-0.62,-0.04,30580.0,-3270.0,-33330.0
32.7643153,35.0164362,482.06,-0.04075,-0.01025,0.997,-0.04,-0.74,0.06,30590.0,-3310.0,-33320.0
32.7643153,35.0164362,482.06,-0.04825,0.00025,0.99575,-0.7,-0.34,0.02,30570.0,-3300.0,-33330.0
32.7643153,35.0164362,482.06,-0.057,0.0095,0.99675,0.18,0.34,0.0,30600.0,-3330.0,-33320.0
32.7643153,35.0164362,482.06,-0.05475,-0.01075,0.996,0.52,0.64,-0.02,30600.0,-3330.0,-33320.0
32.7643153,35.0164362,482.06,-0.05825,-0.02,0.99825,-0.38,0.6,0.04,30570.0,-3290.0,-33330.0
32.7643153,35.0164362,482.06,-0.063,0.00825,1.00175,-0.1,0.0,0.02,30570.0,-3270.0,-33330.0
32.7643153,35.0164362,482.06,-0.05475,0.01925,0.99675,0.78,-0.5,-0.08,30610.0,-3270.0,-33320.0
32.7643153,35.0164362,482.06,-0.044,-0.01025,0.9895,-0.16,-0.54,-0.06,30610.0,-3290.0,-33320.0
32.7643153,35.0164362,482.06,-0.047,-0.01975,0.99525,-1.0,-0.3,0.08,30600.0,-3280.0,-33320.0
32.7643153,35.0164362,482.06,-0.0555,0.0065,1.00625,0.22,0.08,0.02,30570.0,-3290.0,-33330.0
32.7643153,35.0164362,482.06,-0.05225,0.01325,1.00425,1.1,0.52,-0.06,30560.0,-3290.0,-33330.0
32.7643153,35.0164362,482.06,-0.05475,-0.00875,0.99325,-0.28,0.64,0.0,30560.0,-3250.0,-33330.0
32.7643153,35.0164362,482.06,-0.06475,-0.00875,0.9925,-1.06,0.38,0.06,30580.0,-3310.0,-33330.0
32.7643153,35.0164362,482.06,-0.064,0.00575,0.999,0.26,-0.28,-0.02,30610.0,-3350.0,-33320.0
32.7643154,35.0164362,482.06,-0.04775,-0.0025,0.999,0.68,-0.62,-0.06,30570.0,-3280.0,-33330.0
32.7643154,35.0164362,482.06,-0.04175,-0.01025,0.99575,-0.6,-0.6,0.0,30580.0,-3300.0,-33330.0
32.7643154,35.0164362,482.06,-0.05075,0.00425,0.997,-0.62,-0.16,0.04,30600.0,-3300.0,-33330.0
32.7643154,35.0164362,482.06,-0.055,0.0035,0.99775,0.44,0.42,0.0,30590.0,-3290.0,-33330.0
32.7643154,35.0164362,482.06,-0.0535,-0.02,0.99725,0.26,0.64,0.04,30630.0,-3360.0,-33320.0
32.7643154,35.0164362,482.06,-0.06025,-0.0155,1.00025,-0.56,0.38,0.08,30670.0,-3410.0,-33320.0
32.7643154,35.0164362,482.06,-0.06275,0.01525,1.00125,0.24,-0.06,0.02,30660.0,-3320.0,-33320.0
32.7643154,35.0164362,482.06,-0.05125,0.01025,0.9925,0.7,-0.52,-0.04,30580.0,-3260.0,-33330.0
32.7643154,35.0164362,482.06,-0.044,-0.02075,0.98775,-0.62,-0.52,0.0,30590.0,-3300.0,-33330.0
32.7643154,35.0164362,482.06,-0.0515,-0.01575,0.99825,-0.84,-0.32,0.04,30620.0,-3310.0,-33320.0
32.7643154,35.0164362,482.06,-0.05625,0.01175,1.008,0.84,0.22,-0.06,30600.0,-3360.0,-33320.0
32.7643154,35.0164362,482.06,-0.0515,0.00575,1.00025,0.9,0.58,-0.06,30630.0,-3350.0,-33320.0
32.7643154,35.0164362,482.06,-0.05775,-0.01375,0.99125,-0.8,0.62,0.04,30610.0,-3310.0,-33320.0
32.7643154,35.0164362,482.06,-0.0655,-0.00525,0.99425,-0.74,0.18,0.08,30610.0,-3320.0,-33320.0
32.7643154,35.0164362,482.06,-0.0575,0.00475,1.0,0.7,-0.46,-0.04,30630.0,-3350.0,-33320.0
32.7643154,35.0164362,482.06,-0.04325,-0.00725,0.9975,0.48,-0.72,-0.02,30640.0,-3350.0,-33320.0
32.7643154,35.0164362,482.06,-0.045,-0.007,0.99475,-0.78,-0.48,0.0,30570.0,-3280.0,-33330.0
32.7643154,35.0164362,482.06,-0.05475,0.00775,0.99775,-0.28,0.14,0.02,30570.0,-3310.0,-33330.0
32.7643154,35.0164362,482.06,-0.05525,-0.003,0.99825,0.62,0.58,0.0,30620.0,-3370.0,-33320.0
32.7643154,35.0164362,482.06,-0.05475,-0.02225,0.99775,0.0,0.72,0.02,30620.0,-3410.0,-33320.0
32.7643154,35.0164362,482.06,-0.06175,-0.0035,1.00025,-0.4,0.2,0.02,30580.0,-3390.0,-33330.0
32.7643154,35.0164362,482.06,-0.0585,0.02175,0.99925,0.62,-0.34,-0.04,30550.0,-3340.0,-33330.0
32.7643154,35.0164362,482.06,-0.04675,0.0025,0.9905,0.32,-0.52,-0.02,30520.0,-3300.0,-33330.0
32.7643154,35.0164362,482.06,-0.045,-0.022,0.99125,-0.86,-0.38,0.02,30530.0,-3370.0,-33330.0
32.7643154,35.0164362,482.06,-0.055,-0.00275,1.0035,-0.4,-0.1,0.08,30550.0,-3380.0,-33330.0
32.7643154,35.0164362,482.06,-0.056,0.01625,1.00675,1.08,0.38,-0.1,30570.0,-3390.0,-33330.0
32.7643154,35.0164362,482.06,-0.05225,0.0,0.99625,0.42,0.68,-0.04,30660.0,-3450.0,-33320.0
32.7643154,35.0164362,482.06,-0.0605,-0.01125,0.99075,-1.14,0.36,0.04,30790.0,-3570.0,-33310.0
32.7643154,35.0164362,482.06,-0.065,0.0025,0.99725,-0.26,-0.08,0.06,30800.0,-3540.0,-33310.0
32.7643154,35.0164362,482.06,-0.0515,0.00475,1.001,0.86,-0.6,-0.06,30810.0,-3610.0,-33310.0
32.7643154,35.0164362,482.06,-0.0415,-0.00925,0.9965,-0.06,-0.6,-0.04,30840.0,-3640.0,-33310.0
32.7643154,35.0164362,482.06,-0.05,-0.00125,0.996,-0.84,-0.24,0.14,30880.0,-3670.0,-33310.0
32.7643154,35.0164362,482.06,-0.0595,0.00825,0.99775,0.24,0.36,-0.02,30870.0,-3720.0,-33310.0
32.7643154,35.0164362,482.06,-0.05525,-0.01025,0.9975,0.54,0.62,0.0,30760.0,-3620.0,-33310.0
32.7643154,35.0164362,482.06,-0.0565,-0.02025,0.99875,-0.3,0.44,0.06,30670.0,-3490.0,-33320.0
32.7643154,35.0164362,482.06,-0.06125,0.006,1.00175,-0.16,-0.04,0.0,30600.0,-3430.0,-33320.0
32.7643154,35.0164362,482.06,-0.05425,0.01675,0.99675,0.68,-0.5,-0.04,30600.0,-3440.0,-33320.0
32.7643154,35.0164362,482.06,-0.044,-0.0125,0.98875,-0.1,-0.48,0.02,30570.0,-3430.0,-33330.0
32.7643154,35.0164362,482.06,-0.04875,-0.022,0.9945,-1.0,-0.3,0.02,30520.0,-3380.0,-33330.0
32.7643154,35.0164362,482.06,-0.058,0.0045,1.0065,0.26,0.14,0.02,30500.0,-3370.0,-33330.0
32.7643154,35.0164362,482.07,-0.05425,0.01125,1.003,1.14,0.48,-0.1,30480.0,-3350.0,-33330.0
32.7643154,35.0164362,482.07,-0.0545,-0.01075,0.991,-0.24,0.66,0.02,30490.0,-3400.0,-33330.0
32.7643154,35.0164362,482.07,-0.06225,-0.01225,0.99225,-1.02,0.14,0.06,30560.0,-3480.0,-33330.0
32.7643154,35.0164362,482.07,-0.061,0.003,1.00075,0.3,-0.28,0.02,30580.0,-3480.0,-33320.0
32.7643154,35.0164362,482.07,-0.0455,-0.00375,1.00025,0.82,-0.74,-0.06,30580.0,-3450.0,-33320.0
32.7643154,35.0164362,482.07,-0.04175,-0.01075,0.995,-0.36,-0.52,0.0,30560.0,-3440.0,-33330.0
32.7643154,35.0164362,482.07,-0.05275,0.0035,0.99575,-0.56,0.02,0.04,30570.0,-3410.0,-33330.0
32.7643154,35.0164362,482.07,-0.05625,0.002,0.9975,0.52,0.46,0.0,30570.0,-3410.0,-33330.0
32.7643154,35.0164362,482.07,-0.0545,-0.0195,0.996,0.34,0.62,0.04,30570.0,-3430.0,-33330.0
32.7643154,35.0164362,482.07,-0.0615,-0.01325,1.0,-0.4,0.32,-0.04,30570.0,-3400.0,-33330.0
32.7643154,35.0164362,482.07,-0.06275,0.016,1.00275,0.24,-0.22,0.02,30530.0,-3320.0,-33330.0
32.7643154,35.0164362,482.07,-0.05,0.009,0.994,0.62,-0.58,0.0,30550.0,-3360.0,-33330.0
32.7643154,35.0164362,482.07,-0.04325,-0.01925,0.989,-0.6,-0.46,-0.04,30590.0,-3400.0,-33320.0
32.7643154,35.0164362,482.07,-0.051,-0.01175,0.99825,-0.6,-0.26,0.04,30580.0,-3400.0,-33320.0
32.7643154,35.0164362,482.07,-0.0535,0.01175,1.007,0.76,0.22,-0.02,30580.0,-3400.0,-33320.0
32.7643154,35.0164362,482.07,-0.05075,0.00275,0.999,0.8,0.5,-0.02,30590.0,-3400.0,-33320.0
32.7643154,35.0164362,482.07,-0.06,-0.0125,0.9915,-0.72,0.58,0.04,30550.0,-3350.0,-33330.0
32.7643154,35.0164362,482.07,-0.068,-0.0005,0.99625,-0.5,0.2,0.02,30550.0,-3360.0,-33330.0
32.7643154,35.0164362,482.07,-0.058,0.00575,0.99975,0.86,-0.36,-0.02,30580.0,-3370.0,-33330.0
32.7643154,35.0164362,482.07,-0.04375,-0.0065,0.9955,0.3,-0.68,-0.04,30560.0,-3310.0,-33330.0
32.7643154,35.0164363,482.08,-0.0465,-0.002,0.9925,-0.74,-0.44,0.08,30540.0,-3330.0,-33330.0
32.7643154,35.0164363,482.08,-0.05375,0.01125,0.998,-0.08,0.0,0.02,30550.0,-3340.0,-33330.0
32.7643154,35.0164363,482.08,-0.0535,-0.00325,1.0,0.54,0.52,-0.02,30570.0,-3320.0,-33330.0
32.7643154,35.0164363,482.08,-0.05575,-0.01675,0.99875,-0.22,0.64,0.04,30540.0,-3260.0,-33330.0
32.7643154,35.0164363,482.08,-0.06425,0.0055,1.001,-0.2,0.2,0.04,30580.0,-3300.0,-33330.0
32.7643154,35.0164363,482.08,-0.0595,0.0215,0.998,0.62,-0.24,-0.06,30570.0,-3280.0,-33330.0
32.7643154,35.0164363,482.08,-0.04725,-0.004,0.99,0.04,-0.5,0.0,30600.0,-3320.0,-33320.0
32.7643154,35.0164363,482.08,-0.04725,-0.0195,0.993,-1.0,-0.54,0.06,30600.0,-3350.0,-33320.0
32.7643154,35.0164363,482.08,-0.0545,0.0025,1.00575,-0.08,-0.14,0.0,30620.0,-3370.0,-33320.0
32.7643154,35.0164363,482.08,-0.051,0.01225,1.00825,1.06,0.32,0.02,30610.0,-3340.0,-33320.0
32.7643154,35.0164363,482.08,-0.051,-0.007,0.9965,-0.04,0.58,-0.02,30590.0,-3330.0,-33330.0
32.7643154,35.0164363,482.08,-0.06225,-0.011,0.9915,-1.0,0.46,0.1,30610.0,-3350.0,-33320.0
32.7643154,35.0164363,482.08,-0.06425,0.00125,0.99875,0.1,0.0,0.0,30620.0,-3270.0,-33320.0
32.7643154,35.0164363,482.08,-0.0495,-0.004,1.001,0.8,-0.56,-0.08,30590.0,-3260.0,-33330.0
32.7643154,35.0164363,482.08,-0.0425,-0.01075,0.99625,-0.32,-0.6,0.02,30610.0,-3280.0,-33320.0
32.7643154,35.0164363,482.08,-0.0505,0.00325,0.9975,-0.54,-0.26,0.04,30620.0,-3300.0,-33320.0
32.7643154,35.0164363,482.08,-0.05375,0.003,0.9985,0.36,0.3,0.04,30600.0,-3330.0,-33330.0
32.7643154,35.0164363,482.08,-0.05175,-0.01925,0.99675,0.16,0.66,-0.02,30590.0,-3330.0,-33330.0
32.7643154,35.0164363,482.08,-0.05825,-0.0145,0.99825,-0.4,0.46,0.06,30600.0,-3340.0,-33330.0
32.7643154,35.0164363,482.08,-0.06175,0.01525,1.001,0.24,-0.02,-0.02,30610.0,-3320.0,-33320.0
32.7643154,35.0164363,482.08,-0.05175,0.011,0.9935,0.58,-0.38,0.0,30580.0,-3310.0,-33330.0
32.7643154,35.0164363,482.08,-0.04575,-0.019,0.98725,-0.6,-0.42,-0.02,30540.0,-3240.0,-33330.0
32.7643154,35.0164363,482.08,-0.05325,-0.0125,0.996,-0.68,-0.28,0.04,30550.0,-3250.0,-33330.0
32.7643154,35.0164363,482.08,-0.056,0.01225,1.00525,0.76,0.14,-0.02,30590.0,-3320.0,-33330.0
32.7643154,35.0164363,482.08,-0.052,0.00625,0.9985,0.78,0.56,-0.04,30620.0,-3350.0,-33320.0
32.7643154,35.0164363,482.08,-0.0585,-0.0115,0.9895,-0.76,0.52,0.0,30640.0,-3380.0,-33320.0
