Lat_GNSS,Long_GNSS,Height_GNSS,Acc_X,Acc_Y,Acc_Z,Gyro_X,Gyro_Y,Gyro_Z,Magn_X,Magn_Y,Magn_Z
32.7643192,35.0164477,482.85,-0.067,0.02975,1.01425,0.3,-0.4,0.14,31890.0,-3750.0,-33320.0
32.7643192,35.0164477,482.85,-0.056,0.0225,0.99425,0.46,-0.68,0.12,31920.0,-3800.0,-33330.0
32.7643192,35.0164477,482.85,-0.0535,0.0005,0.981,-0.52,-0.78,0.14,31940.0,-3790.0,-33330.0
32.7643192,35.0164477,482.85,-0.05975,0.01075,1.00225,-0.84,-0.54,0.18,31910.0,-3770.0,-33330.0
32.7643192,35.0164477,482.85,-0.06275,0.0235,1.01425,0.26,-0.04,0.06,31920.0,-3790.0,-33330.0
32.7643192,35.0164477,482.85,-0.06125,0.0125,0.99175,0.42,0.34,-0.04,31920.0,-3820.0,-33320.0
32.7643192,35.0164477,482.85,-0.06675,0.0085,0.986,-0.34,0.3,0.08,31880.0,-3840.0,-33320.0
32.7643192,35.0164477,482.85,-0.07,0.0215,1.00325,-0.4,0.14,0.06,31880.0,-3820.0,-33330.0
32.7643192,35.0164477,482.85,-0.06125,0.016,1.0,0.06,-0.34,0.02,31890.0,-3810.0,-33340.0
32.7643192,35.0164477,482.85,-0.05175,0.0035,0.9845,0.0,-0.7,0.06,31870.0,-3750.0,-33350.0
32.7643192,35.0164477,482.85,-0.055,0.01425,0.99,-0.36,-0.8,0.12,31840.0,-3760.0,-33340.0
32.7643192,35.0164477,482.85,-0.061,0.02525,1.00175,-0.1,-0.2,0.08,31850.0,-3810.0,-33340.0
32.7643192,35.0164478,482.84,-0.06025,0.005,0.993,-0.06,0.4,0.04,31890.0,-3800.0,-33360.0
32.7643192,35.0164478,482.84,-0.0635,-0.00925,0.9865,-0.4,0.48,0.06,31890.0,-3800.0,-33370.0
32.7643192,35.0164478,482.84,-0.0685,0.01675,1.00525,0.12,0.2,0.08,31890.0,-3800.0,-33370.0
32.7643192,35.0164478,482.84,-0.061,0.0295,1.00275,0.58,-0.16,0.02,31870.0,-3790.0,-33350.0
32.7643192,35.0164478,482.84,-0.0525,0.005,0.97575,-0.14,-0.48,0.02,31870.0,-3800.0,-33340.0
32.7643192,35.0164478,482.84,-0.05375,-0.0055,0.986,-0.92,-0.62,0.1,31870.0,-3820.0,-33340.0
32.7643192,35.0164478,482.84,-0.06125,0.017,1.0165,0.12,-0.18,0.0,31860.0,-3820.0,-33330.0
32.7643192,35.0164478,482.84,-0.0585,0.0205,1.0045,0.58,0.32,0.04,31850.0,-3840.0,-33330.0
32.7643192,35.0164478,482.84,-0.06025,0.00325,0.9815,-0.22,0.56,0.0,31880.0,-3870.0,-33330.0
32.7643192,35.0164478,482.84,-0.068,0.00975,0.9995,-0.6,0.4,0.06,31870.0,-3870.0,-33340.0
32.7643192,35.0164478,482.84,-0.06675,0.0195,1.01525,0.06,0.02,-0.02,31850.0,-3800.0,-33350.0
32.7643192,35.0164478,482.84,-0.05425,0.0055,0.99675,0.14,-0.4,-0.06,31860.0,-3830.0,-33330.0
32.7643192,35.0164478,482.84,-0.04975,0.00075,0.987,-0.38,-0.74,0.02,31870.0,-3850.0,-33330.0
32.7643192,35.0164478,482.84,-0.057,0.02225,1.009,-0.2,-0.46,0.06,31860.0,-3850.0,-33330.0
32.7643192,35.0164478,482.84,-0.0595,0.0165,1.00925,0.06,0.34,-0.1,31830.0,-3830.0,-33330.0
32.7643192,35.0164478,482.84,-0.06025,-0.0135,0.99225,-0.44,0.66,0.0,31860.0,-3850.0,-33320.0
32.7643192,35.0164478,482.84,-0.06875,-0.00525,1.001,-0.32,0.52,-0.04,31830.0,-3770.0,-33320.0
32.7643192,35.0164478,482.84,-0.07025,0.02475,1.0135,0.58,0.16,0.02,31800.0,-3760.0,-33340.0
32.7643192,35.0164478,482.84,-0.0575,0.01475,0.99,0.16,-0.44,-0.04,31840.0,-3820.0,-33340.0
32.7643192,35.0164478,482.84,-0.05325,-0.01125,0.98,-0.84,-0.74,0.0,31860.0,-3800.0,-33350.0
32.7643192,35.0164478,482.84,-0.06125,-0.00075,1.00325,-0.44,-0.4,-0.06,31860.0,-3790.0,-33360.0
32.7643192,35.0164478,482.84,-0.06025,0.0175,1.01225,0.66,0.1,-0.04,31840.0,-3800.0,-33360.0
32.7643192,35.0164478,482.84,-0.05875,0.0055,0.9885,0.3,0.52,0.0,31830.0,-3770.0,-33340.0
32.7643192,35.0164478,482.84,-0.06725,0.0,0.98225,-0.6,0.58,0.08,31830.0,-3810.0,-33340.0
32.7643192,35.0164478,482.84,-0.07225,0.01325,1.00325,-0.12,0.3,0.06,31860.0,-3850.0,-33340.0
32.7643192,35.0164478,482.84,-0.059,0.00975,0.99975,0.44,-0.3,-0.04,31890.0,-3850.0,-33350.0
32.7643192,35.0164478,482.84,-0.05,-0.00275,0.97925,-0.06,-0.74,0.02,31890.0,-3830.0,-33340.0
32.7643192,35.0164478,482.84,-0.05475,0.0105,0.98775,-0.34,-0.64,0.06,31870.0,-3830.0,-33340.0
32.7643192,35.0164478,482.84,-0.05875,0.02,1.0035,0.2,0.04,0.02,31850.0,-3800.0,-33340.0
32.7643192,35.0164478,482.84,-0.058,0.00075,0.9955,-0.04,0.58,0.02,31850.0,-3780.0,-33340.0
32.7643192,35.0164478,482.84,-0.0635,-0.0055,0.989,-0.32,0.66,0.06,31860.0,-3770.0,-33350.0
32.7643192,35.0164478,482.84,-0.0685,0.0215,1.00175,0.22,0.28,0.06,31870.0,-3740.0,-33340.0
32.7643192,35.0164478,482.84,-0.05775,0.03025,1.0005,0.6,-0.28,0.0,31830.0,-3680.0,-33340.0
32.7643192,35.0164478,482.84,-0.05075,0.00725,0.98775,-0.52,-0.62,-0.04,31820.0,-3710.0,-33330.0
32.7643192,35.0164478,482.84,-0.055,0.001,0.98925,-0.74,-0.48,-0.04,31850.0,-3740.0,-33330.0
32.7643192,35.0164478,482.84,-0.06325,0.01925,1.014,0.28,0.02,-0.06,31860.0,-3720.0,-33340.0
32.7643192,35.0164478,482.84,-0.06025,0.012,1.00175,0.46,0.54,-0.06,31880.0,-3740.0,-33340.0
32.7643192,35.0164478,482.84,-0.06375,0.00025,0.99,-0.46,0.66,-0.02,31880.0,-3780.0,-33350.0
32.7643192,35.0164478,482.84,-0.0725,0.01075,1.00525,-0.42,0.26,0.02,31860.0,-3750.0,-33340.0
32.7643192,35.0164478,482.84,-0.067,0.01875,1.009,0.34,-0.18,0.0,31900.0,-3780.0,-33340.0
32.7643192,35.0164478,482.83,-0.052,0.0035,0.99875,-0.02,-0.7,-0.1,31910.0,-3750.0,-33360.0
32.7643192,35.0164478,482.83,-0.04975,0.004,0.99575,-0.6,-0.72,0.0,31900.0,-3740.0,-33360.0
32.7643192,35.0164478,482.83,-0.05775,0.027,1.0085,0.06,-0.2,0.0,31930.0,-3780.0,-33350.0
32.7643192,35.0164478,482.83,-0.05875,0.01525,1.005,0.22,0.52,0.06,31950.0,-3850.0,-33340.0
32.7643192,35.0164478,482.83,-0.06275,-0.008,0.99375,-0.6,0.8,0.04,31910.0,-3790.0,-33340.0
32.7643192,35.0164478,482.83,-0.0725,0.00575,1.00775,-0.32,0.56,0.08,31880.0,-3760.0,-33330.0
32.7643192,35.0164478,482.83,-0.06825,0.03,1.0115,0.64,0.0,-0.02,31890.0,-3820.0,-33330.0
32.7643192,35.0164478,482.83,-0.054,0.012,0.9825,-0.02,-0.58,0.02,31920.0,-3800.0,-33340.0
32.7643192,35.0164478,482.83,-0.05325,-0.011,0.9745,-1.08,-0.74,-0.02,31920.0,-3800.0,-33330.0
32.7643192,35.0164478,482.83,-0.06075,0.00225,1.00175,-0.16,-0.24,0.06,31900.0,-3740.0,-33340.0
32.7643192,35.0164478,482.83,-0.0595,0.0115,1.00475,0.88,0.32,-0.02,31960.0,-3800.0,-33340.0
32.7643192,35.0164478,482.83,-0.0625,0.00525,0.98075,0.2,0.76,0.0,32080.0,-3980.0,-33310.0
32.7643192,35.0164478,482.83,-0.07175,0.009,0.9815,-0.38,0.72,-0.04,32130.0,-4070.0,-33300.0
32.7643192,35.0164478,482.83,-0.06875,0.017,1.00575,0.2,0.12,-0.02,32150.0,-4090.0,-33280.0
32.7643192,35.0164478,482.83,-0.054,0.011,1.00275,0.42,-0.46,-0.08,32090.0,-4010.0,-33270.0
32.7643192,35.0164478,482.83,-0.04675,0.015,0.98675,-0.04,-0.66,-0.04,32100.0,-4020.0,-33280.0
32.7643192,35.0164478,482.83,-0.0505,0.033,0.99575,-0.06,-0.18,0.04,32160.0,-4090.0,-33280.0
32.7643192,35.0164478,482.83,-0.05425,0.0255,1.00725,-0.16,0.48,-0.02,32110.0,-4030.0,-33300.0
32.7643192,35.0164478,482.83,-0.06,0.0015,1.00325,-0.7,0.86,0.12,32050.0,-3960.0,-33310.0
32.7643192,35.0164478,482.83,-0.07,0.006,0.997,-0.58,0.64,0.04,31990.0,-3880.0,-33320.0
32.7643192,35.0164478,482.83,-0.07375,0.02625,1.009,0.14,0.14,-0.04,31950.0,-3790.0,-33340.0
32.7643192,35.0164478,482.83,-0.061,0.019,1.002,-0.12,-0.42,0.0,31940.0,-3800.0,-33340.0
32.7643192,35.0164478,482.83,-0.0545,-0.00275,0.984,-1.18,-0.8,0.02,31940.0,-3810.0,-33330.0
32.7643192,35.0164478,482.83,-0.059,-0.00025,0.998,-0.78,-0.68,0.04,31920.0,-3800.0,-33340.0
32.7643192,35.0164478,482.83,-0.05875,0.00775,1.01325,0.32,-0.08,-0.04,31920.0,-3830.0,-33330.0
32.7643192,35.0164478,482.83,-0.05775,0.00175,0.9965,0.1,0.48,-0.12,31950.0,-3870.0,-33330.0
32.7643192,35.0164478,482.83,-0.06975,0.0005,0.9855,-0.52,0.62,-0.02,31940.0,-3870.0,-33330.0
32.7643192,35.0164478,482.83,-0.0765,0.0115,0.99875,-0.06,0.44,0.02,31950.0,-3870.0,-33330.0
32.7643192,35.0164478,482.83,-0.0655,0.0105,1.003,0.34,-0.18,-0.06,31930.0,-3860.0,-33330.0
32.7643192,35.0164478,482.83,-0.055,0.00175,0.98675,-0.3,-0.74,0.0,31910.0,-3830.0,-33340.0
32.7643192,35.0164478,482.83,-0.05625,0.014,0.9865,-0.42,-0.84,0.0,31910.0,-3820.0,-33350.0
32.7643192,35.0164478,482.83,-0.058,0.025,1.005,0.14,-0.28,0.0,31900.0,-3850.0,-33340.0
32.7643192,35.0164478,482.83,-0.056,0.00825,1.00025,-0.28,0.4,0.0,31890.0,-3830.0,-33330.0
32.7643192,35.0164478,482.83,-0.064,-0.00225,0.99125,-0.82,0.7,0.08,31900.0,-3870.0,-33330.0
32.7643192,35.0164478,482.83,-0.07,0.01875,1.00625,-0.04,0.58,0.0,31950.0,-3920.0,-33340.0
32.7643192,35.0164478,482.83,-0.063,0.028,1.00525,0.28,-0.02,0.08,31960.0,-3920.0,-33340.0
32.7643192,35.0164478,482.83,-0.05325,0.00525,0.988,-0.88,-0.58,0.04,31960.0,-3920.0,-33350.0
32.7643192,35.0164478,482.83,-0.057,-0.002,0.99525,-1.16,-0.64,0.1,31950.0,-3930.0,-33360.0
32.7643192,35.0164478,482.83,-0.06025,0.0145,1.01675,-0.1,-0.2,-0.04,31930.0,-3930.0,-33360.0
32.7643192,35.0164478,482.83,-0.05675,0.01575,1.01375,0.2,0.42,-0.1,31930.0,-3930.0,-33350.0
32.7643191,35.0164478,482.83,-0.06025,0.003,0.99525,-0.8,0.62,0.0,31910.0,-3920.0,-33370.0
32.7643191,35.0164478,482.83,-0.0695,0.00575,0.9995,-0.88,0.54,-0.1,31900.0,-3910.0,-33370.0
32.7643191,35.0164478,482.83,-0.067,0.00875,1.014,0.08,0.06,-0.08,31880.0,-3920.0,-33350.0
32.7643191,35.0164478,482.83,-0.05575,0.002,0.999,-0.1,-0.52,-0.1,31870.0,-3910.0,-33350.0
32.7643191,35.0164478,482.83,-0.05525,0.00475,0.98375,-0.78,-0.7,-0.04,31880.0,-3930.0,-33340.0
32.7643191,35.0164478,482.83,-0.0615,0.018,0.99975,-0.22,-0.28,-0.08,31880.0,-3900.0,-33340.0
32.7643191,35.0164478,482.83,-0.0645,0.00675,1.00425,-0.12,0.36,-0.1,31900.0,-3910.0,-33330.0
32.7643191,35.0164478,482.83,-0.06675,-0.01275,0.989,-0.76,0.72,0.02,31890.0,-3900.0,-33340.0
32.7643191,35.0164478,482.83,-0.071,-0.00225,0.99225,-0.46,0.48,-0.02,31850.0,-3850.0,-33340.0
32.7643191,35.0164478,482.83,-0.06775,0.01875,1.007,0.36,-0.18,0.02,31820.0,-3820.0,-33350.0
32.7643191,35.0164478,482.83,-0.0575,0.01175,0.9935,-0.2,-0.62,-0.06,31830.0,-3840.0,-33350.0
32.7643191,35.0164478,482.83,-0.05275,-0.004,0.98075,-1.2,-0.72,0.08,31810.0,-3840.0,-33340.0
32.7643191,35.0164478,482.83,-0.05875,0.00325,1.004,-0.64,-0.32,-0.06,31810.0,-3860.0,-33350.0
32.7643191,35.0164478,482.83,-0.06075,0.01625,1.02025,0.36,0.32,0.0,31810.0,-3870.0,-33350.0
32.7643191,35.0164478,482.83,-0.061,0.016,0.99975,-0.28,0.68,0.04,31790.0,-3790.0,-33350.0
32.7643191,35.0164478,482.83,-0.066,0.0145,0.98775,-1.04,0.56,0.08,31770.0,-3760.0,-33350.0
32.7643191,35.0164478,482.83,-0.06675,0.01575,1.01175,-0.52,0.0,0.02,31820.0,-3840.0,-33360.0
32.7643191,35.0164478,482.83,-0.057,0.01,1.01675,-0.28,-0.54,0.0,31830.0,-3850.0,-33360.0
32.7643191,35.0164478,482.83,-0.048,0.0075,0.99275,-0.76,-0.8,0.0,31830.0,-3880.0,-33350.0
32.7643191,35.0164478,482.83,-0.0525,0.019,0.99275,-0.64,-0.48,-0.06,31830.0,-3910.0,-33360.0
32.7643191,35.0164478,482.83,-0.06,0.0185,1.0115,-0.24,0.3,-0.02,31850.0,-3910.0,-33380.0
32.7643191,35.0164478,482.83,-0.065,-0.001,1.0015,-0.76,0.78,0.0,31840.0,-3900.0,-33390.0
32.7643191,35.0164478,482.83,-0.071,-0.00675,0.98675,-0.86,0.74,-0.04,31840.0,-3850.0,-33390.0
32.7643191,35.0164478,482.83,-0.074,0.00975,1.00075,-0.04,0.12,-0.12,31800.0,-3810.0,-33390.0
32.7643191,35.0164478,482.83,-0.066,0.014,1.00375,0.08,-0.58,-0.12,31800.0,-3830.0,-33380.0
32.7643191,35.0164478,482.83,-0.0575,-0.005,0.9795,-0.96,-0.84,-0.12,31820.0,-3840.0,-33360.0
32.7643191,35.0164478,482.83,-0.06,-0.01225,0.98125,-1.02,-0.56,-0.04,31820.0,-3830.0,-33360.0
32.7643191,35.0164478,482.83,-0.0635,-0.00375,1.0055,0.1,-0.04,-0.06,31820.0,-3850.0,-33360.0
32.7643191,35.0164478,482.83,-0.064,-0.00025,1.0,0.22,0.5,-0.1,31820.0,-3890.0,-33360.0
32.7643191,35.0164478,482.83,-0.0695,-0.00325,0.97525,-0.58,0.54,-0.02,31830.0,-3890.0,-33370.0
32.7643191,35.0164478,482.83,-0.075,-0.00175,0.9805,-0.5,0.2,-0.06,31790.0,-3830.0,-33380.0
32.7643191,35.0164478,482.83,-0.07,-0.00425,1.0035,0.08,-0.4,0.02,31790.0,-3840.0,-33360.0
32.7643191,35.0164478,482.83,-0.057,-0.00675,0.98825,-0.12,-0.86,-0.02,31790.0,-3840.0,-33360.0
32.7643191,35.0164478,482.83,-0.054,0.001,0.97375,-0.34,-0.88,0.0,31800.0,-3810.0,-33360.0
32.7643191,35.0164478,482.83,-0.05625,0.00925,0.987,0.04,-0.34,0.06,31810.0,-3820.0,-33360.0
32.7643191,35.0164478,482.83,-0.058,-0.0025,1.00075,0.02,0.22,0.04,31820.0,-3840.0,-33360.0
32.7643191,35.0164478,482.83,-0.0585,-0.017,0.9845,-0.5,0.42,0.1,31810.0,-3840.0,-33360.0
32.7643191,35.0164478,482.83,-0.065,-0.00425,0.9875,-0.04,0.22,0.08,31840.0,-3860.0,-33370.0
32.7643191,35.0164478,482.83,-0.0585,0.0125,1.004,0.66,-0.42,0.02,31870.0,-3910.0,-33380.0
32.7643191,35.0164478,482.83,-0.048,0.0035,0.9885,-0.08,-0.8,0.0,31840.0,-3830.0,-33380.0
32.7643191,35.0164478,482.83,-0.04175,-0.01225,0.9795,-0.76,-0.98,0.12,31780.0,-3740.0,-33390.0
32.7643191,35.0164478,482.83,-0.04875,-0.00275,0.99775,-0.04,-0.48,0.08,31770.0,-3740.0,-33390.0
32.7643191,35.0164478,482.83,-0.0485,0.00625,1.01375,0.66,0.18,0.02,31800.0,-3740.0,-33380.0
32.7643191,35.0164478,482.83,-0.05,-0.00025,0.99075,0.06,0.52,0.0,31830.0,-3820.0,-33370.0
32.7643191,35.0164478,482.83,-0.0585,-0.00325,0.98575,-0.46,0.44,0.08,31850.0,-3840.0,-33360.0
32.7643191,35.0164478,482.83,-0.06175,0.0075,1.01,0.2,0.08,0.02,31820.0,-3790.0,-33370.0
32.7643191,35.0164478,482.83,-0.05075,0.00275,1.00275,0.48,-0.42,0.0,31810.0,-3780.0,-33370.0
32.7643191,35.0164478,482.83,-0.04225,-0.00775,0.983,-0.24,-0.7,-0.04,31820.0,-3820.0,-33370.0
32.7643191,35.0164478,482.83,-0.04775,0.00775,0.99625,-0.04,-0.5,-0.04,31800.0,-3810.0,-33370.0
32.7643191,35.0164478,482.83,-0.05325,0.0205,1.01025,0.62,0.24,-0.02,31770.0,-3710.0,-33380.0
32.7643191,35.0164478,482.83,-0.055,-0.003,0.9895,0.0,0.82,-0.04,31770.0,-3720.0,-33380.0
32.7643191,35.0164478,482.83,-0.06325,-0.01375,0.9885,-0.46,0.8,0.0,31790.0,-3730.0,-33380.0
32.7643191,35.0164478,482.83,-0.07025,0.015,1.011,0.48,0.42,-0.06,31750.0,-3700.0,-33370.0
32.7643191,35.0164478,482.83,-0.0615,0.02875,0.99875,0.88,-0.16,0.02,31750.0,-3730.0,-33370.0
32.7643191,35.0164478,482.83,-0.05325,0.00225,0.9735,-0.3,-0.52,-0.02,31740.0,-3680.0,-33360.0
32.7643191,35.0164478,482.83,-0.05775,-0.00425,0.98875,-0.86,-0.46,0.02,31720.0,-3670.0,-33370.0
32.7643191,35.0164478,482.83,-0.0635,0.014,1.01825,0.36,0.06,0.04,31720.0,-3700.0,-33370.0
32.7643191,35.0164478,482.83,-0.0615,0.01575,0.99775,0.82,0.64,0.0,31730.0,-3710.0,-33370.0
32.7643191,35.0164478,482.83,-0.068,0.00425,0.97775,-0.3,0.8,-0.02,31720.0,-3730.0,-33360.0
32.7643191,35.0164478,482.83,-0.0765,0.01275,1.0015,-0.5,0.44,0.04,31760.0,-3760.0,-33370.0
32.7643191,35.0164478,482.83,-0.072,0.0145,1.01325,0.3,-0.08,0.02,31780.0,-3780.0,-33390.0
32.7643191,35.0164478,482.83,-0.05975,0.001,0.9865,0.18,-0.68,0.02,31770.0,-3770.0,-33380.0
32.7643191,35.0164478,482.83,-0.05675,0.0055,0.98575,-0.32,-0.78,0.02,31770.0,-3800.0,-33380.0
32.7643191,35.0164478,482.83,-0.0605,0.0245,1.01175,0.1,-0.38,-0.02,31760.0,-3790.0,-33370.0
32.7643191,35.0164478,482.83,-0.06275,0.01325,1.001,0.14,0.38,0.02,31710.0,-3740.0,-33360.0
32.7643191,35.0164478,482.83,-0.0645,-0.0085,0.983,-0.44,0.62,0.06,31730.0,-3760.0,-33360.0
32.7643191,35.0164478,482.83,-0.06925,0.004,1.005,-0.18,0.4,-0.04,31740.0,-3740.0,-33360.0
32.7643191,35.0164478,482.83,-0.0665,0.028,1.01575,0.6,-0.14,0.0,31720.0,-3760.0,-33360.0
32.7643191,35.0164478,482.83,-0.054,0.01475,0.985,-0.02,-0.62,-0.08,31720.0,-3760.0,-33350.0
32.7643191,35.0164478,482.83,-0.04925,-0.0065,0.98025,-0.88,-0.82,0.02,31700.0,-3740.0,-33360.0
32.7643191,35.0164478,482.83,-0.05475,0.00425,1.01275,-0.26,-0.38,0.0,31690.0,-3700.0,-33380.0
32.7643191,35.0164478,482.83,-0.0535,0.01425,1.0135,0.6,0.28,-0.02,31670.0,-3720.0,-33380.0
32.7643191,35.0164478,482.83,-0.0545,0.00125,0.9815,-0.14,0.64,0.0,31690.0,-3760.0,-33370.0
32.7643191,35.0164478,482.83,-0.064,-0.00225,0.9905,-0.62,0.56,0.0,31700.0,-3770.0,-33360.0
32.7643191,35.0164478,482.83,-0.0655,0.00725,1.013,0.08,0.14,-0.04,31690.0,-3760.0,-33350.0
32.7643191,35.0164478,482.83,-0.0535,-0.002,0.99575,0.22,-0.4,0.0,31720.0,-3800.0,-33360.0
32.7643191,35.0164478,482.83,-0.04725,-0.01,0.98325,-0.38,-0.7,0.02,31760.0,-3840.0,-33370.0
32.7643191,35.0164478,482.83,-0.051,0.0055,1.00125,-0.06,-0.48,-0.04,31840.0,-3940.0,-33360.0
32.7643191,35.0164478,482.83,-0.05325,0.01025,1.005,0.3,0.24,0.0,31900.0,-4050.0,-33330.0
32.7643191,35.0164478,482.83,-0.05575,-0.01075,0.989,-0.24,0.7,0.04,31960.0,-4080.0,-33310.0
32.7643191,35.0164478,482.83,-0.065,-0.0135,0.9945,-0.32,0.76,-0.04,31950.0,-4060.0,-33330.0
32.7643191,35.0164478,482.83,-0.068,0.0125,1.01175,0.58,0.32,-0.06,31990.0,-4120.0,-33320.0
32.7643191,35.0164478,482.83,-0.058,0.01725,0.995,0.6,-0.26,0.0,32020.0,-4140.0,-33300.0
32.7643191,35.0164478,482.83,-0.05425,-0.005,0.977,-0.58,-0.6,0.04,31980.0,-4130.0,-33300.0
32.7643191,35.0164478,482.83,-0.058,-0.00425,0.99875,-0.46,-0.4,0.02,31900.0,-4060.0,-33320.0
32.7643191,35.0164478,482.83,-0.06075,0.0115,1.01325,0.66,0.08,-0.02,31860.0,-3990.0,-33330.0
32.7643191,35.0164478,482.83,-0.06,0.00825,0.99275,0.42,0.58,0.02,31800.0,-3930.0,-33340.0
32.7643191,35.0164478,482.83,-0.0685,0.001,0.9845,-0.54,0.7,0.02,31780.0,-3910.0,-33350.0
32.7643191,35.0164478,482.83,-0.0745,0.01075,1.005,-0.1,0.34,0.02,31740.0,-3850.0,-33350.0
32.7643191,35.0164478,482.83,-0.06575,0.0095,1.00375,0.46,-0.14,-0.02,31720.0,-3800.0,-33360.0
32.7643191,35.0164478,482.83,-0.05675,-0.003,0.98425,-0.1,-0.66,-0.08,31740.0,-3810.0,-33370.0
32.7643191,35.0164478,482.83,-0.05825,0.00475,0.9935,-0.32,-0.64,0.04,31740.0,-3810.0,-33360.0
32.7643191,35.0164478,482.83,-0.0605,0.0195,1.0095,0.36,-0.06,-0.02,31730.0,-3790.0,-33360.0
32.7643191,35.0164478,482.83,-0.06075,0.003,0.99625,0.06,0.54,0.0,31730.0,-3800.0,-33360.0
32.7643191,35.0164478,482.83,-0.065,-0.01125,0.98875,-0.54,0.58,0.0,31750.0,-3840.0,-33350.0
32.7643191,35.0164478,482.83,-0.06925,0.01,1.00825,0.16,0.32,-0.04,31740.0,-3810.0,-33360.0
32.7643191,35.0164478,482.83,-0.06,0.025,1.00525,0.68,-0.24,-0.02,31720.0,-3780.0,-33370.0
32.7643191,35.0164478,482.83,-0.05175,0.005,0.981,-0.22,-0.72,0.04,31730.0,-3790.0,-33360.0
32.7643191,35.0164478,482.83,-0.05325,-0.00425,0.9905,-0.66,-0.64,-0.02,31730.0,-3820.0,-33360.0
32.7643191,35.0164478,482.83,-0.05825,0.01325,1.0145,0.26,-0.12,0.06,31760.0,-3840.0,-33370.0
32.7643191,35.0164478,482.83,-0.057,0.0165,1.00275,0.62,0.48,0.04,31780.0,-3830.0,-33380.0
32.7643191,35.0164478,482.83,-0.0595,0.00375,0.98225,-0.24,0.64,0.04,31780.0,-3840.0,-33380.0
32.7643191,35.0164478,482.83,-0.06625,0.00825,0.99575,-0.48,0.36,-0.04,31790.0,-3870.0,-33370.0
32.7643191,35.0164478,482.83,-0.06175,0.01675,1.0115,0.32,-0.14,0.04,31800.0,-3880.0,-33360.0
32.7643191,35.0164478,482.83,-0.0495,0.003,0.98975,0.08,-0.7,0.02,31800.0,-3850.0,-33360.0
32.7643191,35.0164478,482.83,-0.04875,-0.00075,0.983,-0.44,-0.66,0.02,31760.0,-3740.0,-33360.0
32.7643191,35.0164478,482.83,-0.056,0.018,1.007,0.08,-0.14,0.04,31740.0,-3730.0,-33350.0
32.7643191,35.0164478,482.83,-0.05825,0.01175,1.001,0.22,0.54,0.0,31760.0,-3790.0,-33360.0
32.7643191,35.0164478,482.83,-0.0615,-0.01175,0.9835,-0.44,0.76,0.02,31750.0,-3780.0,-33360.0
32.7643191,35.0164478,482.83,-0.069,-0.0025,0.999,-0.24,0.46,0.06,31720.0,-3740.0,-33360.0
32.7643191,35.0164478,482.83,-0.06475,0.021,1.0125,0.6,-0.08,0.02,31720.0,-3720.0,-33370.0
32.7643191,35.0164478,482.83,-0.0535,0.008,0.987,0.04,-0.66,-0.02,31730.0,-3730.0,-33360.0
32.7643191,35.0164478,482.83,-0.05125,-0.0115,0.9795,-0.7,-0.68,0.0,31750.0,-3720.0,-33360.0
32.7643191,35.0164478,482.83,-0.05825,0.00175,1.00875,-0.04,-0.16,-0.04,31740.0,-3750.0,-33360.0
32.7643191,35.0164478,482.83,-0.06025,0.0135,1.01125,0.72,0.54,-0.14,31710.0,-3680.0,-33360.0
32.7643191,35.0164478,482.83,-0.063,0.00025,0.98525,0.06,0.76,0.04,31690.0,-3650.0,-33370.0
32.7643191,35.0164478,482.83,-0.07225,-0.003,0.9895,-0.58,0.66,0.02,31700.0,-3660.0,-33380.0
32.7643191,35.0164478,482.83,-0.07225,0.01025,1.01325,0.16,0.1,0.02,31700.0,-3630.0,-33380.0
32.7643191,35.0164478,482.83,-0.05925,0.0035,0.9995,0.36,-0.6,-0.02,31700.0,-3650.0,-33370.0
32.7643191,35.0164478,482.83,-0.051,-0.0075,0.98125,-0.34,-0.88,0.02,31710.0,-3630.0,-33380.0
32.7643191,35.0164478,482.83,-0.0555,0.0075,1.0015,-0.18,-0.48,0.0,31710.0,-3590.0,-33390.0
32.7643191,35.0164478,482.83,-0.059,0.014,1.01025,0.38,0.26,-0.02,31690.0,-3570.0,-33400.0
32.7643191,35.0164478,482.83,-0.06025,-0.0075,0.99025,-0.14,0.76,0.04,31690.0,-3590.0,-33400.0
32.7643191,35.0164478,482.83,-0.06875,-0.00975,0.9925,-0.4,0.58,0.04,31700.0,-3620.0,-33390.0
32.7643191,35.0164478,482.83,-0.0705,0.0175,1.01325,0.48,0.1,-0.02,31730.0,-3650.0,-33380.0
32.7643191,35.0164478,482.83,-0.058,0.01875,0.997,0.58,-0.5,-0.02,31780.0,-3720.0,-33380.0
32.7643191,35.0164478,482.83,-0.05075,-0.00675,0.977,-0.64,-0.82,0.04,31820.0,-3780.0,-33370.0
32.7643191,35.0164478,482.83,-0.05475,-0.00175,1.0,-0.44,-0.5,0.06,31800.0,-3810.0,-33370.0
32.7643191,35.0164478,482.83,-0.05625,0.01875,1.016,0.78,0.06,-0.04,31820.0,-3860.0,-33370.0
32.7643191,35.0164478,482.83,-0.05625,0.0105,0.99125,0.38,0.68,0.0,31820.0,-3830.0,-33370.0
32.7643191,35.0164478,482.83,-0.06475,-0.00175,0.98125,-0.6,0.74,0.04,31820.0,-3800.0,-33380.0
32.7643191,35.0164478,482.83,-0.07,0.01075,1.007,-0.14,0.3,0.06,31840.0,-3840.0,-33380.0
32.7643191,35.0164478,482.83,-0.06,0.013,1.006,0.52,-0.24,0.02,31820.0,-3840.0,-33370.0
32.7643191,35.0164478,482.83,-0.05025,0.0,0.98175,-0.2,-0.8,0.02,31800.0,-3810.0,-33360.0
32.7643191,35.0164478,482.83,-0.053,0.007,0.991,-0.42,-0.66,0.06,31810.0,-3840.0,-33360.0
32.7643191,35.0164478,482.83,-0.05775,0.0185,1.01,0.18,-0.06,-0.04,31820.0,-3890.0,-33370.0
32.7643191,35.0164478,482.83,-0.05725,0.00125,0.9955,0.06,0.66,0.0,31820.0,-3900.0,-33360.0
32.7643191,35.0164478,482.83,-0.063,-0.0115,0.98775,-0.42,0.72,0.04,31860.0,-3900.0,-33370.0
32.7643191,35.0164478,482.83,-0.06825,0.01425,1.00875,0.2,0.34,0.02,31830.0,-3900.0,-33380.0
32.7643191,35.0164478,482.83,-0.0595,0.02625,1.005,0.68,-0.26,-0.06,31810.0,-3830.0,-33380.0
32.7643191,35.0164478,482.82,-0.05225,0.0,0.9775,-0.46,-0.62,0.06,31830.0,-3860.0,-33390.0
32.7643191,35.0164478,482.82,-0.05625,-0.00825,0.99175,-0.78,-0.6,0.02,31860.0,-3890.0,-33400.0
32.7643191,35.0164478,482.82,-0.06225,0.014,1.018,0.42,0.02,0.02,31840.0,-3900.0,-33410.0
32.7643191,35.0164478,482.82,-0.06,0.0155,1.0,0.7,0.58,0.04,31820.0,-3890.0,-33410.0
32.7643191,35.0164478,482.82,-0.06475,0.00125,0.97975,-0.48,0.68,0.04,31810.0,-3870.0,-33410.0
32.7643191,35.0164478,482.82,-0.07075,0.00475,1.001,-0.52,0.38,0.02,31800.0,-3830.0,-33410.0
32.7643191,35.0164478,482.82,-0.0645,0.0095,1.01375,0.3,-0.2,0.02,31810.0,-3880.0,-33410.0
32.7643191,35.0164478,482.82,-0.05325,-0.00225,0.989,0.04,-0.74,-0.08,31820.0,-3890.0,-33410.0
32.7643191,35.0164478,482.82,-0.053,0.0005,0.9865,-0.38,-0.76,0.06,31790.0,-3840.0,-33410.0
32.7643191,35.0164478,482.82,-0.0595,0.01675,1.00725,0.04,-0.08,-0.04,31730.0,-3780.0,-33410.0
32.7643191,35.0164478,482.82,-0.05975,0.00525,0.9995,0.18,0.64,0.0,31750.0,-3830.0,-33410.0
32.7643191,35.0164478,482.82,-0.06425,-0.017,0.98575,-0.46,0.7,0.02,31770.0,-3850.0,-33410.0
32.7643191,35.0164478,482.82,-0.0695,0.00075,1.00325,-0.08,0.38,-0.02,31750.0,-3840.0,-33410.0
32.7643191,35.0164478,482.82,-0.065,0.02375,1.01025,0.74,-0.22,0.02,31770.0,-3850.0,-33410.0
32.7643191,35.0164478,482.82,-0.05125,0.005,0.98,-0.06,-0.76,-0.02,31790.0,-3840.0,-33420.0
32.7643191,35.0164478,482.82,-0.052,-0.014,0.98275,-0.88,-0.68,0.04,31760.0,-3820.0,-33420.0
32.7643191,35.0164478,482.82,-0.05775,0.0045,1.01325,0.06,-0.18,-0.06,31780.0,-3860.0,-33420.0
32.7643191,35.0164478,482.82,-0.0585,0.012,1.01,0.78,0.56,0.0,31800.0,-3860.0,-33420.0
32.7643191,35.0164478,482.82,-0.0585,0.001,0.98125,-0.1,0.76,0.0,31780.0,-3880.0,-33420.0
32.7643191,35.0164478,482.82,-0.06875,0.001,0.98925,-0.56,0.5,0.0,31780.0,-3910.0,-33420.0
32.7643191,35.0164478,482.83,-0.06725,0.0125,1.0125,0.26,0.0,0.04,31790.0,-3950.0,-33420.0
32.7643191,35.0164478,482.83,-0.05325,-0.001,0.995,0.26,-0.64,0.04,31750.0,-3860.0,-33420.0
32.7643191,35.0164478,482.83,-0.04675,-0.005,0.9825,-0.34,-0.78,0.02,31710.0,-3810.0,-33420.0
32.7643191,35.0164478,482.83,-0.054,0.015,1.00425,0.08,-0.36,-0.02,31720.0,-3840.0,-33420.0
32.7643191,35.0164478,482.83,-0.058,0.016,1.005,0.46,0.5,-0.02,31710.0,-3820.0,-33420.0
32.7643191,35.0164478,482.83,-0.0605,-0.00875,0.98575,-0.32,0.8,0.02,31720.0,-3870.0,-33420.0
32.7643191,35.0164478,482.83,-0.0685,-0.0085,0.99375,-0.28,0.64,0.04,31730.0,-3870.0,-33420.0
32.7643191,35.0164478,482.83,-0.06875,0.02125,1.014,0.58,0.02,0.02,31710.0,-3830.0,-33420.0
32.7643191,35.0164478,482.83,-0.05575,0.01975,0.99475,0.44,-0.56,-0.02,31720.0,-3870.0,-33420.0
32.7643191,35.0164478,482.83,-0.05025,-0.00525,0.97725,-0.74,-0.8,0.06,31750.0,-3920.0,-33420.0
32.7643191,35.0164478,482.83,-0.057,0.0005,1.0015,-0.36,-0.36,0.0,31750.0,-3880.0,-33410.0
32.7643191,35.0164478,482.83,-0.06125,0.0185,1.01675,0.72,0.24,-0.02,31700.0,-3840.0,-33410.0
32.7643191,35.0164478,482.83,-0.0605,0.00975,0.99025,0.38,0.72,-0.02,31710.0,-3860.0,-33410.0
32.7643191,35.0164478,482.83,-0.067,-0.00275,0.98225,-0.66,0.64,0.06,31740.0,-3890.0,-33390.0
32.7643191,35.0164478,482.83,-0.0715,0.012,1.0095,-0.12,0.18,0.02,31770.0,-3960.0,-33380.0
32.7643191,35.0164478,482.83,-0.0625,0.0155,1.01025,0.5,-0.46,-0.02,31790.0,-3940.0,-33380.0
32.7643191,35.0164478,482.83,-0.052,-0.002,0.9815,-0.24,-0.8,0.0,31760.0,-3890.0,-33390.0
32.7643191,35.0164478,482.83,-0.054,0.001,0.98725,-0.52,-0.56,0.02,31730.0,-3870.0,-33390.0
32.7643191,35.0164478,482.83,-0.061,0.01925,1.013,0.38,0.06,-0.04,31760.0,-3880.0,-33370.0
32.7643191,35.0164478,482.83,-0.06225,0.00725,0.9995,0.34,0.68,-0.02,31760.0,-3880.0,-33380.0
32.7643191,35.0164478,482.82,-0.064,-0.0155,0.9835,-0.56,0.72,0.02,31700.0,-3780.0,-33390.0
32.7643191,35.0164478,482.82,-0.069,0.00275,1.00375,-0.14,0.2,0.0,31690.0,-3780.0,-33390.0
32.7643191,35.0164478,482.82,-0.06425,0.028,1.01225,0.84,-0.44,-0.04,31740.0,-3880.0,-33380.0
32.7643191,35.0164478,482.82,-0.052,0.008,0.98175,0.02,-0.8,-0.04,31760.0,-3910.0,-33370.0
32.7643191,35.0164478,482.82,-0.05,-0.01625,0.98,-1.0,-0.6,0.08,31860.0,-4050.0,-33340.0
32.7643191,35.0164478,482.82,-0.0565,0.004,1.0155,-0.04,-0.12,0.04,31920.0,-4100.0,-33320.0
32.7643191,35.0164478,482.82,-0.05925,0.022,1.0145,0.98,0.56,-0.06,31910.0,-4120.0,-33310.0
32.7643191,35.0164478,482.82,-0.059,0.00375,0.98,0.0,0.78,-0.02,31930.0,-4160.0,-33310.0
32.7643191,35.0164478,482.82,-0.0675,-0.0075,0.9835,-0.94,0.38,-0.02,31940.0,-4170.0,-33310.0
32.7643191,35.0164478,482.82,-0.06925,0.00975,1.016,0.1,-0.14,0.0,31920.0,-4130.0,-33320.0
32.7643191,35.0164478,482.82,-0.057,0.01125,1.0055,0.64,-0.58,-0.02,31920.0,-4100.0,-33320.0
32.7643191,35.0164478,482.82,-0.04625,-0.00625,0.97775,-0.34,-0.7,0.04,31850.0,-4010.0,-33340.0
32.7643191,35.0164478,482.82,-0.05075,0.0025,0.9935,-0.56,-0.32,-0.02,31760.0,-3890.0,-33350.0
32.7643191,35.0164478,482.82,-0.059,0.01875,1.015,0.38,0.34,0.02,31720.0,-3840.0,-33350.0
32.7643191,35.0164478,482.82,-0.06,0.001,0.99275,0.3,0.78,-0.04,31720.0,-3850.0,-33360.0
32.7643191,35.0164478,482.82,-0.06475,-0.02,0.98275,-0.66,0.6,0.0,31720.0,-3830.0,-33370.0
32.7643191,35.0164478,482.82,-0.0695,0.005,1.0075,0.02,0.12,0.02,31750.0,-3870.0,-33380.0
32.7643191,35.0164478,482.82,-0.06475,0.0305,1.01175,0.96,-0.38,0.02,31750.0,-3880.0,-33380.0
32.7643191,35.0164478,482.82,-0.054,0.00725,0.97925,-0.08,-0.62,-0.04,31720.0,-3850.0,-33370.0
32.7643191,35.0164478,482.82,-0.05225,-0.01775,0.98025,-1.06,-0.4,0.04,31680.0,-3790.0,-33370.0
32.7643191,35.0164478,482.82,-0.05975,0.0045,1.015,0.04,0.0,-0.02,31700.0,-3800.0,-33390.0
32.7643191,35.0164478,482.82,-0.061,0.023,1.0135,1.12,0.4,-0.02,31730.0,-3840.0,-33400.0
32.7643191,35.0164478,482.82,-0.06225,0.00425,0.98,0.02,0.68,-0.02,31750.0,-3880.0,-33380.0
32.7643191,35.0164478,482.82,-0.06775,-0.0075,0.9845,-1.08,0.4,0.02,31750.0,-3880.0,-33370.0
32.7643191,35.0164478,482.82,-0.071,0.01225,1.0165,0.1,-0.12,0.04,31720.0,-3870.0,-33360.0
32.7643191,35.0164478,482.82,-0.0595,0.01475,1.0035,0.76,-0.52,0.0,31670.0,-3820.0,-33370.0
32.7643191,35.0164478,482.82,-0.0515,-0.00425,0.97575,-0.32,-0.64,0.02,31700.0,-3880.0,-33360.0
32.7643191,35.0164478,482.82,-0.05375,0.00125,0.99125,-0.6,-0.32,0.04,31750.0,-3930.0,-33360.0
32.7643191,35.0164478,482.82,-0.06175,0.02025,1.0175,0.4,0.28,0.02,31720.0,-3910.0,-33360.0
32.7643191,35.0164478,482.82,-0.06025,0.00675,0.9995,0.34,0.66,0.02,31710.0,-3890.0,-33370.0
32.7643191,35.0164478,482.82,-0.0615,-0.016,0.98,-0.62,0.54,0.06,31680.0,-3880.0,-33380.0
32.7643191,35.0164478,482.82,-0.06475,0.006,1.0045,-0.2,-0.04,0.0,31640.0,-3840.0,-33370.0
32.7643191,35.0164478,482.82,-0.06275,0.0315,1.0125,0.98,-0.44,-0.04,31660.0,-3860.0,-33370.0
32.7643191,35.0164478,482.82,-0.0525,0.011,0.9815,0.04,-0.58,0.02,31670.0,-3890.0,-33370.0
32.7643191,35.0164478,482.82,-0.0515,-0.017,0.982,-1.08,-0.24,0.02,31650.0,-3890.0,-33360.0
32.7643191,35.0164478,482.82,-0.05875,0.00425,1.015,-0.08,0.16,0.06,31640.0,-3860.0,-33370.0
32.7643191,35.0164478,482.82,-0.06175,0.0275,1.01425,1.16,0.48,-0.04,31660.0,-3920.0,-33380.0
32.7643191,35.0164478,482.82,-0.0605,0.01125,0.98025,0.06,0.6,0.0,31650.0,-3890.0,-33370.0
32.7643191,35.0164478,482.82,-0.06425,-0.01025,0.9795,-1.16,0.2,0.02,31640.0,-3890.0,-33370.0
32.7643191,35.0164478,482.82,-0.06575,0.006,1.01625,-0.12,-0.26,0.04,31630.0,-3890.0,-33370.0
32.7643191,35.0164478,482.82,-0.05725,0.01525,1.01075,0.92,-0.52,0.0,31630.0,-3870.0,-33400.0
32.7643191,35.0164478,482.82,-0.0485,-0.001,0.978,-0.06,-0.42,0.02,31650.0,-3930.0,-33400.0
32.7643191,35.0164478,482.82,-0.05375,-0.003,0.98575,-0.88,-0.08,-0.02,31630.0,-3910.0,-33410.0
32.7643191,35.0164478,482.82,-0.06275,0.0155,1.0155,0.2,0.32,0.0,31610.0,-3870.0,-33400.0
32.7643191,35.0164478,482.82,-0.0635,0.00825,1.002,0.66,0.54,0.02,31580.0,-3840.0,-33390.0
32.7643191,35.0164478,482.82,-0.06225,-0.0175,0.982,-0.44,0.46,-0.02,31590.0,-3890.0,-33370.0
32.7643191,35.0164478,482.82,-0.065,-0.00425,0.99825,-0.48,-0.12,0.02,31640.0,-3930.0,-33370.0
32.7643191,35.0164478,482.82,-0.06375,0.0275,1.016,0.84,-0.4,0.0,31620.0,-3930.0,-33360.0
32.7643191,35.0164478,482.82,-0.05475,0.017,0.98625,0.48,-0.46,-0.02,31610.0,-3920.0,-33360.0
32.7643191,35.0164478,482.82,-0.0525,-0.01775,0.9775,-1.04,-0.16,-0.06,31620.0,-3930.0,-33370.0
32.7643191,35.0164478,482.82,-0.05875,-0.0075,1.0075,-0.48,0.1,0.0,31610.0,-3930.0,-33380.0
32.7643191,35.0164478,482.82,-0.0655,0.02375,1.02025,1.14,0.38,0.04,31620.0,-3960.0,-33370.0
32.7643191,35.0164478,482.82,-0.06225,0.01675,0.98575,0.56,0.44,-0.02,31620.0,-3990.0,-33360.0
32.7643191,35.0164478,482.82,-0.06375,-0.00875,0.9755,-1.06,0.22,0.04,31610.0,-3980.0,-33360.0
32.7643191,35.0164478,482.82,-0.06625,0.001,1.0085,-0.52,-0.18,0.06,31650.0,-4020.0,-33360.0
32.7643191,35.0164478,482.82,-0.06075,0.01625,1.016,0.96,-0.44,-0.02,31660.0,-4040.0,-33360.0
32.7643191,35.0164478,482.82,-0.05125,0.0035,0.984,0.32,-0.42,0.0,31600.0,-3940.0,-33370.0
32.7643191,35.0164478,482.82,-0.05375,-0.00725,0.98,-0.86,-0.16,0.02,31550.0,-3870.0,-33380.0
32.7643191,35.0164478,482.82,-0.06125,0.01325,1.01125,-0.08,0.22,0.0,31570.0,-3910.0,-33380.0
32.7643191,35.0164478,482.82,-0.06275,0.0155,1.008,0.78,0.42,-0.04,31590.0,-3930.0,-33380.0
32.7643191,35.0164478,482.82,-0.05975,-0.00975,0.98325,-0.24,0.4,-0.06,31620.0,-3980.0,-33390.0
32.7643191,35.0164478,482.82,-0.062,-0.012,0.991,-0.78,0.0,0.06,31610.0,-3970.0,-33390.0
32.7643191,35.0164478,482.82,-0.063,0.0225,1.01575,0.54,-0.46,-0.04,31590.0,-3920.0,-33380.0
32.7643191,35.0164478,482.82,-0.05575,0.02575,0.99775,0.84,-0.5,-0.08,31550.0,-3890.0,-33370.0
32.7643191,35.0164478,482.82,-0.051,-0.00825,0.97625,-0.76,-0.18,0.0,31570.0,-3930.0,-33360.0
32.7643191,35.0164478,482.82,-0.055,-0.01275,0.997,-0.9,0.02,0.02,31570.0,-3930.0,-33360.0
32.7643191,35.0164478,482.82,-0.063,0.01925,1.0215,0.8,0.28,0.08,31570.0,-3940.0,-33360.0
32.7643191,35.0164478,482.82,-0.061,0.0235,0.9945,0.94,0.32,-0.04,31590.0,-3950.0,-33360.0
32.7643191,35.0164478,482.82,-0.06175,-0.00475,0.976,-0.76,0.3,0.0,31610.0,-3980.0,-33360.0
32.7643191,35.0164478,482.82,-0.06425,-0.004,1.00025,-0.96,-0.02,0.06,31600.0,-3950.0,-33380.0
32.7643191,35.0164478,482.82,-0.0635,0.0175,1.02075,0.72,-0.28,0.06,31610.0,-3940.0,-33390.0
32.7643191,35.0164478,482.82,-0.0545,0.01225,0.99175,0.64,-0.34,0.0,31600.0,-3940.0,-33380.0
32.7643191,35.0164478,482.82,-0.05275,-0.0075,0.97475,-0.72,-0.14,0.04,31600.0,-3960.0,-33370.0
32.7643191,35.0164478,482.82,-0.05725,0.005,1.00175,-0.52,0.0,0.04,31610.0,-3990.0,-33370.0
32.7643191,35.0164478,482.82,-0.06475,0.02,1.0165,0.76,0.36,0.0,31600.0,-3950.0,-33360.0
32.7643191,35.0164478,482.82,-0.0615,0.0015,0.989,0.28,0.34,0.0,31570.0,-3910.0,-33370.0
32.7643191,35.0164478,482.82,-0.0625,-0.017,0.98275,-0.9,0.18,-0.04,31570.0,-3910.0,-33370.0
32.7643191,35.0164478,482.82,-0.06275,0.00975,1.00875,-0.06,-0.24,-0.04,31600.0,-3920.0,-33370.0
32.7643191,35.0164478,482.82,-0.06175,0.03,1.00825,1.0,-0.42,-0.02,31610.0,-3870.0,-33370.0
32.7643191,35.0164478,482.82,-0.054,0.005,0.97925,-0.18,-0.28,0.02,31590.0,-3860.0,-33370.0
32.7643191,35.0164478,482.82,-0.0555,-0.01875,0.98275,-1.28,0.04,0.04,31620.0,-3850.0,-33390.0
32.7643191,35.0164478,482.82,-0.061,0.0055,1.01625,0.1,0.14,0.04,31610.0,-3820.0,-33390.0
32.7643191,35.0164478,482.82,-0.0635,0.02625,1.0105,1.28,0.28,-0.02,31650.0,-3900.0,-33380.0
32.7643191,35.0164478,482.82,-0.06,0.00675,0.9785,-0.1,0.28,0.0,31690.0,-3960.0,-33380.0
32.7643191,35.0164478,482.82,-0.0635,-0.01175,0.98375,-1.22,0.1,0.06,31680.0,-3910.0,-33370.0
32.7643191,35.0164478,482.82,-0.06525,0.00725,1.018,-0.04,-0.16,0.08,31670.0,-3880.0,-33370.0
32.7643191,35.0164478,482.82,-0.06,0.017,1.009,1.04,-0.32,-0.04,31660.0,-3890.0,-33370.0
32.7643191,35.0164478,482.82,-0.052,-0.00025,0.97675,-0.2,-0.24,0.04,31640.0,-3850.0,-33360.0
32.7643191,35.0164478,482.82,-0.05475,-0.0065,0.98675,-0.88,-0.02,0.04,31650.0,-3860.0,-33370.0
32.7643191,35.0164478,482.82,-0.06225,0.01475,1.018,0.3,0.2,0.04,31670.0,-3880.0,-33370.0
32.7643191,35.0164478,482.82,-0.06025,0.01225,1.00425,0.8,0.32,-0.04,31660.0,-3820.0,-33380.0
32.7643191,35.0164478,482.82,-0.05925,-0.0125,0.9805,-0.54,0.26,0.0,31620.0,-3790.0,-33380.0
32.7643191,35.0164478,482.82,-0.06425,-0.006,0.99525,-0.66,-0.04,0.02,31620.0,-3810.0,-33370.0
32.7643191,35.0164478,482.82,-0.06475,0.02525,1.01675,0.74,-0.22,0.02,31660.0,-3860.0,-33370.0
32.7643191,35.0164478,482.82,-0.05525,0.01925,0.99325,0.64,-0.34,0.0,31660.0,-3870.0,-33360.0
32.7643191,35.0164478,482.82,-0.051,-0.01425,0.97625,-0.98,-0.08,0.02,31670.0,-3850.0,-33370.0
32.7643191,35.0164478,482.82,-0.0555,-0.00825,1.00225,-0.7,-0.04,0.1,31680.0,-3820.0,-33380.0
32.7643191,35.0164478,482.82,-0.06275,0.0245,1.0215,1.1,0.12,-0.04,31650.0,-3810.0,-33380.0
32.7643191,35.0164478,482.82,-0.062,0.0185,0.9885,0.68,0.32,-0.06,31670.0,-3850.0,-33370.0
32.7643191,35.0164478,482.82,-0.06375,-0.0105,0.9735,-1.1,0.38,0.06,31670.0,-3820.0,-33370.0
32.7643191,35.0164478,482.82,-0.067,-0.004,1.005,-0.74,0.08,-0.02,31640.0,-3790.0,-33380.0
32.7643191,35.0164478,482.82,-0.06425,0.018,1.02175,0.98,-0.28,-0.02,31680.0,-3860.0,-33380.0
32.7643191,35.0164478,482.82,-0.05275,0.00925,0.9855,0.46,-0.42,-0.04,31690.0,-3930.0,-33370.0
32.7643191,35.0164478,482.82,-0.05175,-0.007,0.9725,-0.98,-0.32,0.1,31660.0,-3820.0,-33360.0
32.7643191,35.0164478,482.82,-0.05925,0.00925,1.006,-0.34,-0.04,0.04,31610.0,-3800.0,-33350.0
32.7643191,35.0164478,482.82,-0.06175,0.01675,1.0155,0.86,0.34,0.02,31630.0,-3830.0,-33350.0
32.7643191,35.0164478,482.82,-0.057,-0.006,0.984,-0.02,0.44,-0.02,31640.0,-3840.0,-33350.0
32.7643191,35.0164478,482.82,-0.06225,-0.01175,0.98325,-0.74,0.26,0.02,31650.0,-3850.0,-33360.0
32.7643191,35.0164478,482.82,-0.0645,0.02075,1.0145,0.38,-0.14,-0.04,31670.0,-3860.0,-33360.0
32.7643191,35.0164478,482.82,-0.05825,0.0255,0.99975,0.9,-0.36,-0.04,31630.0,-3830.0,-33370.0
32.7643191,35.0164478,482.82,-0.0505,-0.00975,0.975,-0.56,-0.3,0.0,31690.0,-3900.0,-33370.0
32.7643191,35.0164478,482.82,-0.05675,-0.01375,0.9935,-0.98,-0.14,0.06,31810.0,-4060.0,-33340.0
32.7643191,35.0164478,482.82,-0.064,0.0185,1.02325,0.7,0.3,-0.04,31870.0,-4110.0,-33320.0
32.7643191,35.0164478,482.82,-0.0615,0.021,0.998,0.94,0.5,-0.02,31850.0,-4080.0,-33310.0
32.7643191,35.0164478,482.82,-0.06325,-0.0065,0.976,-0.76,0.38,0.0,31860.0,-4130.0,-33300.0
32.7643191,35.0164478,482.82,-0.07025,-0.003,1.00175,-0.8,0.02,0.04,31900.0,-4180.0,-33310.0
32.7643191,35.0164478,482.82,-0.06725,0.0155,1.0195,0.72,-0.28,0.02,31920.0,-4250.0,-33310.0
32.7643191,35.0164478,482.82,-0.052,0.006,0.99275,0.58,-0.5,-0.06,31910.0,-4250.0,-33310.0
32.7643191,35.0164478,482.82,-0.0505,-0.0055,0.98,-0.68,-0.4,0.02,31840.0,-4140.0,-33330.0
32.7643191,35.0164478,482.82,-0.061,0.01325,1.009,-0.28,-0.02,0.0,31780.0,-4090.0,-33340.0
32.7643191,35.0164477,482.81,-0.06375,0.016,1.00975,0.68,0.44,0.04,31750.0,-4020.0,-33370.0
32.7643191,35.0164477,482.81,-0.06,-0.009,0.9855,-0.06,0.48,0.06,31720.0,-3950.0,-33370.0
32.7643191,35.0164477,482.81,-0.0655,-0.01,0.992,-0.62,0.12,-0.02,31690.0,-3930.0,-33370.0
32.7643191,35.0164477,482.81,-0.06725,0.024,1.015,0.46,-0.24,0.02,31720.0,-3960.0,-33370.0
32.7643191,35.0164477,482.81,-0.05425,0.02375,0.994,0.58,-0.4,0.02,31730.0,-4010.0,-33360.0
32.7643191,35.0164477,482.81,-0.04825,-0.009,0.97575,-0.74,-0.46,0.02,31730.0,-4000.0,-33360.0
32.7643191,35.0164477,482.81,-0.05675,-0.00625,1.00075,-0.72,-0.22,0.04,31730.0,-4020.0,-33350.0
32.7643191,35.0164477,482.81,-0.0625,0.0195,1.016,0.82,0.26,0.02,31730.0,-4020.0,-33360.0
32.7643191,35.0164477,482.81,-0.0575,0.01525,0.988,0.62,0.52,-0.02,31710.0,-4020.0,-33370.0
32.7643191,35.0164477,482.81,-0.06275,-0.00275,0.98,-0.78,0.36,0.06,31750.0,-4020.0,-33370.0
32.7643191,35.0164477,482.81,-0.06925,0.0055,1.00825,-0.5,0.12,-0.02,31760.0,-4010.0,-33370.0
32.7643191,35.0164477,482.81,-0.06,0.0125,1.0085,0.66,-0.24,-0.06,31750.0,-4030.0,-33360.0
32.7643191,35.0164477,482.81,-0.04825,-0.00175,0.97975,0.18,-0.62,-0.02,31750.0,-4030.0,-33360.0
32.7643191,35.0164477,482.81,-0.05225,0.0005,0.98825,-0.54,-0.44,-0.06,31710.0,-4050.0,-33360.0
32.7643191,35.0164477,482.81,-0.05875,0.01625,1.013,0.0,0.1,0.02,31680.0,-3980.0,-33360.0
32.7643191,35.0164477,482.81,-0.05725,0.006,0.99775,0.34,0.58,-0.04,31690.0,-3970.0,-33360.0
32.7643191,35.0164477,482.81,-0.06175,-0.015,0.98425,-0.34,0.58,-0.02,31700.0,-3950.0,-33370.0
32.7643191,35.0164477,482.81,-0.07,0.00025,1.00375,-0.16,0.22,0.0,31660.0,-3850.0,-33380.0
32.7643191,35.0164477,482.81,-0.06425,0.02375,1.011,0.76,-0.24,0.02,31600.0,-3820.0,-33370.0
32.7643191,35.0164477,482.81,-0.05375,0.0055,0.9815,0.02,-0.56,-0.04,31600.0,-3840.0,-33370.0
32.7643191,35.0164478,482.82,-0.055,-0.013,0.9855,-0.88,-0.5,0.06,31600.0,-3820.0,-33390.0
32.7643191,35.0164478,482.82,-0.05975,0.00325,1.01725,-0.02,0.0,0.06,31630.0,-3820.0,-33400.0
32.7643191,35.0164478,482.82,-0.05975,0.01575,1.00925,0.72,0.44,-0.02,31640.0,-3890.0,-33400.0
32.7643191,35.0164478,482.82,-0.06225,0.00225,0.97875,-0.04,0.56,0.0,31660.0,-3920.0,-33380.0
32.7643191,35.0164478,482.82,-0.06925,-0.0015,0.991,-0.68,0.32,0.08,31660.0,-3950.0,-33370.0
32.7643191,35.0164478,482.82,-0.06675,0.01125,1.01825,0.18,-0.06,-0.04,31670.0,-3940.0,-33370.0
32.7643191,35.0164478,482.82,-0.05575,0.00275,0.99675,0.4,-0.52,-0.02,31680.0,-3920.0,-33360.0
32.7643191,35.0164478,482.82,-0.0525,-0.0035,0.97875,-0.26,-0.56,0.04,31670.0,-3880.0,-33360.0
32.7643191,35.0164478,482.82,-0.0585,0.01475,1.004,-0.06,-0.2,0.0,31660.0,-3880.0,-33360.0
32.7643191,35.0164478,482.82,-0.0625,0.01575,1.00775,0.32,0.34,-0.06,31680.0,-3920.0,-33360.0
32.7643191,35.0164478,482.82,-0.061,-0.01075,0.98175,-0.26,0.58,-0.02,31680.0,-3910.0,-33370.0
32.7643191,35.0164478,482.82,-0.06475,-0.006,0.995,-0.3,0.38,0.08,31690.0,-3920.0,-33360.0
32.7643191,35.0164478,482.82,-0.065,0.02325,1.019,0.58,-0.1,0.02,31690.0,-3920.0,-33360.0
32.7643191,35.0164478,482.82,-0.05375,0.0165,0.988,0.32,-0.48,0.0,31670.0,-3920.0,-33360.0
32.7643191,35.0164478,482.82,-0.049,-0.0075,0.97225,-0.76,-0.62,-0.02,31700.0,-3950.0,-33360.0
32.7643191,35.0164478,482.82,-0.0575,0.0015,1.006,-0.34,-0.24,0.02,31710.0,-3930.0,-33350.0
32.7643191,35.0164478,482.82,-0.06075,0.01575,1.01475,0.72,0.36,-0.04,31660.0,-3870.0,-33360.0
32.7643191,35.0164478,482.82,-0.05725,0.00475,0.9835,0.12,0.66,0.04,31640.0,-3850.0,-33370.0
32.7643191,35.0164478,482.82,-0.066,0.00375,0.98525,-0.5,0.46,-0.02,31680.0,-3930.0,-33380.0
32.7643191,35.0164478,482.82,-0.07,0.01425,1.01225,0.1,0.0,0.06,31670.0,-3880.0,-33380.0
32.7643191,35.0164478,482.83,-0.05475,0.00275,0.99575,0.28,-0.42,0.02,31670.0,-3880.0,-33390.0
32.7643191,35.0164478,482.83,-0.0475,-0.0045,0.98325,-0.26,-0.72,-0.02,31660.0,-3900.0,-33380.0
32.7643191,35.0164478,482.83,-0.05725,0.01375,1.00525,-0.02,-0.46,0.06,31640.0,-3860.0,-33370.0
32.7643191,35.0164478,482.83,-0.059,0.01575,1.0035,0.34,0.24,0.02,31670.0,-3890.0,-33370.0
32.7643191,35.0164478,482.83,-0.0575,-0.0075,0.987,-0.3,0.62,0.04,31690.0,-3890.0,-33360.0
32.7643191,35.0164478,482.83,-0.06975,-0.00625,1.00075,-0.42,0.6,-0.04,31680.0,-3860.0,-33370.0
32.7643191,35.0164478,482.83,-0.071,0.018,1.012,0.6,0.2,0.02,31710.0,-3890.0,-33360.0
32.7643191,35.0164478,482.83,-0.05525,0.016,0.99025,0.38,-0.36,0.02,31730.0,-3890.0,-33360.0
32.7643191,35.0164478,482.83,-0.0535,-0.004,0.984,-0.62,-0.78,0.06,31700.0,-3860.0,-33360.0
32.7643191,35.0164478,482.83,-0.05925,0.00125,1.004,-0.42,-0.36,-0.08,31680.0,-3830.0,-33370.0
32.7643191,35.0164478,482.83,-0.058,0.01225,1.00975,0.54,0.22,0.02,31700.0,-3850.0,-33380.0
32.7643191,35.0164478,482.83,-0.059,0.00425,0.993,0.16,0.68,0.02,31720.0,-3880.0,-33370.0
32.7643191,35.0164478,482.83,-0.06725,0.0005,0.9895,-0.5,0.6,0.0,31720.0,-3880.0,-33370.0
32.7643191,35.0164478,482.83,-0.07025,0.011,1.0055,0.0,0.26,-0.08,31720.0,-3880.0,-33360.0
32.7643191,35.0164478,482.83,-0.0605,0.005,1.002,0.24,-0.42,0.02,31710.0,-3850.0,-33360.0
32.7643191,35.0164478,482.83,-0.05075,-0.0065,0.9845,-0.32,-0.76,-0.04,31670.0,-3810.0,-33370.0
32.7643191,35.0164478,482.83,-0.05525,0.0065,0.99725,-0.18,-0.64,0.0,31700.0,-3880.0,-33380.0
32.7643191,35.0164478,482.83,-0.06,0.0155,1.00925,0.4,0.1,-0.02,31730.0,-3910.0,-33380.0
32.7643191,35.0164478,482.83,-0.058,-0.004,0.9885,-0.1,0.64,0.0,31680.0,-3840.0,-33370.0
32.7643191,35.0164478,482.83,-0.06525,-0.0105,0.98825,-0.46,0.6,0.04,31660.0,-3800.0,-33380.0
32.7643191,35.0164478,482.82,-0.07125,0.01475,1.01525,0.46,0.3,0.04,31670.0,-3800.0,-33400.0
32.7643191,35.0164478,482.82,-0.056,0.0175,0.99725,0.52,-0.4,0.02,31690.0,-3830.0,-33380.0
32.7643191,35.0164478,482.82,-0.04975,-0.00525,0.97325,-0.46,-0.76,-0.02,31720.0,-3890.0,-33380.0
32.7643191,35.0164478,482.82,-0.06025,0.00075,1.00325,-0.48,-0.5,0.02,31710.0,-3900.0,-33370.0
32.7643191,35.0164478,482.82,-0.05825,0.014,1.014,0.44,0.1,0.04,31650.0,-3850.0,-33360.0
32.7643191,35.0164478,482.82,-0.05525,0.00475,0.986,0.3,0.6,-0.04,31670.0,-3850.0,-33360.0
32.7643191,35.0164478,482.82,-0.067,0.001,0.988,-0.5,0.64,-0.02,31670.0,-3890.0,-33360.0
32.7643191,35.0164478,482.82,-0.069,0.01325,1.01,0.04,0.3,-0.04,31680.0,-3860.0,-33360.0
32.7643191,35.0164478,482.82,-0.05625,0.00675,0.99825,0.28,-0.28,-0.02,31700.0,-3870.0,-33360.0
32.7643191,35.0164478,482.82,-0.052,-0.00525,0.98675,-0.24,-0.76,-0.04,31730.0,-3910.0,-33370.0
32.7643191,35.0164478,482.82,-0.05525,0.011,1.0015,-0.14,-0.54,-0.02,31760.0,-3900.0,-33390.0
32.7643191,35.0164478,482.82,-0.056,0.0175,1.004,0.28,0.04,0.08,31760.0,-3940.0,-33380.0
32.7643191,35.0164478,482.82,-0.05925,-0.00425,0.99125,-0.2,0.66,0.0,31740.0,-3930.0,-33360.0
32.7643191,35.0164478,482.82,-0.0655,-0.007,0.997,-0.38,0.64,0.04,31700.0,-3900.0,-33360.0
32.7643191,35.0164478,482.82,-0.069,0.01625,1.00975,0.5,0.28,0.06,31720.0,-3940.0,-33350.0
32.7643191,35.0164478,482.82,-0.057,0.01525,0.99925,0.4,-0.32,0.0,31730.0,-3950.0,-33360.0
32.7643191,35.0164478,482.82,-0.04975,-0.00375,0.982,-0.62,-0.74,-0.02,31710.0,-3910.0,-33370.0
32.7643191,35.0164478,482.82,-0.05775,0.0035,0.999,-0.34,-0.6,0.02,31700.0,-3910.0,-33370.0
32.7643191,35.0164478,482.82,-0.0605,0.0135,1.013,0.58,0.16,-0.02,31710.0,-3930.0,-33360.0
32.7643191,35.0164478,482.82,-0.05675,0.003,0.99,0.08,0.68,0.0,31710.0,-3960.0,-33360.0
32.7643191,35.0164478,482.83,-0.06925,0.00125,0.98675,-0.54,0.66,0.0,31690.0,-3880.0,-33380.0
32.7643191,35.0164478,482.83,-0.0735,0.01225,1.01175,0.12,0.44,-0.02,31670.0,-3890.0,-33380.0
32.7643191,35.0164478,482.83,-0.056,0.00475,0.9965,0.24,-0.26,0.06,31680.0,-3900.0,-33370.0
32.7643191,35.0164478,482.83,-0.05225,-0.005,0.9805,-0.36,-0.9,0.02,31670.0,-3910.0,-33360.0
32.7643191,35.0164478,482.83,-0.0575,0.01125,1.00425,-0.12,-0.72,-0.02,31720.0,-3980.0,-33350.0
32.7643191,35.0164478,482.83,-0.055,0.0125,1.00275,0.32,0.06,0.02,31750.0,-4020.0,-33350.0
32.7643191,35.0164478,482.83,-0.05975,-0.00825,0.98475,-0.22,0.62,0.04,31710.0,-3960.0,-33350.0
32.7643191,35.0164478,482.83,-0.0695,-0.00275,1.0,-0.3,0.78,-0.04,31700.0,-3980.0,-33350.0
32.7643191,35.0164478,482.83,-0.0675,0.01775,1.00925,0.54,0.34,-0.04,31710.0,-3980.0,-33350.0
32.7643191,35.0164478,482.83,-0.05875,0.00925,0.98825,0.18,-0.38,-0.02,31710.0,-3940.0,-33360.0
32.7643191,35.0164478,482.83,-0.05125,-0.005,0.985,-0.66,-0.92,-0.02,31720.0,-3910.0,-33370.0
32.7643191,35.0164478,482.83,-0.05625,0.00475,1.004,-0.22,-0.64,0.02,31730.0,-3930.0,-33360.0
32.7643191,35.0164478,482.83,-0.058,0.0135,1.0075,0.62,0.14,-0.02,31710.0,-3930.0,-33360.0
32.7643191,35.0164478,482.83,-0.0565,0.003,0.98925,-0.06,0.68,0.02,31720.0,-4000.0,-33350.0
32.7643191,35.0164478,482.83,-0.06875,0.00275,0.99075,-0.4,0.7,0.0,31750.0,-4040.0,-33350.0
32.7643191,35.0164478,482.83,-0.07225,0.011,1.01025,0.14,0.42,0.02,31720.0,-3970.0,-33360.0
32.7643191,35.0164478,482.83,-0.0545,-0.0005,0.99825,0.26,-0.32,0.0,31650.0,-3860.0,-33370.0
32.7643191,35.0164478,482.83,-0.051,-0.00325,0.98475,-0.26,-0.98,-0.02,31650.0,-3860.0,-33380.0
32.7643191,35.0164478,482.83,-0.055,0.01575,1.00375,0.04,-0.66,0.02,31740.0,-3970.0,-33340.0
32.7643191,35.0164478,482.83,-0.05,0.0115,1.0025,0.26,0.06,-0.02,31820.0,-4090.0,-33320.0
32.7643191,35.0164478,482.83,-0.05775,-0.0115,0.98575,-0.48,0.66,0.0,31880.0,-4120.0,-33330.0
32.7643191,35.0164478,482.83,-0.07075,-0.00075,1.0025,-0.12,0.86,-0.02,31880.0,-4130.0,-33330.0
32.7643191,35.0164478,482.83,-0.06825,0.02075,1.01125,0.82,0.52,0.02,31910.0,-4160.0,-33310.0
32.7643191,35.0164478,482.83,-0.06175,0.00725,0.987,0.04,-0.28,0.0,31930.0,-4240.0,-33310.0
32.7643191,35.0164478,482.83,-0.05425,-0.003,0.98425,-0.72,-0.9,-0.02,31940.0,-4230.0,-33310.0
32.7643191,35.0164478,482.83,-0.0565,0.0075,1.008,0.04,-0.76,0.02,31810.0,-4060.0,-33330.0
32.7643191,35.0164478,482.83,-0.054,0.0115,1.00325,0.54,-0.08,0.02,31760.0,-4020.0,-33340.0
32.7643191,35.0164478,482.83,-0.055,0.00275,0.98775,-0.18,0.62,-0.02,31760.0,-4020.0,-33350.0
32.7643191,35.0164478,482.83,-0.0705,0.0075,0.997,-0.36,0.8,0.02,31730.0,-3980.0,-33350.0
32.7643191,35.0164478,482.83,-0.07375,0.01125,1.00625,0.26,0.6,-0.02,31710.0,-3950.0,-33360.0
32.7643191,35.0164478,482.83,-0.058,0.0005,0.9895,0.1,-0.16,0.04,31720.0,-3940.0,-33360.0
32.7643191,35.0164478,482.83,-0.0575,-0.00075,0.99075,-0.36,-0.94,-0.02,31690.0,-3870.0,-33360.0
32.7643191,35.0164478,482.83,-0.05825,0.0155,1.00125,0.08,-0.72,-0.08,31700.0,-3880.0,-33360.0
32.7643191,35.0164478,482.83,-0.04925,0.0055,0.9975,0.26,-0.14,0.02,31690.0,-3910.0,-33360.0
32.7643191,35.0164478,482.83,-0.06,-0.01,0.9895,-0.5,0.54,-0.04,31680.0,-3840.0,-33350.0
32.7643191,35.0164478,482.83,-0.06925,0.00525,1.00375,-0.02,0.82,-0.04,31630.0,-3810.0,-33360.0
32.7643191,35.0164478,482.83,-0.06475,0.01775,1.00575,0.7,0.5,0.02,31680.0,-3850.0,-33370.0
32.7643191,35.0164478,482.83,-0.05825,0.0015,0.98375,-0.14,-0.24,-0.08,31700.0,-3860.0,-33360.0
32.7643191,35.0164478,482.83,-0.05725,-0.001,0.9875,-0.72,-0.82,-0.04,31720.0,-3890.0,-33360.0
32.7643191,35.0164478,482.83,-0.05875,0.0105,1.01175,0.3,-0.64,0.0,31730.0,-3870.0,-33370.0
32.7643191,35.0164478,482.82,-0.0545,0.00675,0.99825,0.48,-0.02,-0.04,31700.0,-3810.0,-33390.0
32.7643191,35.0164478,482.82,-0.0545,0.0025,0.987,-0.38,0.5,-0.02,31710.0,-3800.0,-33400.0
32.7643191,35.0164478,482.82,-0.0695,0.01025,1.0045,-0.28,0.68,0.0,31730.0,-3810.0,-33400.0
32.7643191,35.0164478,482.82,-0.06425,0.0105,1.00425,0.28,0.4,0.0,31740.0,-3810.0,-33390.0
32.7643191,35.0164478,482.82,-0.0515,-0.0055,0.987,-0.1,-0.34,0.04,31710.0,-3800.0,-33380.0
32.7643191,35.0164478,482.82,-0.0575,0.0025,0.99575,-0.28,-0.8,0.02,31720.0,-3830.0,-33370.0
32.7643191,35.0164478,482.82,-0.0575,0.019,1.006,0.22,-0.44,-0.04,31730.0,-3810.0,-33360.0
32.7643191,35.0164478,482.82,-0.052,0.00275,0.99325,0.02,0.18,0.02,31730.0,-3830.0,-33360.0
32.7643191,35.0164478,482.82,-0.062,-0.0115,0.9895,-0.52,0.6,0.0,31730.0,-3860.0,-33360.0
32.7643191,35.0164478,482.82,-0.0695,0.01025,1.0065,0.1,0.68,0.02,31720.0,-3820.0,-33370.0
32.7643191,35.0164478,482.82,-0.0645,0.0165,1.0035,0.68,0.28,-0.02,31730.0,-3810.0,-33380.0
32.7643191,35.0164478,482.82,-0.05475,-0.00275,0.981,-0.32,-0.4,-0.02,31740.0,-3840.0,-33360.0
32.7643191,35.0164478,482.82,-0.05725,0.0,0.99325,-0.52,-0.76,-0.06,31750.0,-3850.0,-33360.0
32.7643191,35.0164478,482.82,-0.06275,0.014,1.0135,0.38,-0.38,0.02,31710.0,-3810.0,-33360.0
32.7643191,35.0164478,482.82,-0.05525,0.007,0.993,0.3,0.22,-0.02,31720.0,-3830.0,-33360.0
32.7643191,35.0164478,482.82,-0.05925,-0.00275,0.982,-0.44,0.64,0.02,31750.0,-3870.0,-33360.0
32.7643191,35.0164478,482.82,-0.07225,0.01,1.0085,-0.06,0.58,0.0,31760.0,-3810.0,-33370.0
32.7643191,35.0164478,482.82,-0.062,0.0125,1.00175,0.3,0.22,-0.04,31730.0,-3780.0,-33380.0
32.7643191,35.0164478,482.82,-0.05525,-0.001,0.9865,-0.18,-0.42,0.0,31690.0,-3770.0,-33380.0
32.7643191,35.0164478,482.82,-0.06,0.00575,0.99425,-0.32,-0.7,-0.08,31690.0,-3760.0,-33380.0
32.7643191,35.0164478,482.83,-0.057,0.01475,1.0015,0.3,-0.32,0.0,31740.0,-3830.0,-33400.0
32.7643191,35.0164478,482.83,-0.0575,-0.00325,0.9955,0.06,0.22,0.06,31750.0,-3850.0,-33390.0
32.7643191,35.0164478,482.83,-0.062,-0.0055,0.99225,-0.38,0.52,-0.02,31710.0,-3800.0,-33380.0
32.7643191,35.0164478,482.83,-0.06825,0.01425,1.00725,0.38,0.54,0.02,31700.0,-3820.0,-33370.0
32.7643191,35.0164478,482.83,-0.05975,0.01525,0.99925,0.46,0.1,0.02,31720.0,-3840.0,-33370.0
32.7643191,35.0164478,482.83,-0.052,-0.00375,0.98,-0.56,-0.54,-0.02,31730.0,-3870.0,-33370.0
32.7643191,35.0164478,482.83,-0.05875,-0.00025,1.00175,-0.44,-0.68,0.04,31780.0,-3930.0,-33360.0
32.7643191,35.0164478,482.83,-0.06,0.01325,1.01125,0.58,-0.18,-0.04,31780.0,-3930.0,-33370.0
32.7643191,35.0164478,482.83,-0.0535,0.0055,0.98875,0.22,0.32,0.02,31720.0,-3870.0,-33360.0
32.7643191,35.0164478,482.83,-0.06525,0.0005,0.99,-0.58,0.58,-0.04,31680.0,-3830.0,-33370.0
32.7643191,35.0164478,482.83,-0.06875,0.01225,1.00875,-0.04,0.54,0.02,31730.0,-3890.0,-33390.0
32.7643191,35.0164478,482.83,-0.057,0.00275,0.9985,0.26,-0.12,-0.02,31760.0,-3940.0,-33370.0
32.7643191,35.0164478,482.83,-0.05175,-0.00775,0.988,-0.26,-0.66,0.02,31750.0,-3910.0,-33370.0
32.7643191,35.0164478,482.83,-0.05525,0.01075,0.99975,-0.22,-0.72,0.06,31740.0,-3900.0,-33360.0
32.7643191,35.0164478,482.83,-0.05775,0.0145,1.0035,0.38,-0.1,-0.06,31730.0,-3890.0,-33360.0
32.7643191,35.0164478,482.83,-0.05725,-0.00625,0.99,-0.18,0.48,-0.04,31720.0,-3870.0,-33380.0
32.7643191,35.0164478,482.83,-0.065,-0.0065,0.9915,-0.42,0.66,0.06,31730.0,-3900.0,-33380.0
32.7643191,35.0164478,482.83,-0.0735,0.01375,1.01175,0.52,0.42,0.06,31710.0,-3850.0,-33370.0
32.7643191,35.0164478,482.83,-0.05775,0.01275,0.99425,0.44,-0.06,0.02,31670.0,-3820.0,-33360.0
32.7643191,35.0164478,482.83,-0.0515,-0.00725,0.98,-0.58,-0.76,-0.02,31680.0,-3850.0,-33370.0
32.7643191,35.0164478,482.83,-0.05925,0.0045,1.00525,-0.16,-0.62,0.02,31710.0,-3900.0,-33390.0
32.7643191,35.0164478,482.83,-0.05525,0.016,1.00825,0.54,-0.06,-0.04,31700.0,-3880.0,-33390.0
32.7643191,35.0164478,482.83,-0.0555,0.001,0.98675,0.04,0.5,-0.02,31710.0,-3910.0,-33380.0
32.7643191,35.0164478,482.83,-0.067,0.00025,0.99125,-0.48,0.64,0.04,31710.0,-3910.0,-33370.0
32.7643191,35.0164478,482.83,-0.071,0.01375,1.00925,0.22,0.5,0.0,31690.0,-3920.0,-33360.0
32.7643191,35.0164478,482.83,-0.0625,0.006,0.999,0.28,-0.16,0.06,31720.0,-3950.0,-33370.0
32.7643191,35.0164478,482.83,-0.053,-0.00275,0.9855,-0.32,-0.7,-0.02,31730.0,-3940.0,-33360.0
32.7643191,35.0164478,482.83,-0.05675,0.01225,0.999,0.04,-0.7,0.02,31700.0,-3890.0,-33360.0
32.7643191,35.0164478,482.83,-0.0555,0.0155,1.00625,0.4,-0.16,-0.02,31700.0,-3910.0,-33350.0
32.7643191,35.0164478,482.83,-0.05425,-0.00425,0.98625,-0.34,0.52,0.1,31700.0,-3930.0,-33360.0
32.7643191,35.0164478,482.83,-0.06725,-0.00525,0.99725,-0.36,0.62,-0.02,31700.0,-3890.0,-33380.0
32.7643191,35.0164478,482.83,-0.07,0.01875,1.011,0.56,0.48,0.0,31660.0,-3830.0,-33370.0
32.7643191,35.0164478,482.83,-0.0575,0.01225,0.99325,0.3,-0.06,-0.02,31660.0,-3880.0,-33360.0
32.7643191,35.0164478,482.83,-0.0565,-0.0045,0.984,-0.74,-0.64,-0.02,31690.0,-3900.0,-33360.0
32.7643191,35.0164478,482.83,-0.05825,0.00725,1.00325,-0.2,-0.58,0.06,31670.0,-3890.0,-33350.0
32.7643191,35.0164478,482.83,-0.0565,0.01325,1.00575,0.66,-0.02,-0.02,31690.0,-3890.0,-33360.0
32.7643191,35.0164478,482.83,-0.0555,0.0035,0.9885,0.0,0.4,0.0,31680.0,-3880.0,-33370.0
32.7643191,35.0164478,482.83,-0.06625,0.00575,0.99175,-0.46,0.66,0.04,31680.0,-3910.0,-33370.0
32.7643191,35.0164478,482.83,-0.072,0.01175,1.0115,0.14,0.46,0.04,31720.0,-3970.0,-33360.0
32.7643191,35.0164478,482.83,-0.05825,0.00325,0.99525,0.16,-0.1,0.02,31750.0,-3980.0,-33360.0
32.7643191,35.0164478,482.83,-0.05275,-0.00325,0.98575,-0.36,-0.72,-0.02,31700.0,-3860.0,-33380.0
32.7643191,35.0164478,482.83,-0.05625,0.01275,1.00225,-0.04,-0.7,-0.04,31660.0,-3840.0,-33370.0
32.7643191,35.0164478,482.83,-0.05225,0.0155,1.0015,0.26,-0.12,-0.06,31680.0,-3900.0,-33360.0
32.7643191,35.0164478,482.83,-0.0565,-0.01,0.98975,-0.38,0.42,0.02,31710.0,-3940.0,-33360.0
32.7643191,35.0164478,482.83,-0.0665,-0.00375,0.99875,-0.26,0.72,0.02,31740.0,-3990.0,-33350.0
32.7643191,35.0164478,482.83,-0.06875,0.01825,1.0115,0.66,0.54,0.04,31720.0,-3960.0,-33350.0
32.7643191,35.0164478,482.83,-0.058,0.0095,0.991,0.22,-0.1,-0.02,31690.0,-3870.0,-33350.0
32.7643191,35.0164478,482.83,-0.0535,-0.0045,0.97975,-0.8,-0.7,-0.04,31690.0,-3880.0,-33360.0
32.7643191,35.0164478,482.83,-0.05975,0.00475,1.008,-0.16,-0.62,0.06,31710.0,-3910.0,-33350.0
32.7643191,35.0164478,482.83,-0.0555,0.01125,1.00875,0.58,-0.14,-0.06,31700.0,-3880.0,-33360.0
32.7643191,35.0164478,482.83,-0.054,0.00125,0.9865,-0.08,0.44,0.04,31710.0,-3860.0,-33360.0
32.7643191,35.0164478,482.83,-0.068,0.0,0.9945,-0.48,0.7,-0.02,31720.0,-3900.0,-33360.0
32.7643191,35.0164478,482.83,-0.06825,0.0135,1.00725,0.24,0.44,0.08,31730.0,-3920.0,-33360.0
32.7643191,35.0164478,482.83,-0.0585,0.00175,0.99525,0.22,-0.14,0.0,31780.0,-3940.0,-33350.0
32.7643191,35.0164478,482.83,-0.05325,-0.00575,0.9855,-0.42,-0.68,0.04,31750.0,-3920.0,-33350.0
32.7643191,35.0164478,482.83,-0.05675,0.0125,1.00125,-0.04,-0.66,0.06,31740.0,-3870.0,-33360.0
32.7643191,35.0164478,482.83,-0.057,0.01025,1.0065,0.32,-0.12,-0.02,31720.0,-3890.0,-33370.0
32.7643191,35.0164478,482.83,-0.056,-0.0085,0.987,-0.28,0.48,0.02,31730.0,-3890.0,-33380.0
32.7643191,35.0164478,482.83,-0.06675,-0.00325,0.9975,-0.26,0.62,0.02,31730.0,-3890.0,-33370.0
32.7643191,35.0164478,482.83,-0.07075,0.01625,1.01325,0.64,0.42,0.04,31740.0,-3850.0,-33360.0
32.7643191,35.0164478,482.83,-0.054,0.01075,0.989,0.28,-0.22,-0.04,31750.0,-3860.0,-33380.0
32.7643191,35.0164478,482.83,-0.0565,-0.007,0.985,-0.7,-0.66,0.06,31770.0,-3880.0,-33380.0
32.7643191,35.0164478,482.83,-0.0595,0.008,1.0085,-0.18,-0.52,-0.06,31740.0,-3820.0,-33370.0
32.7643191,35.0164478,482.83,-0.0585,0.0155,1.0055,0.58,0.12,0.04,31720.0,-3820.0,-33360.0
32.7643191,35.0164478,482.83,-0.05925,0.0015,0.98725,-0.04,0.54,0.0,31760.0,-3860.0,-33340.0
32.7643191,35.0164478,482.83,-0.0685,0.002,0.989,-0.42,0.68,0.06,31840.0,-3940.0,-33330.0
32.7643191,35.0164478,482.83,-0.0715,0.01525,1.0115,0.26,0.22,0.04,31900.0,-4040.0,-33310.0
32.7643191,35.0164478,482.83,-0.05825,0.004,0.99875,0.26,-0.28,-0.02,31940.0,-4080.0,-33310.0
32.7643191,35.0164478,482.83,-0.051,-0.00225,0.9795,-0.46,-0.7,0.0,31920.0,-4070.0,-33300.0
32.7643191,35.0164478,482.83,-0.0595,0.01075,1.00525,-0.06,-0.62,0.08,31940.0,-4090.0,-33310.0
32.7643191,35.0164478,482.83,-0.05625,0.016,1.0035,0.34,0.1,0.06,31970.0,-4100.0,-33310.0
32.7643191,35.0164478,482.83,-0.05825,-0.0075,0.984,-0.26,0.5,-0.02,31900.0,-4050.0,-33310.0
32.7643191,35.0164478,482.83,-0.07,-0.00325,0.9985,-0.3,0.64,0.0,31840.0,-3960.0,-33330.0
32.7643191,35.0164478,482.83,-0.06825,0.02,1.009,0.52,0.24,0.06,31790.0,-3900.0,-33350.0
32.7643191,35.0164478,482.83,-0.058,0.01025,0.99325,0.22,-0.3,-0.02,31740.0,-3770.0,-33340.0
32.7643191,35.0164478,482.83,-0.0505,-0.00575,0.98225,-0.76,-0.78,0.0,31680.0,-3710.0,-33360.0
32.7643191,35.0164478,482.83,-0.05625,0.00425,1.001,-0.18,-0.62,0.04,31700.0,-3730.0,-33370.0
32.7643191,35.0164478,482.83,-0.0555,0.01525,1.015,0.66,0.0,0.02,31680.0,-3740.0,-33380.0
32.7643191,35.0164478,482.83,-0.053,0.00575,0.98425,-0.06,0.54,0.0,31680.0,-3750.0,-33370.0
32.7643191,35.0164478,482.83,-0.06675,-0.00075,0.9895,-0.54,0.66,0.04,31690.0,-3760.0,-33370.0
32.7643191,35.0164478,482.83,-0.069,0.012,1.013,0.14,0.42,0.02,31700.0,-3740.0,-33390.0
32.7643191,35.0164478,482.83,-0.055,0.00525,0.9945,0.28,-0.3,0.06,31700.0,-3800.0,-33400.0
32.7643191,35.0164478,482.83,-0.05275,-0.00425,0.987,-0.38,-0.74,0.02,31720.0,-3810.0,-33410.0
32.7643191,35.0164478,482.83,-0.054,0.01275,1.0005,-0.1,-0.56,0.02,31710.0,-3760.0,-33410.0
32.7643191,35.0164478,482.83,-0.05575,0.011,1.00275,0.28,0.02,-0.02,31680.0,-3760.0,-33390.0
32.7643191,35.0164478,482.83,-0.055,-0.00775,0.993,-0.28,0.56,-0.04,31730.0,-3860.0,-33370.0
32.7643191,35.0164478,482.83,-0.06475,-0.005,0.99425,-0.38,0.68,-0.06,31730.0,-3910.0,-33370.0
32.7643191,35.0164478,482.83,-0.06925,0.016,1.013,0.6,0.38,0.04,31730.0,-3890.0,-33360.0
32.7643191,35.0164478,482.83,-0.056,0.0135,0.99125,0.36,-0.22,-0.02,31720.0,-3900.0,-33360.0
32.7643191,35.0164478,482.83,-0.05525,-0.0065,0.9795,-0.78,-0.64,0.06,31730.0,-3870.0,-33360.0
32.7643191,35.0164478,482.83,-0.0615,0.00225,1.00725,-0.28,-0.46,-0.04,31700.0,-3870.0,-33370.0
32.7643191,35.0164478,482.83,-0.058,0.01425,1.00525,0.72,0.1,0.0,31710.0,-3920.0,-33360.0
32.7643191,35.0164478,482.83,-0.06,0.0035,0.98825,0.12,0.58,0.0,31730.0,-3900.0,-33350.0
32.7643191,35.0164478,482.83,-0.06925,0.0035,0.9885,-0.62,0.7,0.04,31720.0,-3920.0,-33350.0
32.7643191,35.0164478,482.83,-0.07325,0.01025,1.007,0.06,0.36,-0.04,31740.0,-3970.0,-33350.0
32.7643191,35.0164478,482.83,-0.0605,0.001,0.9985,0.3,-0.24,0.06,31770.0,-3990.0,-33350.0
32.7643191,35.0164478,482.83,-0.05325,-0.003,0.983,-0.22,-0.76,-0.04,31710.0,-3890.0,-33350.0
32.7643191,35.0164478,482.83,-0.0615,0.01225,1.0015,-0.12,-0.56,0.04,31710.0,-3890.0,-33370.0
32.7643191,35.0164478,482.83,-0.05775,0.01475,1.00425,0.3,0.02,0.0,31730.0,-3950.0,-33370.0
32.7643191,35.0164478,482.83,-0.05825,-0.009,0.985,-0.22,0.56,0.02,31720.0,-3930.0,-33370.0
32.7643191,35.0164478,482.83,-0.06775,-0.007,0.99875,-0.3,0.56,0.02,31700.0,-3930.0,-33390.0
32.7643191,35.0164478,482.83,-0.068,0.02125,1.01025,0.62,0.28,0.04,31720.0,-3930.0,-33380.0
32.7643191,35.0164478,482.83,-0.056,0.01275,0.993,0.36,-0.36,0.02,31690.0,-3890.0,-33360.0
32.7643191,35.0164478,482.83,-0.0515,-0.00625,0.98125,-0.62,-0.78,-0.02,31690.0,-3940.0,-33360.0
32.7643191,35.0164478,482.83,-0.05825,0.004,1.00275,-0.2,-0.52,0.0,31720.0,-3970.0,-33370.0
32.7643191,35.0164478,482.83,-0.05875,0.0125,1.01425,0.58,0.06,-0.02,31700.0,-3920.0,-33380.0
32.7643191,35.0164478,482.83,-0.05325,0.005,0.9875,0.1,0.52,0.02,31690.0,-3910.0,-33370.0
32.7643191,35.0164478,482.83,-0.0655,0.00025,0.98775,-0.5,0.56,0.0,31690.0,-3920.0,-33360.0
32.7643191,35.0164478,482.83,-0.0665,0.01425,1.0125,0.1,0.3,0.0,31680.0,-3920.0,-33350.0
32.7643191,35.0164478,482.83,-0.054,0.005,0.998,0.18,-0.28,0.0,31700.0,-3950.0,-33360.0
32.7643191,35.0164478,482.83,-0.0495,-0.0095,0.98625,-0.34,-0.74,0.0,31710.0,-3950.0,-33370.0
32.7643191,35.0164478,482.83,-0.05325,0.0115,1.00025,-0.1,-0.58,0.02,31690.0,-3920.0,-33360.0
32.7643191,35.0164478,482.83,-0.0585,0.0175,1.0065,0.4,0.16,0.04,31650.0,-3890.0,-33360.0
32.7643191,35.0164478,482.83,-0.05575,-0.00575,0.989,-0.28,0.7,0.04,31680.0,-3930.0,-33350.0
32.7643191,35.0164478,482.83,-0.06425,-0.00875,0.989,-0.42,0.68,-0.02,31710.0,-3930.0,-33350.0
32.7643191,35.0164478,482.83,-0.06925,0.01525,1.01575,0.56,0.26,-0.06,31680.0,-3850.0,-33360.0
32.7643191,35.0164478,482.83,-0.05425,0.019,0.9945,0.44,-0.3,0.06,31660.0,-3830.0,-33370.0
32.7643191,35.0164478,482.83,-0.052,-0.0055,0.97675,-0.58,-0.7,0.06,31680.0,-3870.0,-33370.0
32.7643191,35.0164478,482.83,-0.058,0.002,1.003,-0.4,-0.46,0.0,31720.0,-3920.0,-33360.0
32.7643191,35.0164478,482.83,-0.05975,0.019,1.0105,0.58,0.14,0.0,31740.0,-3950.0,-33360.0
32.7643191,35.0164478,482.83,-0.06125,0.006,0.99025,0.14,0.64,0.0,31730.0,-3910.0,-33380.0
32.7643191,35.0164478,482.83,-0.06625,-0.00075,0.98425,-0.58,0.66,0.04,31710.0,-3870.0,-33380.0
32.7643191,35.0164478,482.83,-0.07325,0.01175,1.00675,0.0,0.22,0.02,31720.0,-3870.0,-33370.0
32.7643191,35.0164478,482.83,-0.061,0.01,1.007,0.36,-0.32,-0.02,31710.0,-3930.0,-33360.0
32.7643191,35.0164478,482.83,-0.0515,-0.004,0.98075,-0.32,-0.7,-0.02,31690.0,-3870.0,-33360.0
32.7643191,35.0164478,482.83,-0.05925,0.004,0.999,-0.16,-0.64,-0.04,31710.0,-3880.0,-33360.0
32.7643191,35.0164478,482.83,-0.05875,0.016,1.009,0.34,0.1,-0.04,31710.0,-3910.0,-33350.0
32.7643191,35.0164478,482.83,-0.06075,-0.00375,0.99075,-0.14,0.62,0.06,31730.0,-3900.0,-33350.0
32.7643191,35.0164478,482.83,-0.0675,-0.01,0.99475,-0.48,0.72,0.0,31800.0,-4000.0,-33320.0
32.7643191,35.0164478,482.83,-0.0695,0.01375,1.00775,0.38,0.24,0.06,31870.0,-4060.0,-33320.0
32.7643191,35.0164478,482.83,-0.06025,0.018,1.0005,0.54,-0.36,-0.02,31800.0,-3920.0,-33360.0
32.7643191,35.0164478,482.83,-0.051,-0.00325,0.9825,-0.58,-0.78,-0.06,31770.0,-3910.0,-33360.0
32.7643191,35.0164478,482.83,-0.05825,-0.002,0.99525,-0.48,-0.54,0.06,31760.0,-3920.0,-33360.0
32.7643191,35.0164478,482.83,-0.05975,0.01275,1.017,0.56,0.06,0.0,31730.0,-3870.0,-33350.0
32.7643191,35.0164478,482.83,-0.05675,0.012,0.9915,0.28,0.6,0.04,31730.0,-3850.0,-33350.0
32.7643191,35.0164478,482.83,-0.06525,0.0,0.98525,-0.58,0.64,0.02,31740.0,-3840.0,-33360.0
32.7643191,35.0164478,482.83,-0.0675,0.01075,1.00625,-0.16,0.26,-0.04,31750.0,-3840.0,-33370.0
32.7643191,35.0164478,482.83,-0.059,0.00975,1.0035,0.38,-0.32,0.0,31770.0,-3860.0,-33370.0
32.7643191,35.0164478,482.83,-0.05025,-0.005,0.98775,-0.26,-0.76,0.0,31770.0,-3890.0,-33360.0
32.7643191,35.0164478,482.83,-0.05275,0.00725,0.99225,-0.32,-0.62,0.0,31760.0,-3840.0,-33360.0
32.7643192,35.0164478,482.84,-0.059,0.01525,1.00725,0.36,0.02,0.04,31710.0,-3780.0,-33380.0
32.7643192,35.0164478,482.84,-0.05575,0.00075,0.99325,-0.02,0.6,-0.02,31750.0,-3840.0,-33380.0
32.7643192,35.0164478,482.84,-0.0635,-0.01175,0.98675,-0.54,0.64,-0.02,31780.0,-3890.0,-33370.0
32.7643192,35.0164478,482.84,-0.0695,0.00775,1.01175,0.26,0.32,0.0,31760.0,-3850.0,-33360.0
32.7643192,35.0164478,482.84,-0.05575,0.01975,1.00075,0.64,-0.3,0.02,31760.0,-3840.0,-33350.0
32.7643192,35.0164478,482.84,-0.0525,-0.00325,0.981,-0.42,-0.68,0.06,31770.0,-3840.0,-33350.0
32.7643192,35.0164478,482.84,-0.05375,-0.00275,0.99575,-0.64,-0.58,0.0,31750.0,-3770.0,-33360.0
32.7643192,35.0164478,482.84,-0.05825,0.01325,1.01,0.48,0.02,0.04,31750.0,-3780.0,-33370.0
32.7643192,35.0164478,482.84,-0.057,0.00725,0.99825,0.46,0.58,0.0,31750.0,-3800.0,-33360.0
32.7643192,35.0164478,482.84,-0.0615,0.00025,0.9825,-0.5,0.72,0.02,31730.0,-3810.0,-33360.0
32.7643192,35.0164478,482.84,-0.073,0.007,1.00475,-0.24,0.36,0.06,31740.0,-3840.0,-33370.0
32.7643192,35.0164478,482.84,-0.06175,0.0115,1.0095,0.44,-0.08,0.02,31750.0,-3830.0,-33370.0
32.7643192,35.0164478,482.84,-0.0515,-0.0005,0.983,-0.02,-0.68,-0.08,31740.0,-3790.0,-33350.0
32.7643192,35.0164478,482.84,-0.05525,0.002,0.9945,-0.44,-0.76,0.02,31730.0,-3810.0,-33350.0
32.7643192,35.0164478,482.84,-0.057,0.02,1.00625,0.2,-0.04,0.02,31730.0,-3830.0,-33350.0
32.7643192,35.0164478,482.84,-0.06,0.00325,0.99675,0.12,0.54,0.0,31740.0,-3850.0,-33360.0
32.7643192,35.0164478,482.84,-0.0625,-0.01175,0.988,-0.52,0.72,-0.06,31760.0,-3850.0,-33370.0
32.7643192,35.0164478,482.84,-0.07175,0.00725,1.0045,0.12,0.44,0.0,31750.0,-3860.0,-33380.0
32.7643192,35.0164478,482.84,-0.06425,0.0215,1.00875,0.64,-0.14,-0.02,31750.0,-3870.0,-33370.0
32.7643192,35.0164478,482.84,-0.05075,0.002,0.979,-0.18,-0.62,-0.02,31750.0,-3880.0,-33360.0
32.7643191,35.0164478,482.84,-0.058,-0.008,0.98975,-0.7,-0.7,0.02,31760.0,-3860.0,-33380.0
32.7643191,35.0164478,482.84,-0.06025,0.01125,1.016,0.2,-0.12,-0.06,31750.0,-3850.0,-33370.0
32.7643191,35.0164478,482.84,-0.05775,0.01375,0.99575,0.7,0.54,-0.02,31740.0,-3860.0,-33370.0
32.7643191,35.0164478,482.84,-0.06375,-0.00125,0.98375,-0.34,0.72,0.02,31740.0,-3900.0,-33360.0
32.7643191,35.0164478,482.84,-0.06975,0.0065,0.99775,-0.46,0.46,0.0,31740.0,-3930.0,-33350.0
32.7643191,35.0164478,482.84,-0.068,0.01125,1.0105,0.34,-0.16,0.02,31740.0,-3930.0,-33340.0
32.7643191,35.0164478,482.84,-0.05125,-0.0025,0.991,0.12,-0.66,-0.02,31740.0,-3930.0,-33350.0
32.7643191,35.0164478,482.84,-0.05175,0.00025,0.9835,-0.36,-0.9,-0.02,31730.0,-3910.0,-33360.0
32.7643191,35.0164478,482.84,-0.0585,0.016,1.01,0.14,-0.26,0.02,31700.0,-3890.0,-33360.0
32.7643191,35.0164478,482.84,-0.05575,0.01075,0.99725,0.26,0.54,0.04,31720.0,-3900.0,-33360.0
32.7643191,35.0164478,482.84,-0.062,-0.0145,0.98425,-0.46,0.7,0.04,31720.0,-3910.0,-33360.0
32.7643191,35.0164478,482.84,-0.06925,0.00025,1.00525,-0.14,0.54,-0.02,31730.0,-3910.0,-33350.0
32.7643191,35.0164478,482.84,-0.063,0.0245,1.00775,0.74,-0.08,0.0,31820.0,-4030.0,-33330.0
32.7643191,35.0164478,482.84,-0.05375,0.008,0.987,0.02,-0.54,-0.02,31880.0,-4110.0,-33310.0
32.7643191,35.0164478,482.84,-0.05,-0.00625,0.98225,-0.8,-0.78,-0.02,31900.0,-4130.0,-33300.0
32.7643191,35.0164478,482.84,-0.05925,0.00625,1.00875,0.06,-0.28,0.02,31940.0,-4150.0,-33310.0
32.7643191,35.0164478,482.84,-0.05525,0.014,1.0115,0.72,0.42,-0.02,31960.0,-4200.0,-33300.0
32.7643191,35.0164478,482.84,-0.0575,0.0035,0.97975,-0.08,0.76,0.0,31930.0,-4190.0,-33300.0
32.7643191,35.0164478,482.84,-0.07075,0.0025,0.99475,-0.5,0.5,0.04,31880.0,-4140.0,-33310.0
32.7643191,35.0164478,482.84,-0.066,0.016,1.01175,0.22,0.1,-0.02,31800.0,-4070.0,-33330.0
32.7643191,35.0164478,482.83,-0.0565,0.001,0.992,0.16,-0.54,0.0,31730.0,-3940.0,-33370.0
32.7643191,35.0164478,482.83,-0.05025,-0.00475,0.987,-0.38,-0.74,-0.04,31680.0,-3890.0,-33390.0
32.7643191,35.0164478,482.83,-0.055,0.0165,1.0015,0.08,-0.44,0.0,31690.0,-3920.0,-33390.0
32.7643191,35.0164478,482.83,-0.0585,0.012,1.00575,0.26,0.36,0.0,31670.0,-3880.0,-33380.0
32.7643191,35.0164478,482.83,-0.057,-0.00875,0.9865,-0.42,0.72,-0.02,31650.0,-3840.0,-33370.0
32.7643191,35.0164478,482.83,-0.069,-0.00625,0.99575,-0.28,0.54,0.02,31650.0,-3860.0,-33360.0
32.7643191,35.0164478,482.83,-0.0675,0.01925,1.017,0.66,0.12,-0.04,31680.0,-3890.0,-33360.0
32.7643191,35.0164478,482.83,-0.05325,0.014,0.98725,0.36,-0.48,0.02,31670.0,-3880.0,-33350.0
32.7643191,35.0164478,482.83,-0.05375,-0.00975,0.98125,-0.72,-0.74,0.06,31640.0,-3900.0,-33360.0
32.7643191,35.0164478,482.83,-0.056,0.005,1.008,-0.26,-0.28,-0.02,31660.0,-3900.0,-33370.0
32.7643191,35.0164478,482.83,-0.062,0.015,1.01,0.72,0.28,-0.02,31650.0,-3860.0,-33380.0
32.7643191,35.0164478,482.83,-0.0585,0.00375,0.98775,0.14,0.78,0.04,31670.0,-3880.0,-33380.0
32.7643191,35.0164478,482.83,-0.0685,0.0,0.98425,-0.52,0.68,0.0,31680.0,-3900.0,-33370.0
32.7643191,35.0164478,482.83,-0.07425,0.01325,1.01325,0.12,0.18,0.02,31650.0,-3880.0,-33360.0
32.7643191,35.0164478,482.83,-0.05825,0.00775,0.99975,0.34,-0.46,0.0,31690.0,-3910.0,-33360.0
32.7643191,35.0164478,482.83,-0.05325,-0.00625,0.97975,-0.38,-0.72,0.04,31720.0,-3940.0,-33350.0
32.7643191,35.0164478,482.83,-0.0585,0.00825,1.0035,-0.28,-0.56,0.0,31700.0,-3890.0,-33360.0
32.7643191,35.0164478,482.83,-0.0595,0.02025,1.005,0.4,0.24,-0.02,31690.0,-3880.0,-33370.0
32.7643191,35.0164478,482.83,-0.063,-0.006,0.9895,-0.18,0.64,0.02,31700.0,-3890.0,-33370.0
32.7643192,35.0164478,482.84,-0.06675,-0.0105,0.991,-0.46,0.58,0.04,31690.0,-3860.0,-33380.0
32.7643192,35.0164478,482.84,-0.07275,0.014,1.011,0.46,0.16,-0.02,31730.0,-3900.0,-33390.0
32.7643192,35.0164478,482.84,-0.05725,0.01825,1.001,0.58,-0.48,-0.06,31740.0,-3910.0,-33380.0
32.7643192,35.0164478,482.84,-0.0495,-0.00425,0.97675,-0.6,-0.82,0.0,31700.0,-3860.0,-33370.0
32.7643192,35.0164478,482.84,-0.05775,-0.00475,0.99875,-0.52,-0.54,-0.02,31700.0,-3900.0,-33370.0
32.7643192,35.0164478,482.84,-0.057,0.01625,1.0165,0.62,0.12,0.0,31740.0,-3950.0,-33360.0
32.7643192,35.0164478,482.84,-0.05775,0.008,0.9915,0.42,0.62,0.0,31730.0,-3910.0,-33350.0
32.7643192,35.0164478,482.84,-0.06275,-0.003,0.986,-0.46,0.62,0.02,31710.0,-3890.0,-33350.0
32.7643192,35.0164478,482.84,-0.0675,0.0115,1.004,-0.14,0.28,0.06,31720.0,-3880.0,-33350.0
32.7643192,35.0164478,482.84,-0.061,0.01175,1.011,0.44,-0.34,-0.02,31720.0,-3880.0,-33350.0
32.7643192,35.0164478,482.84,-0.046,-0.00375,0.98325,-0.24,-0.76,0.0,31740.0,-3850.0,-33360.0
32.7643192,35.0164478,482.84,-0.052,0.00075,0.989,-0.42,-0.68,0.04,31720.0,-3850.0,-33380.0
32.7643192,35.0164478,482.84,-0.056,0.01775,1.01575,0.32,0.04,0.06,31730.0,-3830.0,-33370.0
32.7643192,35.0164478,482.84,-0.05475,0.0055,0.991,0.16,0.68,0.0,31720.0,-3860.0,-33360.0
32.7643192,35.0164478,482.84,-0.0645,-0.01625,0.9885,-0.48,0.74,0.06,31740.0,-3900.0,-33360.0
32.7643192,35.0164478,482.84,-0.06875,0.007,1.008,0.0,0.34,0.04,31750.0,-3900.0,-33360.0
32.7643192,35.0164478,482.84,-0.063,0.022,1.005,0.68,-0.2,0.02,31740.0,-3880.0,-33370.0
32.7643192,35.0164478,482.84,-0.05075,0.00175,0.9845,-0.18,-0.62,0.02,31740.0,-3870.0,-33370.0
32.7643192,35.0164478,482.84,-0.052,-0.00675,0.9835,-0.8,-0.64,0.06,31760.0,-3870.0,-33360.0
32.7643192,35.0164478,482.84,-0.06075,0.01025,1.01625,0.28,-0.1,-0.04,31720.0,-3850.0,-33360.0
32.7643192,35.0164478,482.84,-0.0565,0.016,1.0025,0.64,0.6,0.02,31750.0,-3890.0,-33370.0
32.7643192,35.0164478,482.84,-0.0635,-0.00025,0.979,-0.4,0.82,0.04,31750.0,-3860.0,-33390.0
32.7643192,35.0164478,482.84,-0.07275,0.0035,0.9995,-0.46,0.48,-0.02,31760.0,-3860.0,-33380.0
32.7643192,35.0164478,482.84,-0.06725,0.016,1.0085,0.38,-0.12,-0.04,31760.0,-3840.0,-33370.0
32.7643192,35.0164478,482.84,-0.0585,0.0,0.99025,0.12,-0.66,0.02,31740.0,-3840.0,-33360.0
32.7643192,35.0164478,482.84,-0.0505,-0.00125,0.9855,-0.48,-0.84,0.0,31700.0,-3790.0,-33360.0
32.7643192,35.0164478,482.84,-0.06075,0.01525,1.00475,0.08,-0.22,0.02,31720.0,-3820.0,-33360.0
32.7643192,35.0164478,482.84,-0.06025,0.01275,1.00575,0.3,0.54,-0.06,31720.0,-3840.0,-33350.0
32.7643192,35.0164478,482.84,-0.06225,-0.00975,0.982,-0.34,0.72,-0.02,31700.0,-3810.0,-33350.0
32.7643192,35.0164478,482.84,-0.0735,-0.004,0.999,-0.3,0.44,0.08,31700.0,-3820.0,-33360.0
32.7643192,35.0164478,482.84,-0.06675,0.02175,1.01325,0.62,-0.2,0.04,31730.0,-3840.0,-33360.0
32.7643192,35.0164478,482.84,-0.0555,0.01125,0.98725,0.22,-0.66,-0.06,31720.0,-3790.0,-33380.0
32.7643192,35.0164478,482.84,-0.05,-0.01075,0.98475,-0.8,-0.78,0.0,31720.0,-3810.0,-33370.0
32.7643192,35.0164478,482.84,-0.05525,0.00475,1.0065,-0.22,-0.32,-0.02,31720.0,-3850.0,-33370.0
32.7643192,35.0164478,482.84,-0.06025,0.01475,1.013,0.68,0.36,-0.04,31730.0,-3850.0,-33360.0
32.7643192,35.0164478,482.84,-0.0565,0.0025,0.98475,0.0,0.74,-0.02,31700.0,-3820.0,-33350.0
32.7643192,35.0164478,482.84,-0.068,-0.00425,0.9855,-0.6,0.56,0.02,31710.0,-3840.0,-33360.0
32.7643192,35.0164478,482.84,-0.06775,0.01175,1.0175,0.12,0.16,0.08,31740.0,-3880.0,-33370.0
32.7643192,35.0164478,482.84,-0.05325,0.00925,0.997,0.42,-0.48,0.06,31720.0,-3850.0,-33370.0
32.7643192,35.0164478,482.84,-0.05025,-0.007,0.98025,-0.36,-0.8,0.02,31710.0,-3870.0,-33360.0
32.7643192,35.0164478,482.84,-0.053,0.009,0.99925,-0.22,-0.48,-0.02,31700.0,-3860.0,-33370.0
32.7643192,35.0164478,482.84,-0.05975,0.01575,1.00475,0.44,0.36,0.0,31710.0,-3850.0,-33380.0
32.7643192,35.0164478,482.84,-0.05775,-0.0055,0.99275,-0.04,0.74,-0.02,31740.0,-3880.0,-33370.0
32.7643192,35.0164478,482.84,-0.064,-0.0085,0.98775,-0.44,0.64,0.02,31730.0,-3900.0,-33360.0
32.7643192,35.0164478,482.84,-0.07,0.016,1.01325,0.4,0.1,-0.02,31710.0,-3920.0,-33360.0
32.7643192,35.0164478,482.84,-0.05525,0.022,0.9985,0.52,-0.44,-0.06,31740.0,-3970.0,-33350.0
32.7643192,35.0164478,482.84,-0.05075,-0.007,0.97325,-0.52,-0.78,0.0,31760.0,-3980.0,-33350.0
32.7643192,35.0164478,482.84,-0.056,-0.0065,0.99975,-0.58,-0.34,0.04,31730.0,-3930.0,-33360.0
32.7643192,35.0164478,482.84,-0.0585,0.01625,1.01425,0.6,0.3,-0.06,31730.0,-3980.0,-33370.0
32.7643192,35.0164478,482.84,-0.06175,0.00975,0.996,0.5,0.72,0.02,31750.0,-4010.0,-33360.0
32.7643192,35.0164478,482.84,-0.0655,0.0,0.9825,-0.6,0.72,-0.02,31740.0,-3990.0,-33360.0
32.7643192,35.0164478,482.84,-0.075,0.006,1.00375,-0.26,0.22,0.04,31740.0,-3990.0,-33370.0
32.7643192,35.0164478,482.84,-0.0635,0.00975,1.01275,0.54,-0.36,0.1,31730.0,-4010.0,-33360.0
32.7643192,35.0164478,482.84,-0.05,-0.0025,0.984,-0.02,-0.8,-0.08,31750.0,-3990.0,-33350.0
32.7643192,35.0164478,482.84,-0.054,0.00225,0.9935,-0.4,-0.64,0.02,31730.0,-4000.0,-33350.0
32.7643192,35.0164478,482.84,-0.05825,0.022,1.0125,0.3,0.08,-0.04,31710.0,-3970.0,-33350.0
32.7643192,35.0164478,482.84,-0.06225,0.00475,0.99275,0.16,0.66,0.04,31700.0,-3910.0,-33360.0
32.7643192,35.0164478,482.84,-0.0655,-0.01575,0.988,-0.5,0.8,0.04,31710.0,-3930.0,-33370.0
32.7643192,35.0164478,482.84,-0.07275,0.0075,1.0035,0.1,0.32,0.0,31730.0,-3970.0,-33370.0
32.7643192,35.0164478,482.84,-0.067,0.0245,1.012,0.76,-0.36,0.02,31730.0,-3960.0,-33360.0
32.7643192,35.0164478,482.84,-0.0505,0.0085,0.98225,-0.22,-0.74,-0.02,31690.0,-3930.0,-33360.0
32.7643192,35.0164478,482.84,-0.05225,-0.009,0.98375,-0.84,-0.68,0.0,31710.0,-3940.0,-33380.0
32.7643192,35.0164478,482.84,-0.057,0.01075,1.0165,0.12,-0.08,0.02,31730.0,-3980.0,-33370.0
32.7643192,35.0164478,482.84,-0.05525,0.017,1.00225,0.72,0.56,-0.04,31750.0,-4010.0,-33370.0
32.7643192,35.0164478,482.84,-0.06325,-0.0015,0.981,-0.28,0.74,0.06,31750.0,-4010.0,-33360.0
32.7643192,35.0164478,482.84,-0.0685,0.004,0.9965,-0.58,0.44,0.06,31730.0,-3970.0,-33350.0
32.7643192,35.0164478,482.84,-0.071,0.013,1.0105,0.28,-0.04,-0.06,31730.0,-3970.0,-33350.0
32.7643192,35.0164478,482.84,-0.05325,0.00275,0.993,0.16,-0.66,-0.02,31730.0,-3960.0,-33340.0
32.7643192,35.0164478,482.84,-0.04775,-0.00325,0.97675,-0.38,-0.78,-0.08,31740.0,-3940.0,-33350.0
32.7643192,35.0164478,482.84,-0.05625,0.01275,1.00775,-0.04,-0.38,-0.02,31690.0,-3900.0,-33360.0
32.7643192,35.0164478,482.84,-0.05625,0.0145,1.00525,0.32,0.46,-0.02,31700.0,-3920.0,-33360.0
32.7643192,35.0164478,482.84,-0.05975,-0.01325,0.98325,-0.26,0.72,0.02,31710.0,-3930.0,-33360.0
32.7643192,35.0164478,482.84,-0.06775,-0.0085,0.99775,-0.28,0.54,-0.02,31670.0,-3880.0,-33360.0
32.7643192,35.0164478,482.84,-0.065,0.02225,1.012,0.66,0.04,0.02,31680.0,-3900.0,-33360.0
32.7643192,35.0164478,482.84,-0.0565,0.01575,0.9945,0.34,-0.48,0.0,31690.0,-3910.0,-33360.0
32.7643192,35.0164478,482.84,-0.04725,-0.0075,0.9785,-0.78,-0.8,0.04,31680.0,-3860.0,-33350.0
32.7643192,35.0164478,482.84,-0.0575,-0.002,1.0025,-0.34,-0.3,0.0,31690.0,-3860.0,-33360.0
32.7643192,35.0164478,482.84,-0.05925,0.0175,1.0205,0.76,0.36,-0.06,31700.0,-3890.0,-33370.0
32.7643192,35.0164478,482.84,-0.058,0.0085,0.9855,0.28,0.72,0.0,31690.0,-3820.0,-33380.0
32.7643192,35.0164478,482.84,-0.0685,-0.00425,0.9875,-0.62,0.68,0.06,31710.0,-3850.0,-33360.0
32.7643192,35.0164478,482.84,-0.06875,0.01325,1.013,-0.14,0.14,0.0,31810.0,-3980.0,-33340.0
32.7643192,35.0164478,482.84,-0.06125,0.01,1.0025,0.36,-0.4,-0.02,31870.0,-4050.0,-33350.0
32.7643192,35.0164478,482.83,-0.0485,-0.0075,0.98325,-0.28,-0.8,0.0,31910.0,-4120.0,-33350.0
32.7643192,35.0164478,482.83,-0.0535,0.00475,0.99,-0.36,-0.52,0.02,31920.0,-4110.0,-33350.0
32.7643192,35.0164478,482.83,-0.06375,0.018,1.01375,0.3,0.2,0.04,31930.0,-4090.0,-33340.0
32.7643192,35.0164478,482.83,-0.06025,-0.0005,0.99075,0.04,0.84,-0.02,31950.0,-4130.0,-33320.0
32.7643192,35.0164478,482.83,-0.0685,-0.01925,0.9835,-0.54,0.64,-0.02,31930.0,-4090.0,-33320.0
32.7643192,35.0164478,482.83,-0.07125,0.008,1.01025,0.24,0.18,0.02,31840.0,-3960.0,-33340.0
32.7643192,35.0164478,482.83,-0.06025,0.026,1.00125,0.84,-0.46,0.0,31780.0,-3910.0,-33350.0
32.7643192,35.0164478,482.83,-0.0535,0.0005,0.98025,-0.34,-0.72,-0.02,31750.0,-3900.0,-33350.0
32.7643192,35.0164478,482.83,-0.05125,-0.01,0.98775,-0.78,-0.64,0.04,31770.0,-3900.0,-33360.0
32.7643192,35.0164478,482.83,-0.06175,0.0105,1.0125,0.34,0.1,0.02,31770.0,-3920.0,-33370.0
32.7643192,35.0164478,482.83,-0.0565,0.0155,1.00625,0.74,0.58,-0.02,31780.0,-3930.0,-33360.0
32.7643192,35.0164478,482.83,-0.06225,0.002,0.9755,-0.36,0.76,0.0,31750.0,-3900.0,-33360.0
32.7643192,35.0164478,482.83,-0.0715,0.0025,0.99925,-0.58,0.3,0.06,31730.0,-3870.0,-33360.0
32.7643192,35.0164478,482.83,-0.06525,0.01525,1.013,0.42,-0.26,-0.08,31760.0,-3900.0,-33360.0
32.7643192,35.0164478,482.83,-0.0535,0.0,0.98975,0.14,-0.72,0.02,31770.0,-3950.0,-33350.0
32.7643192,35.0164478,482.83,-0.0485,-0.003,0.98625,-0.44,-0.7,-0.04,31740.0,-3900.0,-33360.0
32.7643192,35.0164478,482.83,-0.05425,0.01875,1.00575,0.02,-0.24,0.0,31730.0,-3870.0,-33370.0
32.7643192,35.0164478,482.83,-0.0605,0.0105,1.0065,0.38,0.54,0.04,31730.0,-3880.0,-33380.0
32.7643192,35.0164478,482.83,-0.05775,-0.012,0.98575,-0.44,0.72,0.0,31700.0,-3810.0,-33390.0
32.7643192,35.0164478,482.84,-0.0695,-0.006,0.9965,-0.26,0.48,-0.02,31730.0,-3840.0,-33400.0
32.7643192,35.0164478,482.84,-0.06575,0.025,1.01925,0.76,-0.14,0.0,31740.0,-3830.0,-33390.0
32.7643192,35.0164478,482.84,-0.05375,0.01775,0.9855,0.28,-0.58,-0.06,31700.0,-3810.0,-33370.0
32.7643192,35.0164478,482.84,-0.05275,-0.011,0.97975,-0.82,-0.7,0.0,31710.0,-3820.0,-33370.0
32.7643192,35.0164478,482.84,-0.056,0.00275,1.00775,-0.26,-0.22,0.02,31730.0,-3850.0,-33370.0
32.7643192,35.0164478,482.84,-0.06225,0.01725,1.01375,0.86,0.42,0.0,31730.0,-3840.0,-33360.0
32.7643192,35.0164478,482.84,-0.058,0.0075,0.98975,0.2,0.7,0.0,31720.0,-3870.0,-33360.0
32.7643192,35.0164478,482.84,-0.06575,0.00025,0.981,-0.64,0.56,0.0,31720.0,-3880.0,-33360.0
32.7643192,35.0164478,482.84,-0.0705,0.011,1.01425,-0.02,-0.02,0.08,31700.0,-3850.0,-33360.0
32.7643192,35.0164478,482.84,-0.057,0.0105,1.00325,0.42,-0.5,-0.02,31680.0,-3820.0,-33370.0
32.7643192,35.0164478,482.84,-0.052,-0.0075,0.9795,-0.3,-0.7,0.0,31710.0,-3830.0,-33380.0
32.7643192,35.0164478,482.84,-0.056,0.00725,0.9985,-0.38,-0.36,0.02,31710.0,-3830.0,-33370.0
32.7643192,35.0164478,482.84,-0.063,0.02125,1.00775,0.4,0.32,0.06,31720.0,-3880.0,-33370.0
32.7643192,35.0164478,482.84,-0.0635,-0.00225,0.9935,-0.04,0.7,0.04,31730.0,-3920.0,-33360.0
32.7643192,35.0164478,482.84,-0.06325,-0.014,0.98525,-0.6,0.52,0.02,31740.0,-3940.0,-33360.0
32.7643192,35.0164478,482.84,-0.07075,0.00725,1.01025,0.18,-0.02,0.0,31690.0,-3810.0,-33370.0
32.7643192,35.0164478,482.84,-0.05725,0.0245,1.00675,0.72,-0.56,0.0,31660.0,-3780.0,-33370.0
32.7643192,35.0164478,482.84,-0.049,-0.0015,0.975,-0.36,-0.82,0.0,31700.0,-3840.0,-33370.0
32.7643192,35.0164478,482.84,-0.05475,-0.012,0.99275,-0.82,-0.34,0.04,31710.0,-3840.0,-33370.0
32.7643192,35.0164478,482.84,-0.0605,0.01325,1.01625,0.38,0.24,0.0,31710.0,-3850.0,-33380.0
32.7643192,35.0164478,482.83,-0.0635,0.01525,1.0005,0.76,0.68,0.02,31700.0,-3860.0,-33390.0
32.7643192,35.0164478,482.83,-0.063,-0.00325,0.979,-0.44,0.72,0.02,31630.0,-3790.0,-33380.0
32.7643192,35.0164478,482.83,-0.0695,0.0015,0.99275,-0.54,0.14,0.0,31630.0,-3800.0,-33370.0
32.7643192,35.0164478,482.83,-0.067,0.01325,1.01875,0.38,-0.52,0.0,31670.0,-3840.0,-33370.0
32.7643192,35.0164478,482.83,-0.04825,0.00525,0.9885,0.26,-0.72,0.0,31700.0,-3830.0,-33360.0
32.7643192,35.0164478,482.83,-0.04975,-0.0065,0.97975,-0.56,-0.64,0.0,31710.0,-3840.0,-33360.0
32.7643192,35.0164478,482.83,-0.057,0.01475,1.00825,-0.04,0.0,0.06,31720.0,-3880.0,-33360.0
32.7643192,35.0164478,482.83,-0.0615,0.01425,1.0045,0.46,0.64,-0.02,31750.0,-3930.0,-33360.0
32.7643192,35.0164478,482.83,-0.06325,-0.012,0.98775,-0.22,0.8,0.06,31750.0,-3990.0,-33360.0
32.7643192,35.0164478,482.83,-0.06675,-0.0065,0.99375,-0.4,0.4,-0.04,31730.0,-3970.0,-33360.0
32.7643192,35.0164478,482.83,-0.068,0.02175,1.01475,0.54,-0.34,-0.02,31690.0,-3880.0,-33380.0
32.7643192,35.0164478,482.83,-0.051,0.02,0.99625,0.4,-0.8,-0.08,31660.0,-3860.0,-33380.0
32.7643192,35.0164478,482.83,-0.047,-0.011,0.97325,-0.9,-0.7,0.0,31670.0,-3910.0,-33360.0
32.7643192,35.0164478,482.83,-0.0545,-0.00475,1.00625,-0.38,-0.14,0.1,31700.0,-3910.0,-33360.0
32.7643192,35.0164478,482.83,-0.05825,0.02225,1.019,0.82,0.56,-0.06,31690.0,-3920.0,-33350.0
32.7643192,35.0164478,482.83,-0.063,0.01075,0.9905,0.42,0.82,-0.04,31720.0,-3940.0,-33360.0
32.7643192,35.0164478,482.83,-0.067,-0.004,0.981,-0.86,0.62,0.0,31740.0,-3970.0,-33360.0
32.7643192,35.0164478,482.83,-0.07225,0.00625,1.00625,-0.18,0.02,-0.02,31740.0,-3990.0,-33360.0
32.7643192,35.0164478,482.83,-0.06325,0.01175,1.01175,0.62,-0.58,0.08,31730.0,-3990.0,-33350.0
32.7643192,35.0164478,482.83,-0.04625,-0.00175,0.98175,-0.1,-0.82,-0.02,31740.0,-4000.0,-33360.0
32.7643192,35.0164478,482.83,-0.05325,-0.00025,0.988,-0.54,-0.52,0.04,31740.0,-3980.0,-33380.0
32.7643192,35.0164478,482.83,-0.05925,0.01875,1.01375,0.22,0.26,0.04,31750.0,-4010.0,-33380.0
32.7643192,35.0164478,482.83,-0.062,0.0045,0.9935,0.24,0.8,0.06,31750.0,-4010.0,-33360.0
32.7643192,35.0164478,482.83,-0.065,-0.017,0.985,-0.4,0.7,0.0,31730.0,-4020.0,-33360.0
32.7643192,35.0164478,482.83,-0.0685,0.00325,1.00025,-0.12,0.12,0.02,31750.0,-4010.0,-33350.0
32.7643192,35.0164478,482.83,-0.06575,0.02475,1.012,0.8,-0.4,0.0,31740.0,-3980.0,-33350.0
32.7643192,35.0164478,482.83,-0.04925,0.01025,0.98475,-0.12,-0.78,-0.02,31710.0,-3950.0,-33360.0
32.7643192,35.0164478,482.83,-0.0515,-0.01375,0.97875,-0.94,-0.56,0.08,31720.0,-3930.0,-33370.0
32.7643192,35.0164478,482.83,-0.05925,0.00375,1.01425,0.04,-0.02,-0.1,31750.0,-3990.0,-33360.0
32.7643192,35.0164478,482.83,-0.05775,0.01925,1.00825,0.96,0.56,0.0,31740.0,-3950.0,-33360.0
32.7643192,35.0164478,482.83,-0.06175,0.0035,0.98225,-0.02,0.62,0.02,31740.0,-3990.0,-33370.0
32.7643192,35.0164478,482.83,-0.0665,-0.00125,0.992,-0.74,0.38,-0.02,31740.0,-3960.0,-33360.0
32.7643192,35.0164478,482.83,-0.07,0.013,1.012,0.12,-0.14,0.0,31720.0,-3880.0,-33350.0
32.7643192,35.0164478,482.83,-0.05525,0.0065,1.00175,0.5,-0.6,0.0,31720.0,-3920.0,-33350.0
32.7643192,35.0164478,482.83,-0.0475,-0.0035,0.97525,-0.34,-0.7,0.04,31710.0,-3870.0,-33350.0
32.7643192,35.0164478,482.83,-0.05625,0.00625,1.00075,-0.28,-0.32,0.02,31700.0,-3840.0,-33360.0
32.7643192,35.0164478,482.83,-0.0595,0.0175,1.01475,0.34,0.52,0.06,31710.0,-3880.0,-33370.0
32.7643192,35.0164478,482.83,-0.06,-0.00575,0.98825,-0.02,0.74,0.0,31720.0,-3910.0,-33390.0
32.7643192,35.0164478,482.83,-0.067,-0.01325,0.992,-0.5,0.56,-0.04,31740.0,-3920.0,-33370.0
32.7643192,35.0164478,482.83,-0.06875,0.017,1.0115,0.24,-0.1,-0.02,31710.0,-3880.0,-33370.0
32.7643192,35.0164478,482.84,-0.06175,0.02175,0.99975,0.64,-0.48,0.04,31730.0,-3880.0,-33390.0
32.7643192,35.0164478,482.84,-0.048,-0.004,0.978,-0.5,-0.7,0.0,31760.0,-3910.0,-33390.0
32.7643192,35.0164478,482.84,-0.05425,-0.009,0.9935,-0.66,-0.34,0.02,31740.0,-3910.0,-33370.0
32.7643192,35.0164478,482.84,-0.0605,0.01625,1.02425,0.58,0.18,0.06,31740.0,-3930.0,-33370.0
32.7643192,35.0164478,482.84,-0.0575,0.018,0.99425,0.68,0.68,0.02,31750.0,-3910.0,-33350.0
32.7643192,35.0164478,482.84,-0.0665,-0.00275,0.977,-0.58,0.58,0.02,31750.0,-3880.0,-33350.0
32.7643192,35.0164478,482.84,-0.0695,0.00575,1.00325,-0.5,0.22,0.04,31770.0,-3920.0,-33350.0
32.7643192,35.0164478,482.84,-0.0665,0.01475,1.01075,0.54,-0.32,0.0,31790.0,-3940.0,-33360.0
32.7643192,35.0164478,482.84,-0.05125,0.002,0.98875,0.16,-0.7,-0.06,31740.0,-3860.0,-33360.0
32.7643192,35.0164478,482.84,-0.04975,0.0015,0.98075,-0.54,-0.64,0.02,31730.0,-3870.0,-33370.0
32.7643192,35.0164478,482.84,-0.06075,0.0155,1.00875,0.0,-0.14,0.02,31720.0,-3850.0,-33370.0
32.7643192,35.0164478,482.84,-0.059,0.01075,1.00175,0.34,0.62,-0.02,31700.0,-3810.0,-33360.0
32.7643192,35.0164478,482.84,-0.062,-0.01425,0.9805,-0.34,0.66,0.06,31720.0,-3840.0,-33360.0
32.7643192,35.0164478,482.84,-0.06875,-0.00325,1.00225,-0.24,0.34,-0.02,31740.0,-3850.0,-33360.0
32.7643192,35.0164478,482.84,-0.06425,0.02775,1.0115,0.72,-0.2,-0.06,31720.0,-3820.0,-33360.0
32.7643192,35.0164478,482.84,-0.0555,0.0125,0.98525,0.16,-0.54,-0.06,31720.0,-3840.0,-33370.0
32.7643192,35.0164478,482.84,-0.048,-0.01175,0.97925,-0.84,-0.62,-0.02,31740.0,-3870.0,-33360.0
32.7643192,35.0164478,482.84,-0.05875,-0.00025,1.007,-0.22,-0.12,-0.04,31720.0,-3810.0,-33370.0
32.7643192,35.0164478,482.84,-0.05975,0.0175,1.02,0.78,0.46,0.0,31650.0,-3750.0,-33370.0
32.7643192,35.0164478,482.84,-0.0575,0.00725,0.98125,0.12,0.76,-0.04,31700.0,-3800.0,-33370.0
32.7643192,35.0164478,482.84,-0.0685,-0.0055,0.98675,-0.76,0.44,0.04,31750.0,-3810.0,-33390.0
32.7643192,35.0164478,482.84,-0.067,0.011,1.0135,-0.02,-0.04,0.02,31770.0,-3840.0,-33410.0
32.7643192,35.0164478,482.84,-0.05825,0.00575,1.00075,0.44,-0.56,-0.04,31750.0,-3830.0,-33410.0
32.7643192,35.0164478,482.84,-0.04775,-0.00625,0.98525,-0.28,-0.68,0.02,31740.0,-3800.0,-33390.0
32.7643192,35.0164478,482.84,-0.05425,0.0055,0.99575,-0.3,-0.34,-0.02,31730.0,-3810.0,-33380.0
32.7643192,35.0164478,482.84,-0.064,0.0165,1.0125,0.42,0.38,0.02,31800.0,-3930.0,-33350.0
32.7643192,35.0164478,482.84,-0.05925,-0.00275,0.9915,0.04,0.72,0.0,31860.0,-4040.0,-33320.0
32.7643192,35.0164478,482.84,-0.06725,-0.01625,0.9845,-0.5,0.52,0.08,31900.0,-4090.0,-33310.0
32.7643192,35.0164478,482.84,-0.069,0.011,1.01475,0.3,-0.04,0.06,31920.0,-4100.0,-33310.0
32.7643192,35.0164478,482.84,-0.058,0.0245,0.999,0.74,-0.52,-0.04,31920.0,-4100.0,-33320.0
32.7643192,35.0164478,482.84,-0.05225,-0.0035,0.97975,-0.42,-0.76,0.02,31910.0,-4080.0,-33330.0
32.7643192,35.0164478,482.84,-0.054,-0.007,0.99375,-0.76,-0.3,-0.02,31940.0,-4110.0,-33320.0
32.7643192,35.0164478,482.84,-0.064,0.014,1.015,0.56,0.22,0.02,31870.0,-4060.0,-33330.0
32.7643192,35.0164478,482.84,-0.05975,0.0155,0.9985,0.74,0.64,0.0,31780.0,-3980.0,-33350.0
32.7643192,35.0164478,482.84,-0.06175,0.001,0.97575,-0.42,0.56,-0.04,31770.0,-3960.0,-33360.0
32.7643192,35.0164478,482.84,-0.0705,0.004,1.003,-0.42,0.08,0.0,31750.0,-3950.0,-33360.0
32.7643192,35.0164478,482.84,-0.06175,0.016,1.01375,0.44,-0.34,-0.08,31720.0,-3880.0,-33380.0
32.7643192,35.0164478,482.84,-0.05225,0.0,0.986,0.14,-0.64,-0.04,31700.0,-3850.0,-33390.0
32.7643192,35.0164478,482.84,-0.04875,-0.00075,0.9855,-0.46,-0.54,0.0,31680.0,-3820.0,-33400.0
32.7643192,35.0164478,482.84,-0.05625,0.0185,1.00675,0.14,0.06,0.02,31650.0,-3820.0,-33400.0
32.7643192,35.0164479,482.84,-0.06075,0.01075,1.006,0.38,0.6,0.0,31690.0,-3870.0,-33410.0
32.7643192,35.0164479,482.84,-0.05875,-0.011,0.986,-0.38,0.68,-0.08,31690.0,-3860.0,-33400.0
32.7643192,35.0164479,482.84,-0.06975,-0.001,0.999,-0.18,0.28,0.0,31670.0,-3830.0,-33390.0
32.7643192,35.0164479,482.84,-0.065,0.02525,1.01675,0.68,-0.28,0.04,31660.0,-3860.0,-33390.0
32.7643192,35.0164479,482.84,-0.05225,0.015,0.985,0.18,-0.68,-0.02,31690.0,-3940.0,-33380.0
32.7643192,35.0164479,482.84,-0.05225,-0.0125,0.9825,-0.88,-0.56,-0.06,31700.0,-3930.0,-33380.0
32.7643192,35.0164479,482.84,-0.057,0.00425,1.01175,-0.1,-0.08,0.04,31690.0,-3920.0,-33370.0
32.7643192,35.0164479,482.84,-0.0635,0.01925,1.0125,0.76,0.52,0.04,31680.0,-3920.0,-33370.0
32.7643192,35.0164479,482.84,-0.0595,0.00675,0.98425,0.06,0.66,-0.06,31670.0,-3900.0,-33370.0
32.7643192,35.0164479,482.84,-0.06925,-0.00225,0.98125,-0.7,0.42,0.04,31690.0,-3920.0,-33380.0
32.7643192,35.0164479,482.84,-0.07175,0.009,1.01525,-0.02,-0.14,0.02,31700.0,-3900.0,-33390.0
32.7643192,35.0164479,482.84,-0.057,0.00925,1.0,0.38,-0.48,-0.04,31670.0,-3890.0,-33390.0
32.7643192,35.0164479,482.84,-0.05075,-0.006,0.9805,-0.3,-0.64,0.02,31680.0,-3930.0,-33380.0
32.7643192,35.0164479,482.84,-0.0555,0.00675,0.998,-0.26,-0.34,-0.06,31710.0,-3960.0,-33380.0
32.7643192,35.0164479,482.84,-0.0605,0.0175,1.0045,0.4,0.24,0.0,31720.0,-3970.0,-33380.0
32.7643192,35.0164479,482.84,-0.06225,-0.00625,0.992,-0.04,0.66,-0.04,31670.0,-3900.0,-33390.0
32.7643192,35.0164479,482.84,-0.0635,-0.01575,0.9885,-0.64,0.5,0.04,31680.0,-3900.0,-33380.0
32.7643192,35.0164479,482.84,-0.07125,0.00725,1.01,0.28,0.04,0.0,31720.0,-3950.0,-33380.0
32.7643192,35.0164479,482.84,-0.056,0.025,1.00425,0.72,-0.52,0.0,31690.0,-3940.0,-33380.0
32.7643192,35.0164479,482.84,-0.04975,-0.00125,0.975,-0.4,-0.74,-0.02,31680.0,-3920.0,-33380.0
32.7643192,35.0164478,482.84,-0.055,-0.01175,0.9945,-0.78,-0.44,0.06,31660.0,-3890.0,-33400.0
32.7643192,35.0164478,482.84,-0.05925,0.01025,1.01775,0.42,0.2,-0.06,31620.0,-3820.0,-33400.0
32.7643192,35.0164478,482.84,-0.05975,0.013,0.999,0.76,0.68,-0.02,31660.0,-3850.0,-33380.0
32.7643192,35.0164478,482.84,-0.06,-0.0005,0.983,-0.42,0.52,0.04,31670.0,-3900.0,-33380.0
32.7643192,35.0164478,482.84,-0.067,0.0045,0.996,-0.52,0.18,0.02,31650.0,-3840.0,-33370.0
32.7643192,35.0164478,482.84,-0.06425,0.01275,1.017,0.4,-0.32,0.08,31640.0,-3880.0,-33370.0
32.7643192,35.0164478,482.84,-0.04975,0.001,0.98775,0.16,-0.58,-0.04,31660.0,-3900.0,-33360.0
32.7643192,35.0164478,482.84,-0.053,-0.0045,0.984,-0.4,-0.54,0.06,31660.0,-3940.0,-33360.0
32.7643192,35.0164478,482.84,-0.05875,0.01725,1.01025,0.06,0.08,0.0,31700.0,-3980.0,-33360.0
32.7643192,35.0164478,482.84,-0.061,0.01375,0.99975,0.38,0.56,0.02,31700.0,-3940.0,-33370.0
32.7643192,35.0164478,482.84,-0.063,-0.01275,0.98725,-0.44,0.66,0.02,31680.0,-3870.0,-33390.0
32.7643192,35.0164478,482.84,-0.06675,-0.003,0.99675,-0.28,0.28,-0.06,31640.0,-3840.0,-33380.0
32.7643192,35.0164478,482.84,-0.06775,0.02375,1.0135,0.66,-0.18,-0.02,31670.0,-3870.0,-33370.0
32.7643192,35.0164478,482.84,-0.052,0.0175,0.98875,0.3,-0.6,-0.08,31680.0,-3880.0,-33360.0
32.7643192,35.0164478,482.84,-0.053,-0.00775,0.97425,-0.78,-0.62,-0.02,31680.0,-3870.0,-33360.0
32.7643192,35.0164478,482.84,-0.062,0.00125,1.011,-0.24,0.0,0.06,31690.0,-3910.0,-33370.0
32.7643192,35.0164478,482.84,-0.06075,0.01925,1.011,0.8,0.46,-0.1,31720.0,-3930.0,-33380.0
32.7643192,35.0164478,482.84,-0.06325,0.0065,0.984,0.2,0.64,0.0,31720.0,-3940.0,-33370.0
32.7643192,35.0164478,482.84,-0.0675,0.001,0.987,-0.7,0.36,-0.02,31710.0,-3910.0,-33360.0
32.7643192,35.0164478,482.84,-0.06975,0.012,1.00875,-0.04,-0.12,0.06,31700.0,-3860.0,-33370.0
32.7643192,35.0164478,482.84,-0.0575,0.00725,1.00475,0.38,-0.56,0.04,31690.0,-3830.0,-33390.0
32.7643192,35.0164478,482.84,-0.04725,-0.00375,0.98075,-0.26,-0.64,0.0,31700.0,-3850.0,-33380.0
32.7643192,35.0164478,482.84,-0.05525,0.00825,0.99925,-0.34,-0.32,0.02,31700.0,-3870.0,-33370.0
32.7643192,35.0164478,482.84,-0.059,0.01975,1.0115,0.28,0.34,0.0,31660.0,-3820.0,-33360.0
32.7643192,35.0164478,482.84,-0.0585,-0.003,0.98625,-0.14,0.68,0.0,31690.0,-3840.0,-33350.0
32.7643192,35.0164478,482.84,-0.065,-0.01425,0.99275,-0.48,0.5,-0.06,31730.0,-3890.0,-33360.0
32.7643192,35.0164478,482.84,-0.0655,0.01475,1.01325,0.26,-0.06,0.06,31740.0,-3880.0,-33360.0
32.7643192,35.0164478,482.84,-0.059,0.0215,1.00175,0.62,-0.44,-0.08,31750.0,-3880.0,-33370.0
32.7643192,35.0164478,482.84,-0.04725,-0.001,0.9805,-0.54,-0.6,0.0,31730.0,-3870.0,-33360.0
32.7643192,35.0164478,482.84,-0.0555,-0.0065,0.9935,-0.6,-0.28,0.0,31710.0,-3880.0,-33370.0
32.7643192,35.0164478,482.84,-0.06075,0.01275,1.01975,0.4,0.26,0.02,31730.0,-3900.0,-33370.0
32.7643192,35.0164478,482.84,-0.0565,0.0125,0.994,0.56,0.62,0.0,31720.0,-3890.0,-33370.0
32.7643192,35.0164478,482.84,-0.06525,-0.003,0.98075,-0.48,0.48,0.04,31710.0,-3870.0,-33360.0
32.7643192,35.0164478,482.84,-0.06875,0.00775,1.0065,-0.34,0.2,0.08,31700.0,-3870.0,-33360.0
32.7643192,35.0164478,482.84,-0.0635,0.01125,1.0075,0.38,-0.28,0.04,31730.0,-3900.0,-33360.0
32.7643192,35.0164478,482.84,-0.0525,-0.00625,0.9865,-0.08,-0.62,0.0,31730.0,-3850.0,-33360.0
32.7643192,35.0164478,482.84,-0.05325,0.00175,0.98775,-0.36,-0.48,0.0,31730.0,-3840.0,-33370.0
32.7643192,35.0164478,482.84,-0.06275,0.0155,1.009,0.24,0.08,0.0,31730.0,-3850.0,-33370.0
32.7643192,35.0164478,482.84,-0.05825,0.00275,0.99625,0.04,0.62,0.04,31710.0,-3830.0,-33360.0
32.7643192,35.0164478,482.84,-0.06425,-0.01725,0.984,-0.48,0.56,0.04,31690.0,-3830.0,-33370.0
32.7643193,35.0164478,482.84,-0.07075,0.002,1.008,0.02,0.2,0.0,31730.0,-3870.0,-33390.0
32.7643193,35.0164478,482.84,-0.0605,0.02375,1.00675,0.74,-0.26,-0.02,31740.0,-3890.0,-33390.0
32.7643193,35.0164478,482.84,-0.054,0.00125,0.9805,-0.16,-0.64,-0.02,31730.0,-3860.0,-33380.0
32.7643193,35.0164478,482.84,-0.05225,-0.009,0.9875,-0.8,-0.56,0.04,31720.0,-3860.0,-33370.0
32.7643193,35.0164478,482.84,-0.0615,0.00825,1.011,0.24,0.02,0.0,31720.0,-3840.0,-33360.0
32.7643193,35.0164478,482.84,-0.058,0.01325,1.00725,0.74,0.52,0.0,31700.0,-3820.0,-33350.0
32.7643193,35.0164478,482.84,-0.05975,0.00225,0.98,-0.3,0.68,-0.06,31710.0,-3840.0,-33350.0
32.7643193,35.0164478,482.84,-0.073,0.00475,0.99775,-0.44,0.26,0.02,31710.0,-3850.0,-33360.0
32.7643193,35.0164478,482.84,-0.06525,0.01575,1.01325,0.32,-0.16,0.02,31690.0,-3850.0,-33360.0
32.7643193,35.0164478,482.84,-0.05425,-0.00075,0.98775,0.02,-0.62,0.02,31730.0,-3870.0,-33360.0
32.7643193,35.0164478,482.84,-0.0515,-0.0015,0.989,-0.42,-0.68,-0.02,31730.0,-3870.0,-33380.0
32.7643193,35.0164478,482.84,-0.05675,0.01925,1.00675,0.14,-0.22,0.02,31710.0,-3850.0,-33370.0
32.7643193,35.0164478,482.84,-0.06025,0.008,1.00175,0.16,0.44,-0.02,31700.0,-3860.0,-33370.0
32.7643193,35.0164478,482.84,-0.05825,-0.01125,0.986,-0.46,0.7,0.0,31700.0,-3870.0,-33370.0
32.7643193,35.0164478,482.84,-0.06975,0.001,1.00075,-0.08,0.46,0.06,31690.0,-3860.0,-33360.0
32.7643193,35.0164478,482.84,-0.06475,0.02375,1.01325,0.72,-0.08,0.04,31700.0,-3870.0,-33370.0
32.7643193,35.0164478,482.84,-0.05125,0.01075,0.98075,0.02,-0.54,-0.04,31730.0,-3910.0,-33380.0
32.7643193,35.0164478,482.84,-0.054,-0.00925,0.983,-0.78,-0.7,0.0,31710.0,-3900.0,-33380.0
32.7643193,35.0164478,482.84,-0.05775,0.0085,1.01175,0.06,-0.3,0.02,31670.0,-3870.0,-33370.0
32.7643193,35.0164478,482.84,-0.05975,0.0145,1.00525,0.74,0.44,-0.02,31700.0,-3900.0,-33370.0
32.7643193,35.0164478,482.84,-0.059,0.00275,0.985,-0.18,0.66,0.04,31710.0,-3860.0,-33390.0
32.7643193,35.0164478,482.84,-0.069,0.00725,0.99075,-0.52,0.5,0.0,31700.0,-3830.0,-33400.0
32.7643193,35.0164478,482.84,-0.07075,0.013,1.012,0.22,0.0,0.1,31700.0,-3840.0,-33410.0
32.7643193,35.0164478,482.84,-0.05275,0.00075,0.9915,0.06,-0.54,-0.04,31700.0,-3870.0,-33400.0
32.7643193,35.0164478,482.84,-0.051,-0.00425,0.9835,-0.36,-0.8,0.02,31690.0,-3870.0,-33380.0
32.7643193,35.0164478,482.84,-0.05675,0.017,1.01025,0.02,-0.32,0.04,31700.0,-3890.0,-33370.0
32.7643193,35.0164478,482.84,-0.056,0.0135,0.99825,0.28,0.38,0.06,31690.0,-3890.0,-33360.0
32.7643193,35.0164478,482.84,-0.062,-0.015,0.98475,-0.44,0.76,-0.02,31700.0,-3930.0,-33360.0
32.7643193,35.0164478,482.84,-0.06925,-0.0015,1.00225,-0.22,0.64,0.0,31730.0,-3980.0,-33360.0
32.7643193,35.0164478,482.84,-0.07,0.01975,1.0125,0.62,0.04,-0.1,31740.0,-3980.0,-33360.0
32.7643193,35.0164478,482.84,-0.05375,0.00925,0.989,0.14,-0.52,0.0,31710.0,-3930.0,-33370.0
32.7643193,35.0164478,482.84,-0.05075,-0.006,0.97825,-0.74,-0.84,0.04,31700.0,-3940.0,-33360.0
32.7643193,35.0164478,482.84,-0.05975,0.00575,1.012,-0.04,-0.38,0.0,31790.0,-4070.0,-33340.0
32.7643193,35.0164478,482.84,-0.0555,0.01275,1.00825,0.52,0.3,-0.02,31880.0,-4200.0,-33320.0
32.7643193,35.0164478,482.84,-0.06,-0.0025,0.98125,-0.14,0.66,0.0,31930.0,-4240.0,-33310.0
32.7643193,35.0164478,482.84,-0.0695,0.00225,0.99825,-0.38,0.54,0.04,31940.0,-4240.0,-33300.0
32.7643193,35.0164478,482.84,-0.07,0.01525,1.009,0.24,0.26,0.0,31940.0,-4230.0,-33300.0
32.7643193,35.0164478,482.84,-0.058,0.0,0.99475,0.0,-0.52,0.04,31930.0,-4210.0,-33320.0
32.7643193,35.0164478,482.84,-0.05,-0.005,0.98325,-0.38,-0.84,0.02,31940.0,-4210.0,-33320.0
32.7643193,35.0164478,482.84,-0.0585,0.01175,1.00425,0.16,-0.56,0.0,31840.0,-4070.0,-33340.0
32.7643193,35.0164478,482.84,-0.05575,0.01,1.00625,0.32,0.16,-0.08,31780.0,-3980.0,-33370.0
32.7643193,35.0164478,482.84,-0.0575,-0.0105,0.9835,-0.42,0.7,0.0,31740.0,-3960.0,-33370.0
32.7643193,35.0164478,482.84,-0.0705,-0.0035,1.0025,-0.16,0.64,0.0,31710.0,-3920.0,-33360.0
32.7643193,35.0164478,482.84,-0.065,0.0215,1.01025,0.64,0.18,-0.04,31710.0,-3920.0,-33370.0
32.7643193,35.0164478,482.84,-0.05625,0.00575,0.986,0.16,-0.42,0.0,31700.0,-3920.0,-33370.0
32.7643193,35.0164478,482.84,-0.051,-0.0075,0.98425,-0.66,-0.8,0.02,31690.0,-3920.0,-33370.0
32.7643193,35.0164478,482.84,-0.058,0.00775,1.007,0.04,-0.42,0.0,31710.0,-3920.0,-33360.0
32.7643193,35.0164478,482.84,-0.05725,0.014,1.00825,0.68,0.3,0.04,31720.0,-3940.0,-33360.0
32.7643193,35.0164478,482.84,-0.05725,0.00475,0.98375,-0.14,0.7,-0.06,31730.0,-3900.0,-33360.0
32.7643193,35.0164478,482.84,-0.0725,0.003,0.99375,-0.42,0.68,0.06,31720.0,-3860.0,-33370.0
32.7643193,35.0164478,482.84,-0.0655,0.0105,1.0105,0.26,0.24,0.0,31760.0,-3900.0,-33370.0
32.7643193,35.0164478,482.84,-0.05525,0.00175,0.98975,0.12,-0.52,0.0,31790.0,-3950.0,-33370.0
32.7643193,35.0164478,482.84,-0.05375,0.00175,0.99325,-0.38,-0.82,0.02,31780.0,-3900.0,-33360.0
32.7643193,35.0164478,482.84,-0.05725,0.0205,1.00275,0.12,-0.38,0.0,31780.0,-3880.0,-33350.0
32.7643193,35.0164478,482.84,-0.05675,0.00825,0.99675,0.2,0.32,0.06,31780.0,-3860.0,-33350.0
32.7643193,35.0164478,482.84,-0.0585,-0.009,0.9915,-0.4,0.68,-0.02,31810.0,-3850.0,-33350.0
32.7643193,35.0164478,482.84,-0.07025,0.002,1.004,-0.1,0.58,0.06,31840.0,-3900.0,-33370.0
32.7643193,35.0164478,482.84,-0.06525,0.017,1.00725,0.72,0.1,0.0,31850.0,-3920.0,-33360.0
32.7643193,35.0164478,482.84,-0.05275,0.0115,0.983,-0.02,-0.52,0.0,31890.0,-3960.0,-33350.0
32.7643193,35.0164478,482.84,-0.05975,0.00175,0.99125,-0.64,-0.72,-0.02,31920.0,-3960.0,-33360.0
32.7643193,35.0164478,482.84,-0.06125,0.01175,1.011,0.04,-0.26,0.0,31910.0,-3920.0,-33380.0
32.7643193,35.0164478,482.84,-0.055,0.00425,0.9965,0.36,0.34,0.0,31850.0,-3850.0,-33370.0
32.7643193,35.0164478,482.84,-0.05925,-0.0025,0.98975,-0.14,0.56,0.02,31870.0,-3910.0,-33370.0
32.7643193,35.0164478,482.84,-0.06625,0.01425,1.003,-0.08,0.34,0.06,31920.0,-3960.0,-33360.0
32.7643193,35.0164478,482.84,-0.06475,0.01525,1.00225,0.28,0.02,0.02,31900.0,-3900.0,-33350.0
32.7643193,35.0164478,482.84,-0.05275,-0.00075,0.9865,-0.3,-0.4,-0.02,31880.0,-3890.0,-33350.0
32.7643193,35.0164478,482.84,-0.0585,0.00175,0.994,-0.36,-0.54,-0.02,31890.0,-3880.0,-33350.0
32.7643193,35.0164478,482.84,-0.05875,0.01,1.01,0.2,-0.2,0.06,31890.0,-3880.0,-33350.0
32.7643193,35.0164478,482.84,-0.05275,0.00075,0.98825,-0.02,0.36,0.02,31880.0,-3910.0,-33340.0
32.7643193,35.0164478,482.84,-0.06425,-0.00575,0.9915,-0.36,0.4,0.0,31880.0,-3880.0,-33350.0
32.7643193,35.0164478,482.84,-0.068,0.01525,1.00875,0.28,0.48,-0.02,31860.0,-3820.0,-33370.0
32.7643193,35.0164478,482.84,-0.05925,0.01275,0.9955,0.36,0.0,0.0,31870.0,-3850.0,-33360.0
32.7643193,35.0164478,482.84,-0.0525,-0.0085,0.98875,-0.54,-0.42,0.02,31910.0,-3910.0,-33350.0
32.7643193,35.0164478,482.84,-0.05625,-0.0015,1.00075,-0.38,-0.62,-0.02,31920.0,-3900.0,-33350.0
32.7643193,35.0164478,482.84,-0.05775,0.00925,1.0075,0.56,-0.2,-0.04,31870.0,-3820.0,-33340.0
32.7643193,35.0164478,482.84,-0.052,0.00775,0.98975,0.22,0.28,0.06,31860.0,-3830.0,-33360.0
32.7643193,35.0164478,482.84,-0.06675,0.0075,0.99225,-0.5,0.6,0.04,31900.0,-3890.0,-33360.0
32.7643193,35.0164478,482.84,-0.07175,0.0085,1.01025,-0.04,0.54,0.0,31910.0,-3920.0,-33350.0
32.7643193,35.0164478,482.84,-0.0595,-0.00425,0.9935,0.14,0.06,0.06,31940.0,-3940.0,-33350.0
32.7643193,35.0164478,482.84,-0.0575,-0.0075,0.992,-0.24,-0.6,-0.08,31940.0,-3950.0,-33350.0
32.7643193,35.0164478,482.84,-0.057,0.017,1.00575,0.16,-0.7,-0.02,31940.0,-3940.0,-33370.0
32.7643193,35.0164478,482.84,-0.05425,0.014,0.9915,0.28,-0.2,-0.06,31930.0,-3930.0,-33360.0
32.7643193,35.0164478,482.84,-0.057,-0.008,0.98975,-0.48,0.36,0.06,31920.0,-3910.0,-33350.0
32.7643193,35.0164478,482.84,-0.068,0.00225,1.00575,-0.26,0.76,0.0,31880.0,-3840.0,-33350.0
32.7643193,35.0164478,482.84,-0.06925,0.0075,1.007,0.6,0.48,0.0,31880.0,-3880.0,-33340.0
32.7643193,35.0164478,482.84,-0.056,0.004,0.98325,0.12,-0.08,-0.04,31910.0,-3900.0,-33340.0
32.7643193,35.0164478,482.84,-0.0605,0.0075,0.99225,-0.42,-0.74,-0.04,31900.0,-3890.0,-33350.0
32.7643193,35.0164478,482.84,-0.061,0.01625,1.011,0.06,-0.52,-0.02,31910.0,-3940.0,-33350.0
32.7643193,35.0164478,482.84,-0.0525,0.00125,0.989,0.14,-0.12,-0.04,31910.0,-3910.0,-33340.0
32.7643193,35.0164478,482.84,-0.06025,-0.0055,0.99375,-0.34,0.38,-0.02,31900.0,-3880.0,-33350.0
32.7643193,35.0164478,482.84,-0.0645,0.01425,1.00975,0.14,0.56,0.02,31890.0,-3910.0,-33360.0
32.7643193,35.0164478,482.84,-0.063,0.01275,0.992,0.44,0.3,-0.02,31880.0,-3940.0,-33350.0
32.7643193,35.0164478,482.84,-0.057,0.00325,0.989,-0.22,-0.24,0.02,31850.0,-3890.0,-33340.0
32.7643193,35.0164478,482.84,-0.05825,0.01375,1.0,-0.22,-0.52,0.0,31830.0,-3890.0,-33340.0
32.7643193,35.0164478,482.84,-0.059,0.00725,1.004,0.14,-0.32,-0.02,31870.0,-3950.0,-33340.0
32.7643193,35.0164478,482.84,-0.053,-0.0045,0.98775,-0.18,0.04,-0.06,31910.0,-3960.0,-33350.0
32.7643193,35.0164478,482.84,-0.0635,0.011,1.0,0.0,0.36,-0.02,31880.0,-3920.0,-33360.0
32.7643193,35.0164478,482.84,-0.066,0.02725,1.009,0.42,0.44,0.0,31860.0,-3910.0,-33360.0
32.7643193,35.0164478,482.84,-0.05975,0.0105,0.9795,-0.1,0.16,0.0,31870.0,-3860.0,-33340.0
32.7643193,35.0164478,482.84,-0.0625,-0.006,0.9945,-0.78,-0.26,0.02,31880.0,-3900.0,-33350.0
32.7643193,35.0164478,482.84,-0.05925,0.00975,1.0135,0.02,-0.48,-0.06,31900.0,-3940.0,-33370.0
32.7643193,35.0164478,482.84,-0.057,0.00925,0.991,0.42,-0.32,-0.02,31880.0,-3940.0,-33360.0
32.7643193,35.0164478,482.84,-0.05625,0.0075,0.9875,-0.34,0.0,0.0,31860.0,-3920.0,-33350.0
32.7643193,35.0164478,482.84,-0.06425,0.01475,1.00275,-0.42,0.36,0.02,31870.0,-3950.0,-33350.0
32.7643193,35.0164478,482.84,-0.06475,-0.0015,1.002,0.0,0.44,0.08,31880.0,-3990.0,-33340.0
32.7643193,35.0164478,482.84,-0.054,-0.01325,0.98975,-0.24,-0.02,0.0,31890.0,-4010.0,-33340.0
32.7643193,35.0164478,482.84,-0.05725,0.001,1.00275,-0.02,-0.54,0.1,31910.0,-4010.0,-33340.0
32.7643193,35.0164478,482.84,-0.05175,0.00925,1.004,0.26,-0.52,0.0,31890.0,-4020.0,-33340.0
32.7643193,35.0164478,482.84,-0.05125,-0.003,0.9815,-0.18,-0.2,-0.02,31840.0,-4000.0,-33340.0
32.7643193,35.0164478,482.84,-0.063,-0.0055,1.003,-0.42,0.32,0.06,31860.0,-4040.0,-33340.0
32.7643193,35.0164478,482.84,-0.06,0.0015,1.012,0.32,0.6,0.08,31880.0,-4000.0,-33350.0
32.7643193,35.0164478,482.84,-0.06125,-0.0095,0.9865,0.26,0.32,0.1,31860.0,-4000.0,-33350.0
32.7643193,35.0164478,482.84,-0.0585,-0.00225,0.99475,-0.24,-0.1,0.02,31870.0,-4030.0,-33350.0
32.7643193,35.0164478,482.84,-0.059,0.01825,1.0065,0.26,-0.42,0.1,31880.0,-4030.0,-33350.0
32.7643193,35.0164478,482.84,-0.06,0.00375,0.993,0.2,-0.22,0.0,31850.0,-3990.0,-33340.0
32.7643193,35.0164478,482.84,-0.05775,-0.0085,0.98775,-0.48,0.1,0.02,31860.0,-3980.0,-33350.0
32.7643193,35.0164478,482.84,-0.06725,0.00275,1.008,-0.04,0.46,0.08,31890.0,-4010.0,-33350.0
32.7643193,35.0164478,482.84,-0.06325,0.0055,1.0055,0.54,0.42,0.02,31870.0,-3940.0,-33350.0
32.7643193,35.0164478,482.84,-0.06025,0.0045,0.97725,-0.02,0.04,0.0,31790.0,-3890.0,-33350.0
32.7643193,35.0164478,482.84,-0.06325,0.0105,1.00075,-0.16,-0.34,-0.06,31830.0,-3920.0,-33350.0
32.7643193,35.0164479,482.84,-0.0605,0.00875,1.00175,0.1,-0.3,0.04,31880.0,-3940.0,-33370.0
32.7643193,35.0164479,482.84,-0.06025,-0.01475,0.986,-0.18,-0.08,0.0,31880.0,-3940.0,-33390.0
32.7643193,35.0164479,482.84,-0.06175,-0.0005,1.003,-0.02,0.18,0.0,31860.0,-3940.0,-33390.0
32.7643193,35.0164479,482.84,-0.06275,0.0225,1.005,0.62,0.24,0.02,31860.0,-3930.0,-33400.0
32.7643193,35.0164479,482.84,-0.06175,0.00775,0.98325,0.08,0.14,-0.06,31870.0,-3940.0,-33390.0
32.7643193,35.0164479,482.84,-0.0595,0.0015,0.98775,-0.5,-0.18,-0.02,31890.0,-3920.0,-33380.0
32.7643193,35.0164479,482.84,-0.06375,0.00575,1.0115,0.1,-0.22,0.0,31880.0,-3910.0,-33380.0
32.7643193,35.0164479,482.84,-0.05775,0.0055,1.001,0.52,-0.16,-0.06,31870.0,-3900.0,-33380.0
32.7643193,35.0164479,482.84,-0.0575,0.009,0.98225,0.02,0.0,-0.04,31890.0,-3960.0,-33380.0
32.7643193,35.0164479,482.84,-0.0635,0.02375,1.00575,-0.06,0.12,0.06,31900.0,-4000.0,-33370.0
32.7643193,35.0164479,482.84,-0.05925,0.01625,1.0005,0.14,0.26,0.04,31880.0,-3960.0,-33360.0
32.7643193,35.0164479,482.84,-0.058,-0.003,0.98475,-0.36,0.0,0.04,31890.0,-3960.0,-33350.0
32.7643193,35.0164479,482.84,-0.0555,0.00925,1.007,-0.04,-0.28,0.04,31910.0,-3940.0,-33340.0
32.7643193,35.0164479,482.84,-0.05425,0.019,1.00225,0.44,-0.28,-0.02,31860.0,-3880.0,-33340.0
32.7643193,35.0164479,482.84,-0.05625,0.0065,0.9855,-0.14,-0.1,0.04,31840.0,-3870.0,-33330.0
32.7643193,35.0164479,482.84,-0.0585,0.01425,0.99575,-0.38,0.22,0.0,31850.0,-3880.0,-33330.0
32.7643193,35.0164479,482.84,-0.065,0.016,1.00975,0.24,0.36,0.04,31850.0,-3850.0,-33350.0
32.7643193,35.0164479,482.84,-0.05625,0.0,0.99025,-0.08,0.24,0.04,31870.0,-3860.0,-33360.0
32.7643193,35.0164479,482.84,-0.05725,-0.00075,0.98775,-0.44,-0.2,0.0,31890.0,-3890.0,-33360.0
32.7643193,35.0164479,482.84,-0.05875,0.0155,1.01375,0.22,-0.32,0.0,31950.0,-3990.0,-33340.0
32.7643193,35.0164479,482.84,-0.0545,0.015,0.99,0.22,-0.16,-0.14,32040.0,-4110.0,-33340.0
32.7643193,35.0164479,482.84,-0.062,-0.0005,0.9835,-0.54,0.2,-0.04,32080.0,-4160.0,-33320.0
32.7643193,35.0164479,482.84,-0.065,0.004,1.01125,-0.44,0.46,0.02,32080.0,-4160.0,-33300.0
32.7643193,35.0164479,482.84,-0.06525,-0.00025,1.002,0.26,0.38,-0.06,32090.0,-4200.0,-33300.0
32.7643193,35.0164479,482.84,-0.06025,-0.007,0.9865,-0.12,-0.04,0.04,32140.0,-4250.0,-33290.0
32.7643193,35.0164479,482.84,-0.05975,0.012,0.99625,-0.1,-0.48,0.0,32140.0,-4240.0,-33290.0
32.7643193,35.0164479,482.84,-0.061,0.01025,1.0035,0.08,-0.34,0.0,32060.0,-4130.0,-33300.0
32.7643193,35.0164479,482.84,-0.057,-0.01275,0.98825,-0.4,0.04,-0.02,31980.0,-4010.0,-33320.0
32.7643193,35.0164479,482.84,-0.0635,-0.01125,0.99575,-0.4,0.2,0.02,31930.0,-3920.0,-33330.0
32.7643193,35.0164479,482.84,-0.067,0.00725,1.0155,0.52,0.4,0.04,31910.0,-3880.0,-33340.0
32.7643193,35.0164479,482.84,-0.05875,0.005,0.9855,0.44,0.2,0.04,31910.0,-3890.0,-33350.0
32.7643193,35.0164479,482.84,-0.063,-0.003,0.98375,-0.5,-0.24,0.04,31910.0,-3870.0,-33350.0
32.7643193,35.0164479,482.84,-0.061,0.0075,1.01125,-0.14,-0.34,0.0,31890.0,-3890.0,-33350.0
32.7643193,35.0164479,482.84,-0.05875,0.0015,0.99725,0.38,-0.24,-0.06,31930.0,-3930.0,-33350.0
32.7643193,35.0164479,482.84,-0.05875,-0.0155,0.9815,-0.18,0.04,0.02,31940.0,-3950.0,-33350.0
32.7643193,35.0164479,482.84,-0.061,0.01225,1.00675,0.0,0.16,-0.02,31920.0,-3900.0,-33360.0
32.7643193,35.0164479,482.84,-0.0645,0.01525,1.00475,0.54,0.2,0.06,31920.0,-3910.0,-33360.0
32.7643193,35.0164479,482.84,-0.0565,0.001,0.977,-0.16,0.0,-0.08,31890.0,-3920.0,-33350.0
32.7643193,35.0164479,482.84,-0.0575,0.002,1.0005,-0.28,-0.38,0.0,31880.0,-3930.0,-33340.0
32.7643193,35.0164478,482.84,-0.05925,0.0055,1.01525,0.16,-0.3,0.0,31920.0,-3950.0,-33350.0
32.7643193,35.0164478,482.84,-0.052,-0.004,0.98725,0.16,-0.12,-0.06,31920.0,-3910.0,-33370.0
32.7643193,35.0164478,482.84,-0.05975,0.0055,0.99775,-0.02,0.08,0.04,31890.0,-3870.0,-33360.0
32.7643193,35.0164478,482.84,-0.06075,0.027,1.00875,0.28,0.36,-0.02,31890.0,-3890.0,-33360.0
32.7643193,35.0164478,482.84,-0.057,0.0095,0.99075,0.04,0.24,0.06,31890.0,-3940.0,-33350.0
32.7643193,35.0164478,482.84,-0.0555,-0.01225,0.99025,-0.56,-0.08,0.0,31850.0,-3890.0,-33350.0
32.7643193,35.0164478,482.84,-0.059,0.00775,1.0085,0.06,-0.3,0.02,31870.0,-3900.0,-33340.0
32.7643193,35.0164478,482.84,-0.06,0.01575,1.00475,0.7,-0.22,0.04,31880.0,-3940.0,-33340.0
32.7643193,35.0164478,482.84,-0.05525,0.01,0.98125,-0.1,0.14,0.02,31860.0,-3940.0,-33340.0
32.7643193,35.0164478,482.84,-0.065,0.01625,0.99725,-0.48,0.36,0.04,31860.0,-3960.0,-33340.0
32.7643193,35.0164478,482.84,-0.066,0.01175,1.01025,0.12,0.38,-0.02,31860.0,-3940.0,-33340.0
32.7643193,35.0164478,482.84,-0.055,-0.00625,0.9835,-0.04,0.06,-0.04,31840.0,-3870.0,-33360.0
32.7643193,35.0164478,482.84,-0.05975,0.00325,0.99925,-0.16,-0.42,0.0,31840.0,-3910.0,-33360.0
32.7643193,35.0164478,482.84,-0.0595,0.02825,1.01025,0.42,-0.4,0.0,31870.0,-3960.0,-33350.0
32.7643193,35.0164478,482.84,-0.06,0.01325,0.98025,0.1,0.02,-0.04,31860.0,-3950.0,-33340.0
32.7643193,35.0164478,482.84,-0.064,-0.00375,0.992,-0.7,0.36,0.0,31820.0,-3870.0,-33330.0
32.7643193,35.0164478,482.84,-0.06825,0.01125,1.01125,0.02,0.44,0.02,31810.0,-3880.0,-33350.0
32.7643193,35.0164478,482.84,-0.0645,0.00525,0.99775,0.48,0.16,0.04,31830.0,-3920.0,-33350.0
32.7643193,35.0164478,482.84,-0.0555,0.00125,0.98125,-0.18,-0.36,0.0,31850.0,-3990.0,-33350.0
32.7643193,35.0164478,482.84,-0.063,0.01625,1.00325,-0.28,-0.54,0.08,31870.0,-4010.0,-33340.0
32.7643193,35.0164478,482.84,-0.061,0.0135,1.0085,0.18,-0.2,0.0,31860.0,-4000.0,-33340.0
32.7643193,35.0164478,482.84,-0.05675,-0.00675,0.9825,-0.28,0.18,0.0,31870.0,-3960.0,-33360.0
32.7643193,35.0164478,482.84,-0.065,-0.005,1.00075,-0.38,0.32,0.08,31870.0,-3980.0,-33350.0
32.7643193,35.0164478,482.84,-0.06325,0.01075,1.01125,0.28,0.34,0.0,31870.0,-4010.0,-33340.0
32.7643193,35.0164478,482.84,-0.0575,0.00125,0.98475,0.22,-0.08,-0.02,31830.0,-3950.0,-33330.0
32.7643193,35.0164478,482.84,-0.056,0.0,0.9945,-0.46,-0.52,0.02,31820.0,-3970.0,-33330.0
32.7643193,35.0164478,482.84,-0.0585,0.011,1.00925,-0.06,-0.38,-0.04,31870.0,-4000.0,-33330.0
32.7643193,35.0164478,482.84,-0.05675,-0.0065,0.996,0.08,-0.02,0.0,31880.0,-4010.0,-33340.0
32.7643193,35.0164478,482.84,-0.053,-0.01475,0.98875,-0.36,0.22,0.04,31870.0,-4020.0,-33350.0
32.7643193,35.0164478,482.84,-0.065,0.009,1.0085,0.16,0.34,0.08,31850.0,-4000.0,-33340.0
32.7643193,35.0164478,482.84,-0.06025,0.01725,1.00375,0.56,0.24,0.0,31840.0,-3970.0,-33340.0
32.7643193,35.0164478,482.84,-0.05275,-0.00275,0.9785,-0.42,-0.14,0.0,31840.0,-3960.0,-33350.0
32.7643193,35.0164478,482.84,-0.059,-0.00675,1.0055,-0.54,-0.36,0.02,31860.0,-3990.0,-33340.0
32.7643193,35.0164478,482.84,-0.056,0.007,1.0135,0.38,-0.24,-0.06,31840.0,-3940.0,-33330.0
32.7643193,35.0164478,482.84,-0.0545,-0.00025,0.98425,0.36,0.02,0.04,31830.0,-3980.0,-33330.0
32.7643193,35.0164478,482.84,-0.05975,0.004,0.9925,-0.24,0.26,-0.06,31860.0,-4030.0,-33330.0
32.7643193,35.0164478,482.84,-0.067,0.0185,1.00725,0.06,0.46,0.12,31870.0,-4020.0,-33340.0
32.7643193,35.0164478,482.84,-0.064,0.00075,0.99525,0.16,0.26,0.02,31880.0,-4020.0,-33350.0
32.7643193,35.0164478,482.84,-0.05375,-0.009,0.98675,-0.34,-0.2,-0.02,31860.0,-4000.0,-33350.0
32.7643193,35.0164478,482.84,-0.06075,0.0105,1.00575,0.08,-0.56,0.02,31860.0,-3960.0,-33340.0
32.7643193,35.0164478,482.84,-0.056,0.01275,1.00025,0.42,-0.32,0.02,31880.0,-3970.0,-33340.0
32.7643193,35.0164479,482.84,-0.056,-0.00025,0.977,-0.2,0.16,-0.04,31890.0,-3980.0,-33360.0
32.7643193,35.0164479,482.84,-0.069,0.00925,1.00575,-0.26,0.46,0.0,31870.0,-3940.0,-33360.0
32.7643193,35.0164479,482.84,-0.0675,0.019,1.00925,0.44,0.52,-0.04,31880.0,-3920.0,-33350.0
32.7643193,35.0164479,482.84,-0.0615,-0.00025,0.98,-0.08,0.1,0.02,31880.0,-3920.0,-33350.0
32.7643193,35.0164479,482.84,-0.05975,-0.001,0.99475,-0.44,-0.48,0.0,31860.0,-3900.0,-33340.0
32.7643193,35.0164479,482.84,-0.061,0.021,1.00975,0.3,-0.58,0.0,31850.0,-3890.0,-33330.0
32.7643193,35.0164479,482.84,-0.05925,0.01425,0.99375,0.42,-0.18,-0.02,31860.0,-3910.0,-33330.0
32.7643193,35.0164479,482.84,-0.05725,0.00425,0.98575,-0.52,0.26,0.02,31860.0,-3920.0,-33340.0
32.7643193,35.0164479,482.84,-0.0705,0.00775,1.007,-0.24,0.5,0.02,31840.0,-3880.0,-33330.0
32.7643193,35.0164479,482.84,-0.06325,0.0065,1.0075,0.34,0.38,0.0,31870.0,-3900.0,-33340.0
32.7643193,35.0164479,482.84,-0.055,-0.00025,0.98325,-0.04,-0.24,0.02,31890.0,-3900.0,-33350.0
32.7643193,35.0164479,482.84,-0.06025,0.01225,1.00225,-0.2,-0.62,0.04,31880.0,-3870.0,-33350.0
32.7643193,35.0164479,482.84,-0.0565,0.0185,1.00425,0.18,-0.42,-0.06,31880.0,-3860.0,-33350.0
32.7643193,35.0164479,482.84,-0.05525,-0.00725,0.985,-0.28,0.02,-0.02,31860.0,-3820.0,-33350.0
32.7643193,35.0164479,482.84,-0.058,-0.00875,1.003,-0.4,0.38,0.06,31810.0,-3770.0,-33340.0
32.7643193,35.0164479,482.84,-0.0625,0.01475,1.011,0.5,0.42,-0.06,31800.0,-3800.0,-33350.0
32.7643193,35.0164479,482.84,-0.057,0.0105,0.9915,0.38,0.1,-0.06,31800.0,-3790.0,-33360.0
32.7643193,35.0164479,482.84,-0.05225,0.0005,0.982,-0.64,-0.32,0.02,31820.0,-3770.0,-33350.0
32.7643193,35.0164479,482.84,-0.0615,0.007,1.00825,-0.28,-0.4,0.08,31860.0,-3840.0,-33350.0
32.7643193,35.0164479,482.84,-0.05575,0.0055,1.00625,0.38,-0.1,-0.02,31900.0,-3910.0,-33350.0
32.7643193,35.0164479,482.84,-0.05375,-0.00425,0.9815,-0.02,0.12,0.0,31890.0,-3860.0,-33370.0
32.7643193,35.0164479,482.84,-0.065,0.00675,1.005,-0.24,0.42,0.02,31900.0,-3830.0,-33390.0
32.7643193,35.0164479,482.84,-0.064,0.01725,1.0055,0.28,0.36,0.0,31900.0,-3810.0,-33390.0
32.7643193,35.0164479,482.84,-0.05925,-0.003,0.9825,-0.08,0.08,0.02,31870.0,-3810.0,-33380.0
32.7643193,35.0164479,482.84,-0.056,-0.00425,0.99675,-0.5,-0.42,0.0,31870.0,-3880.0,-33360.0
32.7643193,35.0164479,482.84,-0.05825,0.00975,1.00625,0.16,-0.38,-0.04,31880.0,-3890.0,-33350.0
32.7643193,35.0164479,482.84,-0.05525,-0.001,0.993,0.28,-0.08,-0.08,31870.0,-3870.0,-33340.0
32.7643193,35.0164479,482.84,-0.058,-0.0035,0.986,-0.34,0.3,-0.08,31870.0,-3910.0,-33350.0
32.7643193,35.0164479,482.84,-0.07325,0.0135,1.0085,0.14,0.54,0.04,31890.0,-3930.0,-33350.0
32.7643193,35.0164479,482.84,-0.0675,0.01275,0.9995,0.56,0.46,0.02,31920.0,-3930.0,-33350.0
32.7643193,35.0164479,482.84,-0.05975,-0.0085,0.9775,-0.34,0.0,-0.02,31880.0,-3860.0,-33360.0
32.7643193,35.0164479,482.84,-0.063,-0.00225,1.0055,-0.42,-0.54,-0.08,31900.0,-3870.0,-33350.0
32.7643193,35.0164479,482.84,-0.05675,0.0165,1.0085,0.48,-0.5,-0.04,31920.0,-3920.0,-33350.0
32.7643193,35.0164479,482.84,-0.056,0.00775,0.9835,0.28,-0.12,0.02,31890.0,-3910.0,-33350.0
32.7643193,35.0164479,482.84,-0.06125,0.0055,0.99525,-0.58,0.34,-0.02,31890.0,-3910.0,-33350.0
32.7643193,35.0164479,482.84,-0.071,0.0105,1.00775,0.04,0.62,0.02,31880.0,-3900.0,-33340.0
32.7643193,35.0164479,482.84,-0.0635,-0.0015,0.99825,0.34,0.3,0.04,31850.0,-3860.0,-33350.0
32.7643193,35.0164479,482.84,-0.0545,-0.00225,0.98875,-0.26,-0.34,0.0,31870.0,-3910.0,-33370.0
32.7643193,35.0164479,482.84,-0.06025,0.018,1.007,0.06,-0.68,0.02,31920.0,-3960.0,-33360.0
32.7643193,35.0164479,482.84,-0.0535,0.01675,0.9995,0.2,-0.5,0.02,31890.0,-3900.0,-33370.0
32.7643193,35.0164478,482.84,-0.05175,-0.00725,0.98225,-0.42,0.04,0.04,31880.0,-3890.0,-33380.0
32.7643193,35.0164478,482.84,-0.0635,-0.00075,1.01075,-0.26,0.5,0.02,31890.0,-3930.0,-33380.0
32.7643193,35.0164478,482.84,-0.061,0.0175,1.01025,0.68,0.54,0.02,31890.0,-3950.0,-33360.0
32.7643193,35.0164478,482.84,-0.057,0.0045,0.98125,0.18,0.08,-0.04,31890.0,-3990.0,-33360.0
32.7643193,35.0164478,482.84,-0.0555,0.0035,0.9915,-0.56,-0.48,0.0,31880.0,-3990.0,-33350.0
32.7643193,35.0164478,482.84,-0.06125,0.01575,1.008,0.08,-0.48,0.04,31890.0,-4000.0,-33350.0
32.7643193,35.0164478,482.84,-0.05625,0.00425,0.99725,0.32,-0.08,-0.02,31960.0,-4090.0,-33320.0
32.7643193,35.0164478,482.84,-0.05325,-0.003,0.98575,-0.34,0.26,-0.02,32050.0,-4190.0,-33310.0
32.7643193,35.0164478,482.84,-0.06725,0.01025,1.007,-0.1,0.46,0.04,32080.0,-4220.0,-33300.0
32.7643193,35.0164478,482.84,-0.06025,0.0125,1.002,0.42,0.34,-0.02,32070.0,-4240.0,-33300.0
32.7643193,35.0164478,482.84,-0.05525,-0.00225,0.97875,-0.24,-0.04,-0.02,32110.0,-4280.0,-33300.0
32.7643193,35.0164478,482.84,-0.06,0.00425,1.00175,-0.38,-0.54,0.06,32140.0,-4300.0,-33290.0
32.7643193,35.0164478,482.84,-0.05825,0.011,1.006,0.24,-0.26,-0.04,32130.0,-4290.0,-33300.0
32.7643193,35.0164478,482.84,-0.05675,-0.00825,0.9855,-0.1,0.06,0.0,32020.0,-4180.0,-33310.0
32.7643193,35.0164478,482.84,-0.05925,-0.005,0.9965,-0.4,0.24,0.0,31950.0,-4120.0,-33320.0
32.7643193,35.0164478,482.84,-0.068,0.0165,1.008,0.4,0.46,0.0,31900.0,-4060.0,-33340.0
32.7643193,35.0164478,482.84,-0.061,0.01,0.993,0.36,0.24,0.04,31870.0,-4040.0,-33350.0
32.7643193,35.0164478,482.84,-0.054,-0.00725,0.98275,-0.58,-0.2,0.02,31880.0,-4040.0,-33350.0
32.7643193,35.0164478,482.84,-0.06325,-0.00225,1.00975,-0.26,-0.38,0.06,31820.0,-3950.0,-33350.0
32.7643193,35.0164478,482.84,-0.05675,0.0105,1.009,0.66,-0.24,-0.02,31830.0,-3950.0,-33350.0
32.7643193,35.0164479,482.84,-0.05525,0.0035,0.982,0.18,0.08,0.0,31870.0,-3970.0,-33370.0
32.7643193,35.0164479,482.84,-0.06675,0.0075,0.999,-0.38,0.38,0.06,31880.0,-3990.0,-33370.0
32.7643193,35.0164479,482.84,-0.0695,0.013,1.00775,0.16,0.48,0.04,31900.0,-4010.0,-33360.0
32.7643193,35.0164479,482.84,-0.0625,-0.00575,0.992,0.12,0.22,-0.02,31880.0,-3980.0,-33360.0
32.7643193,35.0164479,482.84,-0.056,-0.00475,0.99525,-0.32,-0.48,-0.04,31860.0,-3970.0,-33350.0
32.7643193,35.0164479,482.84,-0.06175,0.016,1.005,0.3,-0.6,0.1,31880.0,-4030.0,-33350.0
32.7643193,35.0164479,482.84,-0.05475,0.01025,0.99475,0.28,-0.32,0.02,31880.0,-4030.0,-33340.0
32.7643193,35.0164479,482.84,-0.055,-0.004,0.9835,-0.5,0.18,0.06,31850.0,-4000.0,-33340.0
32.7643193,35.0164479,482.84,-0.0695,0.0055,1.0105,-0.2,0.58,0.06,31850.0,-3990.0,-33340.0
32.7643193,35.0164479,482.84,-0.06575,0.015,1.005,0.58,0.52,0.0,31870.0,-3980.0,-33350.0
32.7643193,35.0164479,482.84,-0.0565,0.00075,0.9765,-0.02,-0.06,0.04,31870.0,-3920.0,-33370.0
32.7643193,35.0164479,482.84,-0.06125,0.002,0.99725,-0.52,-0.58,-0.04,31900.0,-3980.0,-33360.0
32.7643193,35.0164479,482.84,-0.0595,0.0215,1.00575,0.26,-0.54,0.0,31900.0,-4000.0,-33350.0
32.7643193,35.0164479,482.84,-0.05725,0.00725,0.9905,0.28,-0.08,0.0,31850.0,-3960.0,-33340.0
32.7643193,35.0164479,482.84,-0.0545,0.0,0.98925,-0.56,0.32,-0.02,31800.0,-3880.0,-33340.0
32.7643193,35.0164479,482.84,-0.067,0.00975,1.006,-0.04,0.54,-0.02,31820.0,-3900.0,-33350.0
32.7643193,35.0164479,482.84,-0.06,0.01025,1.004,0.44,0.28,-0.02,31860.0,-3960.0,-33350.0
32.7643193,35.0164479,482.84,-0.0515,0.0015,0.98125,-0.22,-0.3,-0.02,31850.0,-3950.0,-33340.0
32.7643193,35.0164479,482.84,-0.05975,0.01275,1.0005,-0.24,-0.58,0.02,31850.0,-3940.0,-33340.0
32.7643193,35.0164479,482.84,-0.057,0.0175,1.00625,0.22,-0.32,-0.04,31850.0,-3900.0,-33340.0
32.7643193,35.0164479,482.84,-0.0545,-0.006,0.9835,-0.18,0.14,0.08,31830.0,-3870.0,-33360.0
32.7643193,35.0164479,482.84,-0.06275,-0.00675,1.00275,-0.42,0.44,-0.02,31860.0,-3910.0,-33350.0
32.7643193,35.0164479,482.84,-0.067,0.02025,1.0095,0.46,0.52,-0.04,31880.0,-3950.0,-33340.0
32.7643193,35.0164479,482.84,-0.06025,0.01425,0.99,0.42,0.08,0.0,31890.0,-3960.0,-33330.0
32.7643193,35.0164479,482.84,-0.0535,-0.00175,0.9855,-0.72,-0.38,0.02,31900.0,-3970.0,-33330.0
32.7643193,35.0164479,482.84,-0.06125,0.00325,1.0065,-0.32,-0.5,-0.02,31900.0,-4000.0,-33330.0
32.7643193,35.0164479,482.84,-0.0575,0.00375,1.00875,0.4,-0.16,-0.06,31890.0,-3950.0,-33330.0
32.7643193,35.0164479,482.84,-0.054,-0.00125,0.985,0.04,0.2,0.04,31880.0,-3930.0,-33340.0
32.7643193,35.0164479,482.84,-0.06775,0.007,0.99825,-0.34,0.44,0.02,31870.0,-3920.0,-33330.0
32.7643193,35.0164479,482.84,-0.06925,0.016,1.00775,0.22,0.56,0.02,31860.0,-3910.0,-33340.0
32.7643193,35.0164479,482.84,-0.061,-0.00475,0.986,-0.04,0.02,-0.02,31900.0,-3930.0,-33350.0
32.7643193,35.0164479,482.84,-0.058,-0.01025,0.995,-0.46,-0.56,0.02,31910.0,-3910.0,-33340.0
32.7643193,35.0164479,482.84,-0.05875,0.0095,1.008,0.16,-0.54,-0.02,31880.0,-3850.0,-33340.0
32.7643193,35.0164479,482.84,-0.0565,0.005,0.99425,0.32,-0.22,0.0,31870.0,-3910.0,-33340.0
32.7643193,35.0164479,482.84,-0.05525,-0.006,0.98675,-0.32,0.18,0.0,31890.0,-3960.0,-33330.0
32.7643193,35.0164479,482.84,-0.07,0.0065,1.005,-0.18,0.56,0.04,31910.0,-3920.0,-33340.0
32.7643193,35.0164479,482.84,-0.0655,0.0085,1.006,0.5,0.5,0.0,31840.0,-3800.0,-33350.0
32.7643193,35.0164479,482.84,-0.0545,-0.00825,0.9805,-0.16,-0.14,0.0,31810.0,-3800.0,-33360.0
32.7643193,35.0164479,482.84,-0.05975,-0.00375,0.99825,-0.4,-0.7,0.0,31840.0,-3820.0,-33350.0
32.7643193,35.0164479,482.84,-0.05725,0.01625,1.0095,0.46,-0.54,0.04,31850.0,-3840.0,-33350.0
32.7643193,35.0164479,482.85,-0.0545,0.0085,0.98575,0.4,-0.08,0.0,31860.0,-3840.0,-33360.0
32.7643193,35.0164479,482.85,-0.06,-0.00275,0.99125,-0.54,0.42,0.02,31860.0,-3840.0,-33360.0
