Lat_GNSS,Long_GNSS,Height_GNSS,Acc_X,Acc_Y,Acc_Z,Gyro_X,Gyro_Y,Gyro_Z,Magn_X,Magn_Y,Magn_Z
32.7588623,35.0228499,477.94,-0.06325,0.0235,1.00425,-0.02,0.72,-0.06,24040.0,18870.0,-33920.0
32.7588623,35.0228499,477.94,-0.068,0.021,0.9965,-0.44,0.62,0.0,24010.0,18800.0,-33930.0
32.7588623,35.0228499,477.94,-0.07375,0.0435,0.9995,0.42,0.16,-0.04,24050.0,18710.0,-33930.0
32.7588623,35.0228499,477.94,-0.06875,0.0515,1.005,0.72,-0.24,-0.04,24050.0,18690.0,-33940.0
32.7588623,35.0228499,477.94,-0.06,0.03175,0.9935,-0.48,-0.26,-0.04,24020.0,18690.0,-33940.0
32.7588623,35.0228499,477.94,-0.065,0.02675,0.9895,-0.62,-0.04,0.02,24020.0,18700.0,-33940.0
32.7588623,35.0228499,477.94,-0.0735,0.0415,1.01,0.64,0.38,-0.02,24010.0,18680.0,-33940.0
32.7588623,35.0228499,477.94,-0.07325,0.046,1.01275,0.72,0.7,-0.08,23980.0,18790.0,-33940.0
32.7588623,35.0228499,477.94,-0.079,0.03925,0.991,-0.32,0.74,0.06,23930.0,18800.0,-33940.0
32.7588623,35.0228499,477.94,-0.08675,0.0425,0.9865,-0.12,0.44,0.0,23970.0,18830.0,-33940.0
32.7588623,35.0228499,477.94,-0.08525,0.049,1.0085,0.9,0.2,-0.14,23950.0,18850.0,-33940.0
32.7588623,35.0228499,477.94,-0.071,0.0435,1.00825,0.78,0.14,-0.14,23960.0,18810.0,-33940.0
32.7588623,35.0228499,477.94,-0.07175,0.05575,0.9895,0.34,0.32,-0.06,23970.0,18770.0,-33940.0
32.7588623,35.0228499,477.94,-0.0815,0.07375,0.985,0.48,0.42,0.04,24000.0,18800.0,-33940.0
32.7588623,35.0228499,477.94,-0.084,0.06625,0.999,0.2,0.3,0.14,23980.0,18770.0,-33950.0
32.7588623,35.0228499,477.94,-0.08325,0.048,1.0,-0.68,-0.12,0.1,24000.0,18850.0,-33940.0
32.7588623,35.0228499,477.94,-0.08125,0.05625,0.98925,-0.32,-0.6,0.0,24020.0,18920.0,-33930.0
32.7588623,35.0228499,477.94,-0.08025,0.0815,1.00625,1.0,-0.74,0.06,24010.0,18860.0,-33940.0
32.7588623,35.0228499,477.94,-0.06775,0.07325,0.9905,0.14,-0.34,0.08,24000.0,18850.0,-33940.0
32.7588623,35.0228499,477.94,-0.0675,0.04825,0.9705,-1.34,-0.16,0.18,24010.0,18870.0,-33940.0
32.7588623,35.0228499,477.94,-0.07325,0.052,0.991,-0.78,-0.18,0.1,24000.0,19100.0,-33930.0
32.7588623,35.0228499,477.94,-0.0725,0.06175,1.01425,0.7,-0.3,-0.02,24000.0,19170.0,-33920.0
32.7588623,35.02285,477.94,-0.067,0.05,0.9925,0.18,-0.06,-0.02,24050.0,19170.0,-33910.0
32.7588623,35.02285,477.94,-0.069,0.044,0.974,-1.0,-0.1,0.0,24030.0,19110.0,-33920.0
32.7588623,35.02285,477.94,-0.0735,0.05075,0.99375,-0.32,-0.1,0.0,24050.0,19030.0,-33920.0
32.7588623,35.02285,477.94,-0.0635,0.0435,1.00775,0.26,-0.2,-0.06,24060.0,18960.0,-33930.0
32.7588623,35.02285,477.94,-0.05425,0.03175,0.993,-0.3,-0.34,-0.02,24020.0,19000.0,-33930.0
32.7588623,35.02285,477.94,-0.0605,0.04025,0.98125,-0.44,-0.38,0.0,24000.0,18910.0,-33930.0
32.7588623,35.02285,477.94,-0.0665,0.04625,0.99575,0.24,0.04,0.0,24010.0,18870.0,-33940.0
32.7588623,35.02285,477.94,-0.065,0.027,1.00225,-0.02,0.4,0.0,23990.0,18920.0,-33940.0
32.7588623,35.02285,477.94,-0.067,0.0185,0.9945,-0.52,0.58,0.0,24050.0,18930.0,-33930.0
32.7588623,35.02285,477.94,-0.07125,0.04125,0.9965,0.24,0.2,0.0,24080.0,18840.0,-33930.0
32.7588623,35.02285,477.94,-0.0675,0.048,0.99375,0.64,-0.16,-0.04,24050.0,18890.0,-33930.0
32.7588623,35.02285,477.94,-0.05975,0.02325,0.984,-0.38,-0.36,0.02,24040.0,18880.0,-33940.0
32.7588623,35.02285,477.94,-0.0655,0.01925,0.98725,-0.64,-0.22,0.14,24060.0,18910.0,-33930.0
32.7588623,35.02285,477.94,-0.0755,0.0425,1.0065,0.66,0.18,0.1,24070.0,18880.0,-33930.0
32.7588623,35.02285,477.94,-0.0745,0.04525,1.00175,0.88,0.54,-0.04,24070.0,18900.0,-33930.0
32.7588623,35.02285,477.94,-0.0755,0.03275,0.98525,-0.4,0.64,0.06,24080.0,18930.0,-33920.0
32.7588623,35.02285,477.94,-0.083,0.03625,0.9875,-0.3,0.22,0.0,24070.0,18950.0,-33930.0
32.7588623,35.02285,477.94,-0.0795,0.0435,1.0035,0.66,-0.24,0.0,24110.0,18910.0,-33920.0
32.7588623,35.02285,477.94,-0.06475,0.0365,1.001,0.4,-0.58,-0.04,24160.0,18990.0,-33910.0
32.7588623,35.02285,477.94,-0.065,0.037,0.98575,-0.3,-0.52,0.04,24140.0,18950.0,-33920.0
32.7588623,35.02285,477.94,-0.076,0.05025,0.9915,0.32,0.0,0.0,24030.0,18980.0,-33930.0
32.7588623,35.02285,477.94,-0.0775,0.041,1.00075,0.62,0.56,-0.04,24000.0,18950.0,-33940.0
32.7588623,35.02285,477.94,-0.07425,0.02125,0.99475,-0.08,0.62,0.02,24030.0,18930.0,-33940.0
32.7588623,35.02285,477.94,-0.078,0.03325,0.98975,0.14,0.18,-0.02,24040.0,18940.0,-33930.0
32.7588623,35.02285,477.94,-0.076,0.05775,0.99575,1.14,-0.36,0.0,24060.0,18890.0,-33930.0
32.7588623,35.02285,477.94,-0.061,0.048,0.989,0.62,-0.78,0.04,24040.0,18860.0,-33940.0
32.7588623,35.02285,477.94,-0.06,0.02725,0.9785,-0.5,-0.52,0.12,23980.0,18870.0,-33940.0
32.7588623,35.02285,477.94,-0.06875,0.0365,0.987,0.26,-0.04,0.08,23990.0,18910.0,-33940.0
32.7588623,35.02285,477.94,-0.07025,0.0515,1.001,1.36,0.44,0.02,24010.0,18860.0,-33940.0
32.7588623,35.02285,477.94,-0.06725,0.0445,0.9885,0.74,0.5,0.02,24000.0,18830.0,-33940.0
32.7588623,35.02285,477.94,-0.0755,0.03875,0.96825,-0.14,0.3,0.12,24010.0,18820.0,-33940.0
32.7588623,35.02285,477.94,-0.07725,0.049,0.9835,0.68,-0.28,0.1,24040.0,18790.0,-33940.0
32.7588623,35.02285,477.94,-0.0635,0.049,1.00075,1.1,-0.56,0.08,24060.0,18740.0,-33940.0
32.7588623,35.02285,477.94,-0.05375,0.0445,0.989,0.34,-0.72,0.08,24090.0,18780.0,-33930.0
32.7588623,35.02285,477.94,-0.05875,0.06125,0.9815,0.28,-0.32,0.08,24090.0,18880.0,-33930.0
32.7588623,35.02285,477.94,-0.06175,0.0725,0.998,0.88,0.36,0.06,24070.0,18880.0,-33930.0
32.7588623,35.02285,477.94,-0.06575,0.059,1.008,0.42,0.72,0.16,24110.0,18850.0,-33930.0
32.7588623,35.02285,477.94,-0.067,0.0635,1.008,-0.3,0.52,0.12,24120.0,18830.0,-33930.0
32.7588624,35.02285,477.94,-0.07275,0.09325,1.0115,0.36,0.14,0.08,24130.0,18940.0,-33920.0
32.7588624,35.02285,477.94,-0.066,0.1015,1.01775,0.42,-0.48,-0.06,24110.0,18890.0,-33920.0
32.7588624,35.02285,477.94,-0.05875,0.085,1.01225,-0.9,-0.36,0.06,24110.0,18770.0,-33930.0
32.7588624,35.02285,477.94,-0.065,0.0795,1.00925,-1.42,-0.02,0.06,24100.0,18710.0,-33940.0
32.7588624,35.02285,477.94,-0.07325,0.08125,1.022,-0.52,0.46,-0.12,24050.0,18740.0,-33940.0
32.7588624,35.02285,477.94,-0.07525,0.069,1.02475,-0.4,0.84,-0.18,24040.0,18700.0,-33940.0
32.7588624,35.02285,477.94,-0.08125,0.055,0.999,-1.44,0.76,-0.1,24020.0,18730.0,-33940.0
32.7588624,35.02285,477.94,-0.0875,0.04325,0.99075,-1.28,0.28,-0.14,24040.0,18720.0,-33940.0
32.7588624,35.02285,477.94,-0.086,0.028,1.00675,-0.42,-0.12,-0.2,24060.0,18710.0,-33940.0
32.7588624,35.02285,477.94,-0.0765,0.01875,1.008,-0.34,-0.42,-0.22,24040.0,18800.0,-33940.0
32.7588624,35.02285,477.94,-0.075,0.02875,0.98875,-0.46,-0.26,-0.2,23990.0,18920.0,-33930.0
32.7588624,35.02285,477.94,-0.08175,0.0395,0.989,0.24,0.08,-0.2,23990.0,18810.0,-33940.0
32.7588624,35.02285,477.94,-0.0835,0.0305,1.0,0.18,0.54,-0.22,24010.0,18710.0,-33940.0
32.7588624,35.02285,477.94,-0.08275,0.023,0.99925,-0.42,0.62,-0.08,24030.0,18670.0,-33940.0
32.7588624,35.02285,477.94,-0.086,0.04125,0.996,0.12,0.2,0.04,24030.0,18650.0,-33940.0
32.7588624,35.02285,477.94,-0.0825,0.064,1.0,0.7,-0.34,0.04,24020.0,18710.0,-33940.0
32.7588624,35.02285,477.94,-0.07125,0.05875,0.9935,-0.16,-0.5,0.06,24030.0,18800.0,-33930.0
32.7588624,35.02285,477.94,-0.0685,0.04475,0.98375,-1.26,-0.46,0.14,24080.0,18810.0,-33930.0
32.7588624,35.02285,477.94,-0.07425,0.04975,0.99575,-0.66,-0.04,0.18,24090.0,18730.0,-33930.0
32.7588624,35.02285,477.94,-0.0745,0.05925,1.016,0.1,0.3,0.2,24080.0,18750.0,-33930.0
32.7588623,35.02285,477.95,-0.069,0.052,0.99775,-0.72,0.64,0.1,24070.0,18850.0,-33920.0
32.7588623,35.02285,477.95,-0.07825,0.04725,0.9775,-1.14,0.1,0.14,24040.0,18820.0,-33930.0
32.7588623,35.02285,477.95,-0.07825,0.04725,1.00425,-0.38,0.14,0.0,24000.0,18770.0,-33940.0
32.7588623,35.02285,477.95,-0.068,0.0395,1.01825,-0.26,-0.58,-0.02,23990.0,18710.0,-33940.0
32.7588623,35.02285,477.95,-0.05525,0.034,0.99175,-1.0,-0.56,-0.06,23990.0,18690.0,-33940.0
32.7588623,35.02285,477.95,-0.062,0.04375,0.98,-0.54,-0.5,-0.12,23980.0,18700.0,-33950.0
32.7588623,35.02285,477.95,-0.06425,0.04225,1.00225,0.14,0.12,-0.3,23930.0,18700.0,-33950.0
32.7588623,35.02285,477.95,-0.06725,0.0235,1.00125,-0.3,0.42,-0.3,23980.0,18670.0,-33950.0
32.7588623,35.02285,477.95,-0.07225,0.022,0.98475,-0.6,0.5,-0.2,24020.0,18690.0,-33950.0
32.7588623,35.02285,477.95,-0.0795,0.04275,0.985,0.26,-0.12,-0.22,24020.0,18760.0,-33940.0
32.7588623,35.02285,477.95,-0.069,0.044,0.991,0.42,-0.66,-0.24,24010.0,18790.0,-33940.0
32.7588623,35.02285,477.95,-0.0625,0.02325,0.97675,-0.72,-0.9,-0.2,23980.0,18710.0,-33950.0
32.7588623,35.02285,477.95,-0.0645,0.0215,0.971,-0.54,-0.8,-0.1,24030.0,18510.0,-33950.0
32.7588623,35.02285,477.95,-0.069,0.03425,0.98775,0.6,-0.16,-0.02,24110.0,18380.0,-33960.0
32.7588623,35.02285,477.95,-0.06475,0.03225,0.9925,0.58,0.3,0.04,24130.0,18350.0,-33960.0
32.7588623,35.02285,477.95,-0.0725,0.026,0.9735,-0.38,0.5,0.1,24190.0,18390.0,-33950.0
32.7588623,35.02285,477.95,-0.07875,0.0335,0.973,0.04,0.16,0.14,24220.0,18370.0,-33940.0
32.7588623,35.02285,477.95,-0.07325,0.035,0.989,0.62,-0.26,0.12,24260.0,18340.0,-33940.0
32.7588623,35.02285,477.95,-0.0595,0.02675,0.9895,0.1,-0.7,0.22,24130.0,18480.0,-33950.0
32.7588623,35.02285,477.95,-0.0575,0.0345,0.98125,-0.16,-0.6,0.18,24030.0,18680.0,-33950.0
32.7588622,35.0228499,477.95,-0.06325,0.05275,0.99,0.78,-0.06,0.2,24020.0,18850.0,-33930.0
32.7588622,35.0228499,477.95,-0.0615,0.045,0.9995,0.7,0.54,0.16,23990.0,18850.0,-33930.0
32.7588622,35.0228499,477.95,-0.0655,0.028,0.99525,-0.16,0.76,0.18,23990.0,18750.0,-33940.0
32.7588622,35.0228499,477.95,-0.0725,0.043,0.997,0.14,0.38,0.16,24000.0,18740.0,-33940.0
32.7588622,35.0228499,477.95,-0.0685,0.063,1.00375,1.2,-0.12,0.08,23990.0,18730.0,-33940.0
32.7588622,35.0228499,477.95,-0.0565,0.05,0.99625,0.36,-0.58,0.1,23970.0,18740.0,-33940.0
32.7588622,35.0228499,477.95,-0.0585,0.03675,0.98925,-0.68,-0.64,0.04,23990.0,18720.0,-33950.0
32.7588622,35.0228499,477.95,-0.06775,0.04925,1.00475,0.24,-0.2,-0.04,23940.0,18780.0,-33950.0
32.7588622,35.0228499,477.95,-0.0665,0.05525,1.01875,1.02,0.42,-0.12,23920.0,18860.0,-33950.0
32.7588622,35.0228499,477.95,-0.068,0.046,1.00375,0.28,0.6,-0.2,23960.0,18930.0,-33930.0
32.7588622,35.0228499,477.95,-0.079,0.04925,0.9905,-0.26,0.42,-0.06,24000.0,18970.0,-33930.0
32.7588622,35.0228499,477.95,-0.0815,0.0545,1.00275,0.4,-0.08,-0.08,24030.0,18910.0,-33930.0
32.7588622,35.0228499,477.95,-0.0705,0.044,1.00975,0.24,-0.56,-0.1,24010.0,18830.0,-33930.0
32.7588622,35.0228499,477.95,-0.0655,0.04375,0.99875,-0.4,-0.66,-0.08,23980.0,18790.0,-33940.0
32.7588622,35.0228499,477.95,-0.07175,0.0595,0.99425,-0.12,-0.46,-0.04,23980.0,18810.0,-33940.0
32.7588622,35.0228499,477.95,-0.07675,0.0545,1.00375,0.3,0.1,-0.02,24000.0,18820.0,-33940.0
32.7588622,35.0228499,477.95,-0.07875,0.03475,1.00375,-0.28,0.5,-0.04,24030.0,18870.0,-33930.0
32.7588622,35.0228499,477.95,-0.08575,0.0425,0.9995,-0.2,0.48,-0.06,24010.0,18870.0,-33930.0
32.7588622,35.0228499,477.95,-0.087,0.06325,1.0045,0.62,-0.04,0.0,24030.0,18820.0,-33930.0
32.7588622,35.0228499,477.95,-0.07625,0.06,0.99925,0.5,-0.38,0.02,24060.0,18790.0,-33930.0
32.7588622,35.0228499,477.95,-0.06875,0.04375,0.98625,-0.6,-0.48,0.0,24070.0,18930.0,-33920.0
32.7588622,35.0228499,477.95,-0.07175,0.04725,0.98925,-0.3,-0.3,0.1,24100.0,18980.0,-33910.0
32.7588622,35.0228499,477.95,-0.07375,0.06,1.00875,0.68,0.18,0.04,24080.0,19010.0,-33910.0
32.7588622,35.0228499,477.95,-0.07325,0.05525,0.9995,0.42,0.64,0.04,24040.0,18900.0,-33920.0
32.7588622,35.0228499,477.95,-0.077,0.0515,0.981,-0.44,0.68,0.06,24020.0,18800.0,-33930.0
32.7588622,35.0228499,477.95,-0.0815,0.061,0.98825,-0.04,0.28,0.04,24010.0,18760.0,-33940.0
32.7588622,35.0228499,477.95,-0.07275,0.056,0.98675,0.26,-0.16,0.06,23970.0,18790.0,-33940.0
32.7588622,35.0228499,477.95,-0.06575,0.032,0.9705,0.48,-1.06,0.06,23980.0,18740.0,-33940.0
32.7588622,35.0228499,477.95,-0.052,0.058,1.0335,-0.16,-0.74,0.0,23980.0,18730.0,-33940.0
32.7588622,35.0228499,477.95,-0.06375,0.0625,1.0095,-0.4,-0.2,-0.06,23960.0,18820.0,-33940.0
32.7588622,35.0228499,477.95,-0.0585,0.041,0.96825,-0.1,0.64,-0.06,23950.0,18830.0,-33940.0
32.7588622,35.0228499,477.95,-0.0665,0.03025,0.9845,-0.44,1.16,-0.08,23950.0,18730.0,-33940.0
32.7588622,35.0228499,477.95,-0.0725,0.04925,1.00925,0.12,0.92,-0.1,23930.0,18710.0,-33950.0
32.7588622,35.0228499,477.95,-0.072,0.05825,1.00275,0.32,0.36,-0.12,24010.0,18650.0,-33940.0
32.7588622,35.0228499,477.95,-0.05975,0.03675,0.974,-0.14,-0.44,-0.08,24010.0,18650.0,-33940.0
32.7588622,35.0228499,477.95,-0.06075,0.03,0.97375,-0.42,-0.7,-0.12,23970.0,18660.0,-33950.0
32.7588622,35.0228499,477.95,-0.0635,0.0455,1.01325,0.08,-0.44,-0.08,24000.0,18710.0,-33940.0
32.7588622,35.0228499,477.95,-0.06175,0.042,1.01125,0.38,0.4,-0.16,24000.0,18780.0,-33930.0
32.7588622,35.0228499,477.95,-0.066,0.029,0.986,-0.08,1.1,-0.16,23980.0,18790.0,-33940.0
32.7588622,35.0228499,477.95,-0.07725,0.03675,0.9885,-0.04,1.24,-0.08,24010.0,18770.0,-33930.0
32.7588622,35.0228498,477.96,-0.08025,0.04275,1.005,0.48,0.94,-0.16,24060.0,18860.0,-33920.0
32.7588622,35.0228498,477.96,-0.0725,0.033,1.00175,0.46,0.38,-0.18,24050.0,18830.0,-33920.0
32.7588622,35.0228498,477.96,-0.0675,0.03175,0.98825,0.16,-0.06,-0.12,23920.0,18810.0,-33940.0
32.7588622,35.0228498,477.96,-0.0745,0.047,0.99225,0.46,-0.1,-0.12,23910.0,18760.0,-33950.0
32.7588622,35.0228498,477.96,-0.075,0.0425,1.00375,0.58,0.52,-0.14,23920.0,18740.0,-33950.0
32.7588622,35.0228498,477.96,-0.076,0.025,0.9985,0.12,1.02,-0.04,23880.0,18760.0,-33960.0
32.7588622,35.0228498,477.96,-0.08175,0.0375,0.997,0.18,1.0,-0.08,23860.0,18790.0,-33960.0
32.7588622,35.0228498,477.96,-0.0835,0.05975,1.00325,1.0,0.62,-0.14,23830.0,18850.0,-33960.0
32.7588622,35.0228498,477.96,-0.07525,0.0515,0.99325,0.88,0.22,-0.16,23800.0,18890.0,-33960.0
32.7588622,35.0228498,477.96,-0.07,0.034,0.98175,-0.18,-0.04,-0.12,23800.0,18890.0,-33960.0
32.7588622,35.0228498,477.96,-0.07475,0.04525,0.995,-0.02,-0.06,-0.08,23850.0,18880.0,-33950.0
32.7588622,35.0228498,477.96,-0.0735,0.05825,1.01125,0.98,0.44,-0.14,23830.0,18820.0,-33960.0
32.7588622,35.0228498,477.96,-0.072,0.051,1.0015,0.78,0.8,-0.22,23870.0,18740.0,-33960.0
32.7588622,35.0228498,477.96,-0.07675,0.04625,0.9845,0.16,0.9,-0.26,23890.0,18700.0,-33960.0
32.7588622,35.0228498,477.96,-0.07925,0.0555,0.98975,0.3,0.7,-0.26,23900.0,18740.0,-33960.0
32.7588622,35.0228498,477.96,-0.0705,0.05375,1.00225,0.68,0.34,-0.24,23930.0,18770.0,-33950.0
32.7588622,35.0228498,477.96,-0.0605,0.04225,0.995,0.32,-0.02,-0.26,23920.0,18830.0,-33950.0
32.7588622,35.0228498,477.96,-0.0625,0.0535,0.987,0.18,-0.24,-0.22,23870.0,18820.0,-33950.0
32.7588622,35.0228498,477.96,-0.068,0.063,0.99525,0.54,0.26,-0.26,23850.0,18840.0,-33960.0
32.7588622,35.0228498,477.96,-0.06625,0.04275,0.997,0.4,0.74,-0.26,23850.0,18860.0,-33950.0
32.7588622,35.0228498,477.96,-0.06875,0.03225,0.99375,0.02,0.98,-0.24,23830.0,19010.0,-33950.0
32.7588622,35.0228498,477.96,-0.0745,0.059,1.00175,0.6,0.84,-0.2,23870.0,19020.0,-33940.0
32.7588622,35.0228498,477.96,-0.068,0.06825,1.00175,1.26,0.72,-0.34,23870.0,18930.0,-33950.0
32.7588622,35.0228498,477.96,-0.065,0.0445,0.98375,0.34,0.38,-0.36,23880.0,18870.0,-33960.0
32.7588622,35.0228498,477.96,-0.0665,0.03725,0.9735,-0.36,0.36,-0.16,23810.0,18850.0,-33960.0
32.7588622,35.0228498,477.96,-0.0735,0.05775,1.0005,0.28,0.42,-0.28,23790.0,18820.0,-33970.0
32.7588622,35.0228498,477.96,-0.069,0.0575,1.0105,0.76,0.68,-0.18,23810.0,18830.0,-33970.0
32.7588622,35.0228498,477.96,-0.07425,0.04025,0.99225,0.06,0.76,-0.26,23840.0,18830.0,-33960.0
32.7588622,35.0228498,477.96,-0.084,0.04725,0.98175,-0.08,0.78,-0.16,23830.0,18850.0,-33970.0
32.7588622,35.0228498,477.96,-0.08225,0.056,0.99775,0.44,0.54,-0.2,23840.0,18930.0,-33960.0
32.7588622,35.0228498,477.96,-0.07125,0.043,1.00125,0.32,0.18,-0.14,23800.0,19080.0,-33960.0
32.7588622,35.0228498,477.96,-0.06925,0.0415,0.99125,-0.18,-0.18,-0.12,23780.0,18990.0,-33960.0
32.7588622,35.0228498,477.96,-0.07625,0.05925,0.99175,0.12,-0.14,-0.16,23830.0,18880.0,-33970.0
32.7588622,35.0228498,477.96,-0.0765,0.05,0.998,0.22,0.22,-0.18,23840.0,18830.0,-33970.0
32.7588622,35.0228498,477.96,-0.0775,0.0265,0.9975,-0.52,0.54,-0.02,23830.0,18820.0,-33970.0
32.7588622,35.0228498,477.96,-0.0835,0.0395,1.00175,-0.36,0.36,0.0,23850.0,18900.0,-33970.0
32.7588622,35.0228498,477.96,-0.08425,0.064,1.0075,0.5,-0.04,-0.04,23890.0,18970.0,-33950.0
32.7588622,35.0228498,477.96,-0.07275,0.0505,0.991,0.26,-0.34,-0.04,23930.0,18890.0,-33960.0
32.7588622,35.0228498,477.96,-0.068,0.0275,0.97775,-0.76,-0.46,0.04,23930.0,18850.0,-33960.0
32.7588621,35.0228499,477.96,-0.073,0.04025,0.9965,-0.48,-0.34,0.02,23890.0,18920.0,-33960.0
32.7588621,35.0228499,477.96,-0.073,0.05375,1.01775,0.52,0.02,0.0,23910.0,19030.0,-33950.0
32.7588621,35.0228499,477.96,-0.07225,0.042,0.999,0.2,0.3,-0.08,23920.0,18940.0,-33950.0
32.7588621,35.0228499,477.96,-0.07775,0.03625,0.98025,-0.46,0.36,-0.04,23880.0,18900.0,-33960.0
32.7588621,35.0228499,477.96,-0.083,0.0485,0.99325,0.0,0.12,-0.08,23860.0,18860.0,-33970.0
32.7588621,35.0228499,477.96,-0.07225,0.04475,1.00525,0.34,-0.2,-0.02,23840.0,18860.0,-33970.0
32.7588621,35.0228499,477.96,-0.063,0.0355,0.99375,-0.12,-0.46,-0.06,23820.0,18860.0,-33970.0
32.7588621,35.0228499,477.96,-0.06625,0.05075,0.98625,0.04,-0.38,-0.02,23830.0,18840.0,-33970.0
32.7588621,35.0228499,477.96,-0.072,0.05975,0.99475,0.5,0.22,-0.02,23860.0,18820.0,-33970.0
32.7588621,35.0228499,477.96,-0.071,0.03875,0.9935,-0.06,0.62,-0.06,23870.0,18850.0,-33970.0
32.7588621,35.0228499,477.96,-0.076,0.03225,0.98975,-0.34,0.56,-0.02,23870.0,18890.0,-33970.0
32.7588621,35.0228499,477.96,-0.0805,0.05975,0.99925,0.36,0.26,-0.1,23870.0,18950.0,-33960.0
32.7588621,35.0228499,477.96,-0.0725,0.0695,0.99675,0.92,-0.18,-0.04,23830.0,18900.0,-33970.0
32.7588621,35.0228499,477.96,-0.06325,0.045,0.98025,-0.02,-0.24,-0.14,23830.0,18890.0,-33970.0
32.7588621,35.0228499,477.96,-0.06675,0.04025,0.97675,-0.56,-0.1,-0.04,23860.0,18890.0,-33970.0
32.7588621,35.0228499,477.96,-0.0735,0.0605,1.00925,0.28,0.14,-0.14,23880.0,18910.0,-33970.0
32.7588621,35.0228499,477.96,-0.07075,0.0615,1.011,0.68,0.64,-0.16,23820.0,18980.0,-33970.0
32.7588621,35.0228499,477.96,-0.075,0.0465,0.98775,-0.06,0.66,-0.14,23810.0,19000.0,-33960.0
32.7588621,35.0228499,477.96,-0.084,0.052,0.98275,-0.24,0.52,-0.1,23850.0,18920.0,-33970.0
32.7588621,35.0228499,477.96,-0.0815,0.05825,1.002,0.3,0.2,-0.12,23870.0,18810.0,-33970.0
32.7588622,35.0228499,477.96,-0.0685,0.04475,1.00475,0.12,-0.08,-0.16,23960.0,18660.0,-33980.0
32.7588622,35.0228499,477.96,-0.06825,0.042,0.99125,-0.32,-0.32,-0.1,24020.0,18670.0,-33970.0
32.7588622,35.0228499,477.96,-0.07575,0.05925,0.995,0.12,0.02,-0.08,23990.0,18660.0,-33980.0
32.7588622,35.0228499,477.96,-0.0765,0.05275,1.00175,0.38,0.64,-0.16,23970.0,18510.0,-33990.0
32.7588622,35.0228499,477.96,-0.077,0.0285,0.999,-0.3,0.9,-0.16,24000.0,18450.0,-33990.0
32.7588622,35.0228499,477.96,-0.0815,0.039,1.0005,-0.18,0.58,-0.22,23950.0,18440.0,-34000.0
32.7588622,35.0228499,477.96,-0.07925,0.0645,1.00875,1.0,0.36,-0.22,23880.0,18610.0,-33990.0
32.7588622,35.0228499,477.96,-0.0695,0.05225,0.99125,0.74,0.1,-0.28,23800.0,18720.0,-33990.0
32.7588622,35.0228499,477.96,-0.0705,0.02875,0.96675,-0.86,-0.26,-0.24,23780.0,18780.0,-33980.0
32.7588622,35.0228499,477.96,-0.07575,0.042,0.987,-0.88,-0.06,-0.1,23760.0,18820.0,-33980.0
32.7588622,35.0228499,477.96,-0.07675,0.056,1.02275,0.46,0.12,-0.22,23780.0,18880.0,-33980.0
32.7588622,35.0228499,477.96,-0.07375,0.0435,1.00525,0.52,0.36,-0.18,23780.0,18980.0,-33970.0
32.7588622,35.0228499,477.96,-0.07725,0.03725,0.978,-0.06,0.36,-0.18,23720.0,18960.0,-33970.0
32.7588622,35.0228499,477.96,-0.08475,0.0515,0.98175,0.08,0.32,-0.24,23720.0,18900.0,-33980.0
32.7588622,35.0228499,477.96,-0.0735,0.04875,1.00075,0.4,0.04,-0.12,23720.0,18910.0,-33980.0
32.7588622,35.0228499,477.96,-0.06425,0.035,0.997,-0.06,-0.28,-0.1,23720.0,18900.0,-33990.0
32.7588622,35.0228499,477.96,-0.0675,0.0495,0.98875,-0.06,-0.46,0.0,23760.0,18910.0,-33980.0
32.7588622,35.0228499,477.96,-0.07225,0.06075,0.992,0.46,-0.04,-0.16,23770.0,18870.0,-33980.0
32.7588622,35.0228499,477.96,-0.07225,0.039,0.993,0.08,0.48,-0.08,23750.0,18840.0,-33980.0
32.7588622,35.0228499,477.96,-0.075,0.029,0.996,-0.52,0.58,-0.12,23770.0,18810.0,-33980.0
32.7588622,35.0228499,477.96,-0.081,0.05875,1.007,0.2,0.24,-0.02,23830.0,18800.0,-33970.0
32.7588622,35.0228499,477.96,-0.073,0.073,1.0035,0.92,-0.12,-0.1,23880.0,18950.0,-33950.0
32.7588622,35.0228499,477.96,-0.06425,0.047,0.98175,-0.14,-0.42,-0.14,23910.0,19020.0,-33940.0
32.7588622,35.0228499,477.96,-0.0685,0.036,0.97925,-0.88,-0.3,0.0,23930.0,19080.0,-33940.0
32.7588622,35.0228499,477.96,-0.07575,0.0565,1.0115,0.0,0.06,-0.04,23910.0,18990.0,-33950.0
32.7588622,35.0228499,477.96,-0.07425,0.05975,1.01825,0.62,0.5,-0.1,23880.0,18880.0,-33960.0
32.7588622,35.0228499,477.96,-0.0755,0.0435,0.9895,-0.06,0.56,-0.08,23880.0,18810.0,-33970.0
32.7588622,35.0228499,477.96,-0.08225,0.04925,0.9785,-0.36,0.36,-0.06,23810.0,18900.0,-33970.0
32.7588622,35.0228499,477.96,-0.0815,0.05925,1.0,0.22,0.0,0.04,23770.0,18860.0,-33970.0
32.7588622,35.0228499,477.96,-0.0695,0.04425,1.004,0.02,-0.38,-0.02,23820.0,18800.0,-33970.0
32.7588622,35.0228499,477.96,-0.069,0.039,0.9885,-0.42,-0.4,0.06,23850.0,18810.0,-33970.0
32.7588622,35.0228499,477.96,-0.07775,0.06025,0.9895,0.04,-0.16,-0.02,23890.0,18840.0,-33960.0
32.7588622,35.0228499,477.96,-0.0795,0.061,0.997,0.36,0.44,-0.06,23840.0,18780.0,-33970.0
32.7588622,35.0228499,477.96,-0.07975,0.035,0.99225,-0.44,0.64,-0.04,23820.0,18810.0,-33970.0
32.7588622,35.0228499,477.96,-0.085,0.036,0.9895,-0.58,0.22,0.02,23810.0,18770.0,-33970.0
32.7588622,35.0228499,477.96,-0.08525,0.0635,1.00075,0.42,-0.2,0.02,23850.0,18780.0,-33970.0
32.7588622,35.0228499,477.96,-0.072,0.059,0.99325,0.5,-0.62,0.04,23830.0,18800.0,-33970.0
32.7588622,35.0228499,477.96,-0.0655,0.03425,0.97525,-0.88,-0.58,0.04,23830.0,18890.0,-33960.0
32.7588622,35.0228499,477.96,-0.0725,0.04275,0.98725,-0.66,-0.34,0.12,23880.0,18890.0,-33960.0
32.7588622,35.0228499,477.96,-0.0755,0.062,1.015,0.42,0.18,0.04,23870.0,18830.0,-33960.0
32.7588621,35.0228499,477.95,-0.073,0.049,1.0015,0.18,0.36,-0.02,23880.0,18820.0,-33960.0
32.7588621,35.0228499,477.95,-0.0795,0.03825,0.97775,-0.62,0.18,0.06,23910.0,18920.0,-33950.0
32.7588621,35.0228499,477.95,-0.08425,0.054,0.99175,-0.24,-0.14,0.06,23870.0,18930.0,-33960.0
32.7588621,35.0228499,477.95,-0.075,0.0555,1.00925,0.22,-0.46,-0.02,23860.0,18910.0,-33960.0
32.7588621,35.0228499,477.95,-0.0635,0.03725,0.99725,-0.44,-0.72,0.02,23850.0,18830.0,-33970.0
32.7588621,35.0228499,477.95,-0.06525,0.04575,0.98475,-0.54,-0.68,0.06,23840.0,18830.0,-33970.0
32.7588621,35.0228499,477.95,-0.06975,0.06,0.999,0.18,-0.26,0.08,23840.0,18800.0,-33970.0
32.7588621,35.0228499,477.95,-0.07075,0.04125,1.0045,-0.22,0.22,0.02,23820.0,18800.0,-33970.0
32.7588621,35.0228499,477.95,-0.0755,0.0255,0.99575,-0.78,0.26,0.06,23820.0,18810.0,-33970.0
32.7588621,35.0228499,477.95,-0.08225,0.0475,0.99725,-0.16,-0.16,0.12,23810.0,18820.0,-33970.0
32.7588621,35.0228499,477.95,-0.077,0.06175,1.00125,0.44,-0.54,0.08,23850.0,18830.0,-33970.0
32.7588621,35.0228499,477.95,-0.067,0.03875,0.98325,-0.3,-0.86,0.14,23850.0,18860.0,-33960.0
32.7588621,35.0228499,477.95,-0.06675,0.028,0.97325,-1.2,-0.88,0.2,23810.0,18880.0,-33970.0
32.7588621,35.0228499,477.95,-0.07325,0.0445,0.99875,-0.38,-0.74,0.22,23820.0,18840.0,-33970.0
32.7588621,35.0228499,477.95,-0.07175,0.053,1.017,0.34,-0.42,0.14,23820.0,18830.0,-33970.0
32.7588621,35.0228499,477.95,-0.0725,0.0455,0.9985,-0.22,-0.16,0.18,23810.0,18850.0,-33970.0
32.7588621,35.0228499,477.95,-0.07775,0.053,0.98125,-0.7,-0.18,0.24,23830.0,18940.0,-33960.0
32.7588621,35.0228499,477.95,-0.0815,0.06225,0.9955,-0.42,-0.42,0.3,23840.0,18940.0,-33960.0
32.7588621,35.0228499,477.95,-0.07125,0.04775,1.003,-0.46,-0.78,0.32,23810.0,18920.0,-33960.0
32.7588621,35.0228499,477.95,-0.06675,0.039,0.99075,-0.98,-1.14,0.38,23840.0,18850.0,-33960.0
32.7588621,35.0228499,477.95,-0.07425,0.055,0.991,-0.54,-1.14,0.44,23880.0,18890.0,-33960.0
32.7588622,35.0228499,477.94,-0.07775,0.056,0.9985,-0.2,-0.62,0.28,23870.0,19070.0,-33940.0
32.7588622,35.0228499,477.94,-0.075,0.03425,0.99475,-0.86,-0.22,0.38,23850.0,19060.0,-33940.0
32.7588622,35.0228499,477.94,-0.07875,0.03475,0.99075,-1.18,-0.5,0.42,23860.0,18910.0,-33950.0
32.7588622,35.0228499,477.94,-0.0825,0.06475,1.00425,-0.24,-0.86,0.42,23880.0,18880.0,-33950.0
32.7588622,35.0228499,477.94,-0.07175,0.0645,1.0065,0.02,-1.32,0.3,23850.0,18850.0,-33960.0
32.7588622,35.0228499,477.94,-0.06325,0.04375,0.9905,-0.96,-1.54,0.44,23860.0,18800.0,-33960.0
32.7588622,35.0228499,477.94,-0.06825,0.048,0.98525,-1.44,-1.26,0.42,23840.0,18830.0,-33960.0
32.7588622,35.0228499,477.94,-0.0705,0.06025,1.00575,-0.46,-0.74,0.32,23850.0,18810.0,-33950.0
32.7588622,35.0228499,477.94,-0.06725,0.0475,1.01125,0.02,-0.24,0.2,23880.0,18800.0,-33950.0
32.7588622,35.0228499,477.94,-0.07575,0.03675,0.99,-0.76,-0.02,0.3,23880.0,18880.0,-33950.0
32.7588622,35.0228499,477.94,-0.0835,0.0505,0.9845,-0.68,0.02,0.28,23910.0,18990.0,-33930.0
32.7588622,35.0228499,477.94,-0.07425,0.0535,0.99875,-0.02,-0.3,0.24,23950.0,18900.0,-33940.0
32.7588622,35.0228499,477.94,-0.063,0.041,0.999,-0.34,-0.82,0.24,23950.0,18810.0,-33940.0
32.7588622,35.0228499,477.94,-0.06475,0.05,0.993,-0.82,-1.18,0.3,23880.0,18820.0,-33950.0
32.7588622,35.0228499,477.94,-0.06625,0.0615,0.99575,-0.32,-0.72,0.2,23870.0,18770.0,-33950.0
32.7588622,35.0228499,477.94,-0.06375,0.03875,0.99975,-0.3,-0.16,0.14,23930.0,18770.0,-33940.0
32.7588622,35.0228499,477.94,-0.0705,0.02925,1.0025,-0.78,0.32,0.18,23950.0,18900.0,-33930.0
32.7588622,35.0228499,477.94,-0.081,0.0515,1.00475,-0.24,0.44,0.12,23920.0,18870.0,-33940.0
32.7588622,35.0228499,477.94,-0.07675,0.06175,0.9985,0.54,0.36,0.04,23910.0,18840.0,-33940.0
32.7588622,35.0228499,477.93,-0.0695,0.0405,0.98525,-0.18,-0.1,0.02,23870.0,18900.0,-33940.0
32.7588622,35.0228499,477.93,-0.072,0.03225,0.98225,-1.16,-0.46,0.06,23910.0,18990.0,-33930.0
32.7588622,35.0228499,477.93,-0.07575,0.04925,0.99975,-0.26,-0.46,0.18,23910.0,18930.0,-33930.0
32.7588622,35.0228499,477.93,-0.06925,0.05175,1.00975,0.26,-0.18,-0.06,23870.0,18860.0,-33940.0
32.7588622,35.0228499,477.93,-0.0705,0.0405,0.99475,-0.38,0.12,-0.02,23880.0,18870.0,-33940.0
32.7588622,35.0228499,477.93,-0.07925,0.04225,0.9825,-0.74,0.34,0.08,23880.0,18820.0,-33940.0
32.7588622,35.0228499,477.93,-0.08025,0.04425,0.99225,-0.08,0.26,-0.04,23890.0,18770.0,-33950.0
32.7588622,35.0228499,477.93,-0.06725,0.0325,1.003,0.06,-0.24,0.0,23920.0,18730.0,-33950.0
32.7588622,35.0228499,477.93,-0.067,0.03625,0.992,-0.52,-0.66,0.0,23920.0,18730.0,-33940.0
32.7588622,35.0228499,477.93,-0.07375,0.0525,0.98525,-0.08,-0.56,0.1,23870.0,18760.0,-33950.0
32.7588622,35.0228499,477.93,-0.071,0.046,0.993,0.06,-0.12,0.02,23840.0,18790.0,-33950.0
32.7588622,35.0228499,477.93,-0.069,0.026,0.99825,-0.5,0.28,-0.04,23870.0,18810.0,-33940.0
32.7588622,35.0228499,477.93,-0.073,0.03275,0.9935,-0.42,0.32,0.02,23870.0,18760.0,-33950.0
32.7588622,35.0228499,477.93,-0.07575,0.05425,0.9965,0.68,0.1,-0.02,23820.0,18810.0,-33950.0
32.7588622,35.0228499,477.93,-0.0635,0.04675,0.9925,0.48,-0.12,0.0,23800.0,18750.0,-33950.0
32.7588622,35.0228499,477.93,-0.065,0.02975,0.98175,-0.88,-0.36,0.0,23850.0,18750.0,-33950.0
32.7588622,35.0228499,477.93,-0.0715,0.04075,0.99425,-0.5,-0.36,0.04,23900.0,18830.0,-33940.0
32.7588622,35.0228499,477.93,-0.07075,0.05575,1.01275,0.7,0.04,0.04,23920.0,18820.0,-33930.0
32.7588622,35.0228499,477.93,-0.06575,0.0455,1.00025,0.08,0.28,0.08,23900.0,18780.0,-33940.0
32.7588622,35.0228499,477.93,-0.0735,0.04175,0.9835,-0.76,0.24,0.06,23880.0,18790.0,-33940.0
32.7588622,35.0228499,477.93,-0.07775,0.053,0.997,-0.16,0.18,0.06,23890.0,18780.0,-33940.0
32.7588623,35.0228499,477.94,-0.06775,0.0495,1.0105,0.38,-0.14,0.06,23940.0,18860.0,-33930.0
32.7588623,35.0228499,477.94,-0.06,0.0395,1.002,-0.5,-0.44,0.02,23880.0,18830.0,-33940.0
32.7588623,35.0228499,477.94,-0.067,0.04975,0.9875,-0.54,-0.48,0.02,23890.0,18800.0,-33940.0
32.7588623,35.0228499,477.94,-0.07275,0.05475,0.9945,0.2,0.08,0.04,23900.0,18760.0,-33940.0
32.7588623,35.0228499,477.94,-0.07025,0.03475,1.00225,-0.14,0.44,-0.04,23830.0,18760.0,-33950.0
32.7588623,35.0228499,477.94,-0.076,0.03075,0.99825,-0.58,0.5,0.0,23880.0,18590.0,-33950.0
32.7588623,35.0228499,477.94,-0.08125,0.05525,0.99875,0.22,0.28,-0.08,23950.0,18410.0,-33960.0
32.7588623,35.0228499,477.94,-0.0725,0.05925,0.996,0.64,-0.18,-0.04,24000.0,18380.0,-33960.0
32.7588623,35.0228499,477.94,-0.0645,0.0325,0.9835,-0.5,-0.5,-0.02,24090.0,18340.0,-33950.0
32.7588623,35.0228499,477.94,-0.06825,0.02925,0.983,-0.78,-0.44,-0.04,24130.0,18340.0,-33950.0
32.7588623,35.0228499,477.94,-0.075,0.04575,1.0025,0.52,-0.06,-0.06,24080.0,18370.0,-33950.0
32.7588623,35.0228499,477.94,-0.07075,0.047,1.004,0.7,0.34,-0.12,23980.0,18410.0,-33960.0
32.7588623,35.0228499,477.94,-0.074,0.0415,0.9825,-0.32,0.68,0.0,23900.0,18520.0,-33960.0
32.7588623,35.0228499,477.94,-0.08125,0.04625,0.98275,-0.42,0.42,0.06,23890.0,18630.0,-33950.0
32.7588623,35.0228499,477.94,-0.076,0.0455,1.002,0.3,-0.08,-0.04,23900.0,18600.0,-33950.0
32.7588623,35.0228499,477.94,-0.06175,0.0395,1.003,0.0,-0.62,0.04,23910.0,18660.0,-33950.0
32.7588623,35.0228499,477.94,-0.061,0.05225,0.988,-0.42,-0.76,0.1,23880.0,18790.0,-33940.0
32.7588623,35.0228499,477.94,-0.06675,0.06375,0.99225,-0.06,-0.36,0.08,23850.0,18770.0,-33940.0
32.7588623,35.0228499,477.94,-0.06725,0.047,1.00225,-0.18,0.3,0.04,23900.0,18700.0,-33940.0
32.7588623,35.0228499,477.94,-0.07175,0.03025,1.0015,-0.68,0.7,0.06,23920.0,18690.0,-33940.0
32.7588623,35.0228499,477.94,-0.08,0.04525,1.001,-0.3,0.5,0.08,23950.0,18900.0,-33920.0
32.7588623,35.0228499,477.94,-0.0775,0.06025,1.00425,0.5,0.0,-0.04,23950.0,18980.0,-33910.0
32.7588623,35.0228499,477.94,-0.067,0.048,0.99825,-0.24,-0.48,0.0,23950.0,18990.0,-33910.0
32.7588623,35.0228499,477.94,-0.06625,0.04075,0.99225,-1.24,-0.56,0.02,23930.0,18900.0,-33930.0
32.7588623,35.0228499,477.94,-0.07025,0.0545,1.01025,-0.3,-0.38,0.0,23920.0,18850.0,-33930.0
32.7588623,35.0228499,477.94,-0.066,0.0615,1.02525,0.2,0.18,-0.14,23910.0,18780.0,-33940.0
32.7588623,35.0228499,477.94,-0.0705,0.056,1.01025,-0.58,0.54,-0.06,23890.0,18830.0,-33930.0
32.7588623,35.0228499,477.94,-0.08375,0.06375,1.0,-0.96,0.52,0.0,23930.0,18800.0,-33930.0
32.7588623,35.0228499,477.94,-0.08725,0.07225,1.01475,-0.24,0.4,-0.08,23980.0,18800.0,-33930.0
32.7588623,35.0228499,477.94,-0.0765,0.0635,1.02175,-0.48,-0.2,-0.16,23930.0,18930.0,-33930.0
32.7588623,35.0228499,477.94,-0.07025,0.056,1.0035,-1.28,-0.56,-0.1,23830.0,18980.0,-33930.0
32.7588623,35.0228499,477.94,-0.081,0.06025,0.98775,-1.12,-0.54,-0.1,23800.0,18910.0,-33940.0
32.7588623,35.0228499,477.94,-0.07675,0.05475,1.0095,-0.6,-0.24,-0.08,23810.0,18880.0,-33940.0
32.7588623,35.0228499,477.94,-0.0795,0.0365,1.0135,-1.28,0.32,-0.08,23870.0,18800.0,-33940.0
32.7588623,35.0228499,477.94,-0.08375,0.0435,0.994,-1.14,0.4,-0.08,23870.0,18810.0,-33940.0
32.7588623,35.0228499,477.94,-0.08475,0.05575,1.00275,-0.08,0.2,-0.18,23840.0,18880.0,-33940.0
32.7588623,35.0228499,477.94,-0.07575,0.04775,0.99125,-0.32,-0.32,-0.08,23850.0,18880.0,-33940.0
32.7588623,35.0228499,477.94,-0.07275,0.035,0.9815,-1.26,-0.56,0.04,23930.0,18880.0,-33930.0
32.7588623,35.0228499,477.94,-0.07825,0.038,0.98625,-0.94,-0.54,-0.06,23920.0,18890.0,-33930.0
32.7588623,35.0228499,477.94,-0.0775,0.0445,1.00175,0.06,-0.18,-0.06,23890.0,18960.0,-33930.0
32.7588622,35.0228499,477.94,-0.07525,0.041,0.9985,-0.36,0.12,-0.02,23890.0,19080.0,-33920.0
32.7588622,35.0228499,477.94,-0.0795,0.04175,0.97275,-1.06,0.2,0.08,23890.0,18980.0,-33920.0
32.7588622,35.0228499,477.94,-0.0815,0.041,0.978,-0.4,-0.14,0.06,23870.0,18930.0,-33930.0
32.7588622,35.0228499,477.94,-0.07325,0.03275,0.99525,-0.24,-0.68,0.08,23870.0,18900.0,-33930.0
32.7588622,35.0228499,477.94,-0.0645,0.03275,0.9875,-0.66,-0.92,0.16,23850.0,18920.0,-33940.0
32.7588622,35.0228499,477.94,-0.0655,0.04575,0.973,-0.58,-0.9,0.1,23860.0,18910.0,-33930.0
32.7588622,35.0228499,477.94,-0.0685,0.04275,0.9805,-0.2,-0.44,0.06,23910.0,18900.0,-33930.0
32.7588622,35.0228499,477.94,-0.0675,0.01925,0.98725,-0.86,-0.02,0.04,23940.0,18880.0,-33930.0
32.7588622,35.0228499,477.94,-0.07125,0.01475,0.98525,-1.04,0.08,0.08,23850.0,18960.0,-33930.0
32.7588622,35.0228499,477.94,-0.07475,0.03325,0.988,-0.08,-0.22,0.04,23830.0,19000.0,-33930.0
32.7588622,35.0228499,477.94,-0.0645,0.0375,0.99025,0.2,-0.7,-0.04,23890.0,18970.0,-33920.0
32.7588622,35.0228499,477.94,-0.054,0.01675,0.97925,-0.94,-1.0,-0.02,23900.0,18950.0,-33920.0
32.7588622,35.0228499,477.94,-0.05575,0.00975,0.97725,-1.1,-0.98,-0.06,23920.0,18890.0,-33920.0
32.7588622,35.0228499,477.94,-0.0575,0.019,1.00075,0.18,-0.5,-0.08,23900.0,18890.0,-33930.0
32.7588622,35.0228499,477.94,-0.055,0.0185,1.0065,0.36,-0.06,-0.16,23850.0,18900.0,-33930.0
32.7588622,35.0228499,477.94,-0.06075,0.01325,0.98475,-0.42,0.34,-0.12,23850.0,18960.0,-33920.0
32.7588622,35.0228499,477.94,-0.068,0.0215,0.984,-0.12,0.12,-0.12,23870.0,19010.0,-33920.0
32.7588622,35.0228499,477.94,-0.06425,0.02525,1.0035,0.58,-0.18,-0.08,23850.0,19010.0,-33920.0
32.7588622,35.0228499,477.94,-0.05325,0.01325,0.998,0.06,-0.54,-0.08,23840.0,18950.0,-33920.0
32.7588622,35.0228499,477.94,-0.0495,0.01875,0.98125,-0.24,-0.68,-0.08,23850.0,18950.0,-33920.0
32.7588622,35.0228499,477.94,-0.05425,0.0375,0.99375,0.66,-0.3,-0.02,23860.0,19090.0,-33910.0
32.7588622,35.0228499,477.94,-0.0585,0.0345,1.00275,0.62,0.4,0.04,23860.0,19040.0,-33910.0
32.7588622,35.0228499,477.94,-0.06325,0.01975,0.99325,-0.24,0.88,0.06,23850.0,18980.0,-33920.0
32.7588622,35.0228499,477.94,-0.07125,0.03575,0.99275,0.22,0.74,0.02,23830.0,18930.0,-33920.0
32.7588622,35.0228499,477.94,-0.072,0.0585,1.0015,1.12,0.2,0.1,23830.0,18880.0,-33930.0
32.7588622,35.0228499,477.94,-0.06325,0.05025,0.99175,0.48,-0.34,0.04,23830.0,18870.0,-33930.0
32.7588622,35.0228499,477.94,-0.06025,0.03925,0.97825,-0.58,-0.44,0.1,23830.0,18860.0,-33930.0
32.7588622,35.0228499,477.94,-0.06775,0.05325,0.99575,0.2,-0.04,0.06,23820.0,18870.0,-33930.0
32.7588622,35.0228499,477.94,-0.06975,0.066,1.0135,0.94,0.4,0.08,23860.0,18840.0,-33930.0
32.7588622,35.0228499,477.94,-0.072,0.05625,0.994,0.12,0.84,0.1,23900.0,18860.0,-33920.0
32.7588622,35.0228499,477.94,-0.08275,0.05325,0.97925,-0.44,0.66,0.08,23870.0,19000.0,-33920.0
32.7588622,35.0228499,477.94,-0.08675,0.0625,0.998,0.28,0.2,0.04,23810.0,18930.0,-33930.0
32.7588622,35.0228499,477.94,-0.07575,0.057,1.0075,0.52,-0.32,0.02,23790.0,18900.0,-33930.0
32.7588622,35.0228499,477.94,-0.0675,0.04975,0.9895,-0.28,-0.62,0.0,23800.0,18850.0,-33940.0
32.7588622,35.0228499,477.94,-0.07075,0.06225,0.98625,-0.08,-0.48,-0.02,23840.0,18800.0,-33930.0
32.7588622,35.0228499,477.94,-0.074,0.065,1.00175,0.36,0.06,-0.02,23870.0,18860.0,-33930.0
32.7588622,35.0228499,477.94,-0.07525,0.042,1.0005,-0.34,0.62,-0.08,23800.0,18900.0,-33930.0
32.7588622,35.0228499,477.94,-0.08175,0.03775,0.99275,-0.6,0.56,-0.08,23800.0,18840.0,-33930.0
32.7588622,35.0228499,477.94,-0.0845,0.06075,1.0015,0.36,0.14,0.02,23840.0,18810.0,-33930.0
32.7588622,35.0228499,477.94,-0.07425,0.06375,1.00175,0.58,-0.44,-0.1,23870.0,18840.0,-33920.0
32.7588622,35.0228499,477.95,-0.065,0.03875,0.986,-0.76,-0.7,-0.04,23920.0,18910.0,-33910.0
32.7588622,35.0228499,477.95,-0.0645,0.0335,0.985,-0.92,-0.6,0.02,23880.0,18890.0,-33920.0
32.7588622,35.0228499,477.95,-0.06775,0.049,1.0105,0.36,-0.16,0.02,23840.0,18820.0,-33930.0
32.7588622,35.0228499,477.95,-0.0665,0.04225,1.00925,0.34,0.36,0.0,23890.0,18740.0,-33930.0
32.7588622,35.0228499,477.95,-0.07175,0.032,0.984,-0.74,0.6,0.08,23890.0,18710.0,-33930.0
32.7588622,35.0228499,477.95,-0.0795,0.03975,0.99075,-0.32,0.3,0.08,23880.0,18720.0,-33930.0
32.7588622,35.0228499,477.95,-0.075,0.0405,1.00625,0.36,-0.16,-0.02,23850.0,18700.0,-33930.0
32.7588622,35.0228499,477.95,-0.0585,0.0235,0.9965,-0.24,-0.64,0.02,23830.0,18710.0,-33940.0
32.7588622,35.0228499,477.95,-0.0565,0.028,0.98375,-0.56,-0.76,0.06,23800.0,18730.0,-33940.0
32.7588622,35.0228499,477.95,-0.062,0.04575,0.99575,0.2,-0.3,0.02,23860.0,18760.0,-33930.0
32.7588622,35.0228499,477.95,-0.06175,0.03275,1.00225,0.18,0.34,0.04,23860.0,18760.0,-33930.0
32.7588622,35.0228499,477.95,-0.0665,0.01425,0.9935,-0.66,0.72,0.02,23810.0,18790.0,-33930.0
32.7588622,35.0228499,477.95,-0.07575,0.031,0.9945,0.04,0.52,0.04,23750.0,18820.0,-33940.0
32.7588622,35.0228499,477.95,-0.07325,0.054,1.001,0.94,0.0,0.02,23810.0,18770.0,-33930.0
32.7588622,35.0228499,477.95,-0.06275,0.0365,0.987,-0.04,-0.44,0.0,23860.0,18780.0,-33930.0
32.7588622,35.0228499,477.95,-0.06125,0.01925,0.97775,-0.94,-0.6,-0.04,23830.0,18840.0,-33930.0
32.7588622,35.0228499,477.95,-0.0665,0.037,1.0015,0.06,-0.3,-0.04,23840.0,18910.0,-33920.0
32.7588622,35.0228499,477.95,-0.06675,0.04925,1.01475,0.92,0.38,-0.04,23830.0,18850.0,-33930.0
32.7588622,35.0228499,477.95,-0.06825,0.03475,0.99125,-0.1,0.68,-0.02,23800.0,18810.0,-33930.0
32.7588622,35.0228499,477.95,-0.077,0.03175,0.97775,-0.7,0.58,-0.02,23830.0,18820.0,-33930.0
32.7588622,35.0228499,477.95,-0.08175,0.0445,1.00025,0.3,0.16,-0.02,23870.0,18950.0,-33920.0
32.7588622,35.0228499,477.95,-0.071,0.0375,1.00825,0.52,-0.4,-0.02,23820.0,18940.0,-33920.0
32.7588622,35.0228499,477.95,-0.06375,0.03025,0.98875,-0.34,-0.6,-0.06,23820.0,18920.0,-33930.0
32.7588622,35.0228499,477.95,-0.06925,0.04825,0.9885,0.0,-0.36,0.04,23850.0,18900.0,-33930.0
32.7588622,35.0228499,477.95,-0.073,0.0535,1.00275,0.58,0.26,0.02,23800.0,18930.0,-33930.0
32.7588622,35.0228499,477.95,-0.072,0.02975,0.99825,-0.2,0.64,-0.04,23740.0,18930.0,-33940.0
32.7588622,35.0228499,477.95,-0.07725,0.0295,0.99325,-0.4,0.5,0.04,23760.0,18890.0,-33940.0
32.7588622,35.0228499,477.95,-0.082,0.05975,1.0035,0.68,0.02,0.04,23760.0,18910.0,-33940.0
32.7588622,35.0228499,477.95,-0.0715,0.06325,0.9995,0.68,-0.38,0.04,23760.0,18880.0,-33940.0
32.7588622,35.0228499,477.95,-0.064,0.03875,0.98375,-0.58,-0.58,0.04,23800.0,18910.0,-33930.0
32.7588622,35.0228499,477.95,-0.068,0.03975,0.9905,-0.6,-0.38,0.06,23770.0,18960.0,-33940.0
32.7588622,35.0228499,477.95,-0.0715,0.06025,1.012,0.72,0.06,0.02,23800.0,18830.0,-33940.0
32.7588622,35.0228499,477.95,-0.06875,0.05625,1.004,0.5,0.42,-0.04,23910.0,18640.0,-33940.0
32.7588622,35.0228499,477.95,-0.07425,0.044,0.9815,-0.72,0.52,0.06,23960.0,18580.0,-33940.0
32.7588622,35.0228499,477.95,-0.079,0.0505,0.98975,-0.34,0.14,0.06,23970.0,18470.0,-33950.0
32.7588622,35.0228499,477.95,-0.07375,0.0555,1.01,0.52,-0.28,-0.04,24000.0,18490.0,-33950.0
32.7588622,35.0228499,477.95,-0.06025,0.0425,0.99825,-0.02,-0.66,-0.06,24070.0,18470.0,-33940.0
32.7588622,35.0228499,477.95,-0.059,0.04275,0.9785,-0.58,-0.58,0.02,24090.0,18380.0,-33950.0
32.7588622,35.0228499,477.95,-0.06725,0.0565,0.9955,0.16,-0.16,0.0,24050.0,18480.0,-33940.0
32.7588622,35.0228499,477.95,-0.0685,0.04475,1.0045,0.12,0.48,-0.02,23980.0,18690.0,-33940.0
32.7588622,35.0228499,477.95,-0.07,0.025,0.99225,-0.58,0.68,-0.04,23940.0,18950.0,-33920.0
32.7588622,35.0228499,477.95,-0.07725,0.03975,0.994,-0.16,0.3,-0.04,23930.0,19080.0,-33910.0
32.7588622,35.0228499,477.95,-0.075,0.0595,1.00175,0.68,-0.18,-0.06,23950.0,19130.0,-33900.0
32.7588622,35.0228499,477.95,-0.06225,0.03875,0.98825,-0.2,-0.58,0.02,23910.0,19210.0,-33900.0
32.7588622,35.0228499,477.95,-0.06025,0.02025,0.98025,-0.98,-0.58,0.04,23950.0,19240.0,-33890.0
32.7588622,35.0228499,477.95,-0.0665,0.03725,1.00125,0.02,-0.16,-0.02,23990.0,19210.0,-33890.0
32.7588622,35.0228499,477.95,-0.0665,0.04975,1.014,0.82,0.36,-0.08,23970.0,19240.0,-33890.0
32.7588622,35.0228499,477.95,-0.0695,0.0335,0.9895,-0.26,0.68,-0.04,23990.0,19220.0,-33890.0
32.7588622,35.0228499,477.95,-0.079,0.02725,0.97975,-0.72,0.5,0.1,23980.0,19270.0,-33890.0
32.7588622,35.0228499,477.95,-0.08175,0.0385,1.00225,0.24,0.02,0.06,23940.0,19290.0,-33890.0
32.7588622,35.0228499,477.95,-0.0695,0.03575,1.00925,0.46,-0.46,0.0,23940.0,19290.0,-33890.0
32.7588622,35.0228499,477.95,-0.05975,0.0285,0.988,-0.28,-0.66,0.06,23960.0,19310.0,-33890.0
32.7588622,35.0228499,477.95,-0.0645,0.041,0.98525,-0.2,-0.42,0.08,23920.0,19310.0,-33890.0
32.7588622,35.0228499,477.95,-0.0695,0.0445,1.004,0.42,0.22,0.06,23920.0,19290.0,-33890.0
32.7588622,35.0228499,477.95,-0.07025,0.0235,1.00325,-0.18,0.66,0.02,23950.0,19250.0,-33890.0
32.7588622,35.0228499,477.95,-0.07575,0.02325,0.9925,-0.36,0.64,0.04,23960.0,19230.0,-33890.0
32.7588622,35.0228499,477.95,-0.08125,0.05225,0.99925,0.64,0.1,0.04,23960.0,19220.0,-33890.0
32.7588622,35.0228499,477.95,-0.07175,0.058,0.99825,0.66,-0.4,-0.04,23900.0,19190.0,-33900.0
32.7588622,35.0228499,477.95,-0.06275,0.02925,0.9825,-0.64,-0.6,-0.02,23900.0,19210.0,-33900.0
32.7588622,35.0228499,477.95,-0.065,0.0275,0.98825,-0.62,-0.42,0.0,23920.0,19230.0,-33900.0
32.7588622,35.0228499,477.95,-0.069,0.0525,1.0125,0.72,0.02,-0.02,23930.0,19200.0,-33890.0
32.7588622,35.0228499,477.95,-0.06675,0.05325,1.00425,0.68,0.44,-0.02,23910.0,19200.0,-33890.0
32.7588622,35.0228499,477.95,-0.07325,0.037,0.97825,-0.62,0.6,0.04,23890.0,19210.0,-33890.0
32.7588622,35.0228499,477.95,-0.08175,0.0425,0.98675,-0.42,0.24,-0.04,23920.0,19180.0,-33890.0
32.7588622,35.0228499,477.95,-0.077,0.04875,1.0105,0.68,-0.2,-0.02,23960.0,19170.0,-33890.0
32.7588622,35.0228499,477.95,-0.061,0.037,0.99875,0.1,-0.62,-0.02,23970.0,19160.0,-33890.0
32.7588622,35.0228499,477.95,-0.0595,0.04175,0.98075,-0.5,-0.7,0.02,23950.0,19020.0,-33900.0
32.7588622,35.0228499,477.95,-0.06575,0.05875,0.99375,0.2,-0.16,0.04,23920.0,18900.0,-33910.0
32.7588622,35.0228499,477.95,-0.0665,0.04475,1.00325,0.2,0.42,0.0,23860.0,18830.0,-33920.0
32.7588622,35.0228499,477.95,-0.06925,0.02375,0.99525,-0.54,0.72,0.0,23850.0,18860.0,-33920.0
32.7588622,35.0228499,477.95,-0.078,0.04325,0.9955,-0.02,0.48,-0.04,23850.0,18860.0,-33920.0
32.7588622,35.0228499,477.95,-0.07675,0.06875,1.00325,0.88,-0.04,0.0,23840.0,18830.0,-33920.0
32.7588622,35.0228499,477.95,-0.06525,0.04925,0.9875,0.06,-0.46,-0.02,23850.0,18770.0,-33930.0
32.7588622,35.0228499,477.95,-0.0625,0.0275,0.979,-1.06,-0.52,0.06,23870.0,18730.0,-33930.0
32.7588622,35.0228499,477.95,-0.069,0.04475,1.004,-0.04,-0.26,0.0,23870.0,18770.0,-33930.0
32.7588622,35.0228499,477.95,-0.06675,0.0585,1.01525,0.92,0.32,-0.06,23910.0,18790.0,-33920.0
32.7588622,35.0228499,477.95,-0.06825,0.045,0.99025,-0.1,0.62,0.0,23900.0,18770.0,-33920.0
32.7588622,35.0228499,477.95,-0.07875,0.0395,0.979,-0.94,0.52,0.04,23850.0,18760.0,-33930.0
32.7588622,35.0228499,477.95,-0.08375,0.04775,1.00275,0.04,0.1,0.04,23860.0,18730.0,-33930.0
32.7588622,35.0228499,477.95,-0.07025,0.03975,1.0095,0.34,-0.38,0.02,23890.0,18740.0,-33920.0
32.7588622,35.0228499,477.95,-0.0615,0.03275,0.9885,-0.42,-0.56,-0.02,23910.0,18880.0,-33910.0
32.7588622,35.0228499,477.95,-0.06525,0.048,0.986,-0.16,-0.48,-0.02,23830.0,18900.0,-33920.0
32.7588622,35.0228499,477.95,-0.0695,0.05075,1.00175,0.32,0.04,0.06,23790.0,18850.0,-33920.0
32.7588622,35.0228499,477.95,-0.07025,0.02475,1.0,-0.3,0.58,0.02,23800.0,18870.0,-33930.0
32.7588622,35.0228499,477.95,-0.07675,0.02025,0.99375,-0.52,0.6,0.06,23820.0,18790.0,-33930.0
32.7588622,35.0228499,477.95,-0.082,0.05125,1.0025,0.58,0.14,0.0,23840.0,18790.0,-33930.0
32.7588622,35.0228499,477.95,-0.07125,0.055,0.99725,0.66,-0.38,-0.04,23800.0,18800.0,-33930.0
32.7588622,35.0228499,477.95,-0.06175,0.02575,0.9795,-0.76,-0.62,0.02,23780.0,18770.0,-33940.0
32.7588622,35.0228499,477.95,-0.0645,0.0235,0.988,-0.72,-0.5,-0.02,23840.0,18730.0,-33930.0
32.7588622,35.0228499,477.95,-0.06775,0.047,1.015,0.72,-0.04,-0.06,23860.0,18810.0,-33920.0
32.7588622,35.0228499,477.95,-0.06425,0.045,1.006,0.6,0.4,-0.12,23820.0,18940.0,-33920.0
32.7588622,35.0228499,477.95,-0.07225,0.03225,0.97825,-0.72,0.54,0.0,23800.0,18870.0,-33920.0
32.7588622,35.0228499,477.95,-0.08075,0.03975,0.98875,-0.34,0.32,0.06,23840.0,18780.0,-33930.0
32.7588622,35.0228499,477.95,-0.07575,0.0435,1.00925,0.46,-0.16,-0.02,23840.0,18770.0,-33930.0
32.7588622,35.0228499,477.95,-0.06075,0.03,0.9985,0.04,-0.56,-0.04,23820.0,18750.0,-33940.0
32.7588622,35.0228499,477.95,-0.05925,0.03675,0.98225,-0.44,-0.72,0.04,23830.0,18830.0,-33930.0
32.7588622,35.0228499,477.95,-0.0645,0.05525,0.9955,0.32,-0.26,0.0,23830.0,18910.0,-33920.0
32.7588622,35.0228499,477.95,-0.066,0.042,1.00275,0.22,0.44,-0.12,23870.0,18850.0,-33920.0
32.7588622,35.0228499,477.95,-0.0695,0.01975,0.99475,-0.58,0.76,0.02,23890.0,18820.0,-33920.0
32.7588622,35.0228499,477.94,-0.07775,0.03875,0.996,0.06,0.5,0.04,23840.0,18920.0,-33930.0
32.7588622,35.0228499,477.94,-0.07575,0.06575,1.00325,1.08,-0.08,-0.04,23830.0,19040.0,-33920.0
32.7588622,35.0228499,477.94,-0.0645,0.04775,0.988,0.06,-0.5,-0.08,23840.0,18950.0,-33920.0
32.7588622,35.0228499,477.94,-0.062,0.0275,0.9785,-1.0,-0.62,0.04,23810.0,18900.0,-33930.0
32.7588622,35.0228499,477.94,-0.06925,0.04275,1.003,0.0,-0.26,0.12,23860.0,18840.0,-33930.0
32.7588622,35.0228499,477.94,-0.06825,0.0565,1.01675,0.86,0.36,0.04,23850.0,18800.0,-33930.0
32.7588622,35.0228499,477.94,-0.06825,0.043,0.991,-0.1,0.68,0.0,23810.0,18820.0,-33940.0
32.7588622,35.0228499,477.94,-0.07775,0.04,0.97725,-0.74,0.52,0.06,23770.0,18850.0,-33940.0
32.7588622,35.0228499,477.94,-0.081,0.0515,1.0005,0.16,0.04,0.04,23820.0,18860.0,-33930.0
32.7588622,35.0228499,477.94,-0.06875,0.04275,1.00725,0.44,-0.42,0.0,23820.0,18870.0,-33940.0
32.7588622,35.0228499,477.94,-0.06225,0.03175,0.9875,-0.46,-0.6,-0.02,23790.0,18920.0,-33940.0
32.7588622,35.0228499,477.94,-0.0675,0.0495,0.9875,-0.16,-0.34,0.04,23790.0,18930.0,-33930.0
32.7588622,35.0228499,477.94,-0.07275,0.0575,1.0035,0.54,0.2,-0.02,23800.0,18890.0,-33940.0
32.7588622,35.0228499,477.94,-0.0725,0.032,0.99775,-0.2,0.6,-0.06,23830.0,18830.0,-33930.0
32.7588622,35.0228499,477.94,-0.076,0.026,0.99,-0.54,0.52,0.1,23860.0,18830.0,-33930.0
32.7588622,35.0228499,477.94,-0.0795,0.0545,1.002,0.52,0.02,0.0,23860.0,18880.0,-33930.0
32.7588622,35.0228499,477.94,-0.069,0.05875,0.9995,0.7,-0.54,-0.02,23880.0,18920.0,-33920.0
32.7588622,35.0228499,477.94,-0.06075,0.03325,0.982,-0.68,-0.66,-0.04,23920.0,18940.0,-33920.0
32.7588622,35.0228499,477.94,-0.06525,0.03,0.986,-0.84,-0.34,0.02,23880.0,18900.0,-33930.0
32.7588622,35.0228499,477.94,-0.07175,0.0505,1.01275,0.58,0.18,0.02,23850.0,18900.0,-33930.0
32.7588622,35.0228499,477.95,-0.06925,0.048,1.0065,0.6,0.56,-0.12,23880.0,18920.0,-33930.0
32.7588622,35.0228499,477.95,-0.07225,0.03325,0.9805,-0.72,0.58,0.02,23910.0,18990.0,-33920.0
32.7588622,35.0228499,477.95,-0.079,0.04125,0.9875,-0.4,0.14,0.0,23880.0,18940.0,-33920.0
32.7588622,35.0228499,477.95,-0.0725,0.04775,1.00875,0.58,-0.36,-0.02,23900.0,18860.0,-33930.0
32.7588622,35.0228499,477.95,-0.05875,0.032,0.9985,-0.04,-0.64,0.02,23900.0,18850.0,-33930.0
32.7588622,35.0228499,477.95,-0.061,0.03225,0.98275,-0.64,-0.5,-0.02,23870.0,18890.0,-33930.0
32.7588622,35.0228499,477.95,-0.07,0.05175,0.99675,0.2,0.0,0.02,23860.0,18880.0,-33930.0
32.7588622,35.0228499,477.95,-0.06925,0.04175,1.004,0.34,0.54,0.02,23860.0,18850.0,-33930.0
32.7588622,35.0228499,477.95,-0.071,0.019,0.993,-0.54,0.66,0.02,23860.0,18860.0,-33930.0
32.7588622,35.0228499,477.95,-0.07675,0.035,0.99475,-0.18,0.22,0.02,23860.0,18850.0,-33930.0
32.7588622,35.0228499,477.95,-0.07175,0.05925,1.00475,0.84,-0.38,-0.02,23880.0,18890.0,-33930.0
32.7588622,35.0228499,477.95,-0.06025,0.04125,0.99075,0.04,-0.6,0.02,23820.0,18930.0,-33930.0
32.7588622,35.0228499,477.95,-0.06075,0.02125,0.9815,-0.96,-0.5,0.02,23760.0,18910.0,-33940.0
32.7588622,35.0228499,477.95,-0.0705,0.04,1.00225,0.0,0.04,0.04,23770.0,18850.0,-33940.0
32.7588622,35.0228499,477.95,-0.071,0.053,1.01325,0.96,0.54,-0.08,23800.0,18880.0,-33940.0
32.7588622,35.0228499,477.95,-0.071,0.0385,0.99025,-0.04,0.72,0.06,23800.0,18870.0,-33940.0
32.7588622,35.0228499,477.95,-0.078,0.0355,0.979,-0.74,0.28,0.0,23850.0,18880.0,-33930.0
32.7588622,35.0228499,477.95,-0.079,0.0475,1.0015,0.26,-0.12,0.0,23890.0,18900.0,-33920.0
32.7588622,35.0228499,477.95,-0.0665,0.04025,1.00775,0.42,-0.6,0.0,23850.0,18870.0,-33930.0
32.7588622,35.0228499,477.95,-0.063,0.03125,0.9845,-0.36,-0.48,-0.02,23910.0,18700.0,-33940.0
32.7588622,35.0228499,477.95,-0.072,0.0415,0.97775,-0.14,-0.06,0.02,23970.0,18580.0,-33940.0
32.7588622,35.0228499,477.95,-0.08075,0.02625,0.9785,0.4,0.62,-0.06,24020.0,18640.0,-33930.0
32.7588622,35.0228499,477.95,-0.0765,0.00875,0.948,0.06,0.9,-0.1,24070.0,18650.0,-33920.0
32.7588622,35.0228499,477.95,-0.063,0.03475,0.98025,0.62,0.14,0.0,24100.0,18580.0,-33920.0
32.7588622,35.0228499,477.95,-0.06075,0.06475,1.036,1.16,-0.66,-0.02,24120.0,18450.0,-33930.0
32.7588622,35.0228499,477.95,-0.0405,0.042,0.974,0.16,-0.88,0.02,24160.0,18360.0,-33940.0
32.7588622,35.0228499,477.95,-0.03275,0.03025,0.9675,-0.04,-0.9,0.1,24080.0,18460.0,-33930.0
32.7588622,35.0228499,477.95,-0.05175,0.058,1.01025,0.7,-0.02,0.04,23940.0,18720.0,-33930.0
32.7588622,35.0228499,477.95,-0.062,0.0765,1.01825,0.82,1.12,0.08,23850.0,18740.0,-33930.0
32.7588622,35.0228499,477.95,-0.064,0.065,1.01425,-0.12,1.48,0.2,23860.0,18760.0,-33930.0
32.7588622,35.0228499,477.95,-0.07075,0.04375,0.9965,-0.98,0.88,0.22,23850.0,18840.0,-33930.0
32.7588622,35.0228499,477.95,-0.0795,0.04375,1.00425,-0.22,-0.12,0.24,23890.0,18880.0,-33920.0
32.7588622,35.0228499,477.95,-0.06375,0.04175,1.0225,0.26,-0.84,0.26,23880.0,18780.0,-33930.0
32.7588622,35.0228499,477.95,-0.055,0.03675,0.998,-0.42,-0.74,0.16,23880.0,18770.0,-33930.0
32.7588622,35.0228499,477.95,-0.065,0.04875,0.98075,-0.28,-0.04,0.1,23870.0,18720.0,-33930.0
32.7588622,35.0228499,477.95,-0.07375,0.047,1.007,0.2,0.96,-0.06,23910.0,18710.0,-33930.0
32.7588622,35.0228499,477.95,-0.0795,0.022,1.00225,-0.3,1.42,-0.1,23870.0,18750.0,-33930.0
32.7588622,35.0228499,477.95,-0.085,0.013,0.9825,-0.32,1.08,-0.08,23800.0,18890.0,-33930.0
32.7588622,35.0228499,477.95,-0.08875,0.0415,0.9945,0.88,0.14,-0.16,23820.0,18930.0,-33920.0
32.7588622,35.0228499,477.95,-0.079,0.06,1.0005,1.1,-0.46,-0.12,23880.0,18930.0,-33920.0
32.7588622,35.0228499,477.95,-0.06575,0.0445,0.98,-0.04,-0.62,-0.1,23870.0,18940.0,-33920.0
32.7588622,35.0228499,477.95,-0.06775,0.036,0.9735,-0.44,-0.12,-0.02,23850.0,19010.0,-33910.0
32.7588622,35.0228499,477.95,-0.07275,0.0435,0.99375,0.54,0.44,-0.06,23860.0,18950.0,-33920.0
32.7588622,35.0228499,477.95,-0.07475,0.043,1.009,0.64,1.06,-0.02,23840.0,18850.0,-33930.0
32.7588622,35.0228499,477.95,-0.083,0.04125,0.991,-0.3,1.0,0.02,23850.0,18810.0,-33930.0
32.7588622,35.0228499,477.95,-0.092,0.05325,0.98075,-0.14,0.52,0.08,23850.0,18820.0,-33930.0
32.7588622,35.0228499,477.95,-0.08625,0.06125,1.004,0.28,-0.18,0.08,23800.0,18840.0,-33940.0
32.7588622,35.0228499,477.95,-0.06925,0.03975,1.004,-0.4,-0.72,0.08,23810.0,18820.0,-33930.0
32.7588622,35.0228499,477.95,-0.06175,0.027,0.9845,-0.94,-0.66,0.12,23870.0,18810.0,-33930.0
32.7588622,35.0228499,477.95,-0.06775,0.04175,0.99425,0.0,-0.24,0.06,23860.0,18830.0,-33930.0
32.7588622,35.0228499,477.95,-0.07175,0.044,1.0135,0.54,0.56,0.06,23850.0,18870.0,-33930.0
32.7588622,35.0228499,477.95,-0.074,0.02625,1.002,-0.3,0.98,0.0,23830.0,18870.0,-33930.0
32.7588622,35.0228499,477.95,-0.0815,0.03,0.9915,-0.32,0.64,0.02,23800.0,18840.0,-33940.0
32.7588622,35.0228499,477.95,-0.07675,0.04775,0.99525,0.88,-0.26,-0.08,23820.0,18820.0,-33940.0
32.7588622,35.0228499,477.95,-0.062,0.03225,0.98725,0.66,-0.9,-0.02,23860.0,18800.0,-33930.0
32.7588622,35.0228499,477.95,-0.05425,0.01375,0.97375,-0.26,-0.92,-0.08,23840.0,18860.0,-33930.0
32.7588622,35.0228499,477.95,-0.0645,0.02825,0.97925,0.54,-0.3,0.0,23860.0,18910.0,-33930.0
32.7588622,35.0228499,477.95,-0.06625,0.0435,0.9945,1.68,0.46,-0.04,23920.0,18940.0,-33920.0
32.7588622,35.0228499,477.95,-0.06275,0.02475,0.97625,0.82,0.88,0.02,23900.0,18960.0,-33920.0
32.7588622,35.0228499,477.95,-0.0695,0.00725,0.9455,-0.06,0.52,0.1,23850.0,18920.0,-33930.0
32.7588622,35.0228499,477.95,-0.072,0.00725,0.9585,0.92,-0.26,0.1,23850.0,18940.0,-33930.0
32.7588622,35.0228499,477.95,-0.057,-0.00125,0.963,1.54,-0.78,0.18,23850.0,19070.0,-33920.0
32.7588622,35.0228499,477.95,-0.05075,-0.00675,0.9435,1.0,-0.74,0.22,23870.0,19050.0,-33920.0
32.7588622,35.0228499,477.95,-0.05575,0.00725,0.94275,0.92,-0.26,0.34,23890.0,18960.0,-33930.0
32.7588622,35.0228499,477.95,-0.065,0.01075,0.95125,1.46,0.52,0.24,23890.0,18960.0,-33930.0
32.7588622,35.0228499,477.95,-0.06325,-0.00375,0.95575,1.32,0.86,0.36,23890.0,18940.0,-33930.0
32.7588622,35.0228499,477.95,-0.066,0.00975,0.957,1.04,0.52,0.32,23910.0,18890.0,-33930.0
32.7588622,35.0228499,477.95,-0.07125,0.05075,0.97875,1.74,-0.06,0.28,23920.0,18860.0,-33930.0
32.7588622,35.0228499,477.95,-0.06125,0.0735,1.00575,1.96,-0.46,0.14,23960.0,18850.0,-33930.0
32.7588622,35.0228499,477.95,-0.053,0.0695,1.00275,0.56,-0.42,0.16,23960.0,18860.0,-33940.0
32.7588622,35.0228499,477.95,-0.0515,0.07625,1.014,0.12,-0.06,-0.04,23970.0,18950.0,-33930.0
32.7588622,35.0228499,477.95,-0.05825,0.1,1.04675,1.1,0.6,-0.12,23960.0,19070.0,-33920.0
32.7588622,35.0228499,477.95,-0.05825,0.10875,1.06475,0.98,0.88,-0.22,23940.0,18990.0,-33930.0
32.7588622,35.0228499,477.95,-0.069,0.11,1.051,-0.34,1.1,-0.22,23940.0,18900.0,-33940.0
32.7588622,35.0228499,477.95,-0.07825,0.112,1.05225,-0.56,0.9,-0.36,23930.0,18870.0,-33940.0
32.7588622,35.0228499,477.95,-0.07975,0.1015,1.07575,-0.22,0.54,-0.46,23950.0,18860.0,-33940.0
32.7588622,35.0228499,477.95,-0.06925,0.08775,1.076,-0.72,0.22,-0.44,23970.0,18930.0,-33940.0
32.7588622,35.0228499,477.95,-0.06875,0.0875,1.04975,-1.0,0.16,-0.46,23940.0,19000.0,-33930.0
32.7588622,35.0228499,477.95,-0.07675,0.08775,1.048,-0.4,0.46,-0.44,23970.0,18910.0,-33930.0
32.7588622,35.0228499,477.95,-0.08725,0.06975,1.0655,-0.54,1.1,-0.36,23970.0,18920.0,-33940.0
32.7588622,35.0228499,477.95,-0.09925,0.05475,1.05175,-1.14,1.5,-0.18,23930.0,19010.0,-33940.0
32.7588623,35.0228499,477.94,-0.1095,0.06375,1.02875,-0.54,1.32,-0.24,23960.0,19120.0,-33920.0
32.7588623,35.0228499,477.94,-0.10975,0.07125,1.02525,0.32,0.5,-0.16,23980.0,19050.0,-33920.0
32.7588623,35.0228499,477.94,-0.10325,0.0545,1.018,-0.5,-0.14,0.0,23930.0,18990.0,-33930.0
32.7588623,35.0228499,477.94,-0.10125,0.04425,1.00325,-1.12,-0.32,0.1,23920.0,18950.0,-33940.0
32.7588623,35.0228499,477.94,-0.10275,0.05675,1.00475,-0.08,-0.1,0.14,23920.0,18910.0,-33940.0
32.7588623,35.0228499,477.94,-0.10025,0.062,1.01225,0.52,0.36,0.3,23890.0,18900.0,-33950.0
32.7588623,35.0228499,477.94,-0.09825,0.05175,0.988,-0.64,0.72,0.4,23900.0,18840.0,-33940.0
32.7588623,35.0228499,477.94,-0.10525,0.0455,0.9645,-1.08,0.48,0.44,23920.0,18840.0,-33940.0
32.7588623,35.0228499,477.94,-0.10575,0.04725,0.97775,-0.08,-0.12,0.48,23920.0,18900.0,-33940.0
32.7588623,35.0228499,477.94,-0.0925,0.04375,0.986,-0.04,-0.48,0.44,23960.0,18910.0,-33940.0
32.7588623,35.0228499,477.94,-0.08025,0.0445,0.96125,-0.94,-0.72,0.42,23960.0,18880.0,-33930.0
32.7588623,35.0228499,477.94,-0.0745,0.04775,0.94525,-0.82,-0.78,0.36,23950.0,18900.0,-33930.0
32.7588623,35.0228499,477.94,-0.0695,0.03575,0.96125,-0.38,-0.52,0.28,23890.0,18900.0,-33940.0
32.7588623,35.0228499,477.94,-0.064,0.0145,0.9685,-0.98,-0.28,0.22,23910.0,18860.0,-33940.0
32.7588623,35.0228499,477.94,-0.0625,0.0215,0.9575,-1.0,-0.3,0.14,23950.0,18850.0,-33930.0
32.7588623,35.0228499,477.94,-0.05975,0.0395,0.959,-0.12,-0.62,0.08,23940.0,18900.0,-33930.0
32.7588623,35.0228499,477.94,-0.05075,0.02525,0.961,-0.32,-0.9,-0.12,23950.0,18960.0,-33920.0
32.7588623,35.0228499,477.94,-0.04425,0.00075,0.957,-1.4,-1.1,-0.18,23910.0,18970.0,-33920.0
32.7588623,35.0228499,477.94,-0.0435,-0.00225,0.9625,-0.9,-1.06,-0.22,23880.0,18900.0,-33930.0
32.7588623,35.0228499,477.94,-0.04575,0.012,0.97625,0.3,-0.74,-0.36,23890.0,18880.0,-33930.0
32.7588622,35.0228499,477.94,-0.0465,0.013,0.98175,0.16,-0.36,-0.36,23910.0,18960.0,-33920.0
32.7588622,35.0228499,477.94,-0.05275,0.00175,0.96425,-0.9,-0.02,-0.34,23850.0,18930.0,-33930.0
32.7588622,35.0228499,477.94,-0.0635,0.005,0.97075,-0.34,-0.2,-0.4,23810.0,18890.0,-33940.0
32.7588622,35.0228499,477.94,-0.06525,0.0055,0.99725,0.6,-0.42,-0.36,23840.0,18860.0,-33940.0
32.7588622,35.0228499,477.94,-0.058,0.005,0.98875,0.06,-0.62,-0.34,23820.0,18840.0,-33940.0
32.7588622,35.0228499,477.94,-0.05975,0.016,0.979,-0.02,-0.68,-0.24,23820.0,18830.0,-33940.0
32.7588622,35.0228499,477.94,-0.0675,0.029,0.99325,0.5,-0.44,-0.16,23830.0,18790.0,-33940.0
32.7588622,35.0228499,477.94,-0.06975,0.02075,1.011,0.62,0.1,-0.12,23790.0,18800.0,-33940.0
32.7588622,35.0228499,477.94,-0.07525,0.016,1.00975,0.14,0.44,-0.08,23780.0,18810.0,-33940.0
32.7588622,35.0228499,477.94,-0.08225,0.0345,1.0065,0.52,0.3,0.04,23830.0,18820.0,-33940.0
32.7588622,35.0228499,477.94,-0.081,0.05375,1.019,1.32,-0.02,0.12,23800.0,18880.0,-33940.0
32.7588622,35.0228499,477.94,-0.0705,0.04925,1.01925,0.72,-0.4,0.18,23740.0,18880.0,-33950.0
32.7588622,35.0228499,477.94,-0.06225,0.0425,1.00875,-0.08,-0.46,0.3,23760.0,18820.0,-33950.0
32.7588622,35.0228499,477.94,-0.06825,0.05475,1.02275,0.72,-0.18,0.24,23800.0,18790.0,-33950.0
32.7588622,35.0228499,477.94,-0.06325,0.0705,1.03975,1.4,0.12,0.36,23850.0,18740.0,-33940.0
32.7588622,35.0228499,477.94,-0.06125,0.0685,1.02025,0.54,0.6,0.34,23880.0,18840.0,-33930.0
32.7588622,35.0228499,477.94,-0.07175,0.07225,1.00675,0.08,0.58,0.26,23850.0,18830.0,-33940.0
32.7588622,35.0228499,477.94,-0.075,0.0795,1.0235,0.72,0.24,0.26,23840.0,18790.0,-33940.0
32.7588622,35.0228499,477.94,-0.06575,0.0785,1.03225,0.66,-0.08,0.3,23870.0,18700.0,-33950.0
32.7588622,35.0228499,477.94,-0.05825,0.07775,1.007,-0.1,-0.22,0.22,23900.0,18760.0,-33940.0
32.7588623,35.0228499,477.94,-0.0605,0.08525,0.993,0.04,-0.16,0.14,23910.0,18950.0,-33920.0
32.7588623,35.0228499,477.94,-0.0655,0.079,1.011,0.28,0.06,0.08,23940.0,19010.0,-33910.0
32.7588623,35.0228499,477.94,-0.071,0.06125,1.0095,-0.4,0.76,0.04,23970.0,18990.0,-33910.0
32.7588623,35.0228499,477.94,-0.07775,0.0585,0.99275,-0.54,0.84,-0.02,23910.0,18920.0,-33920.0
32.7588623,35.0228499,477.94,-0.08325,0.07175,0.988,0.22,0.48,-0.06,23900.0,18830.0,-33930.0
32.7588623,35.0228499,477.94,-0.07825,0.07,0.99,0.04,0.08,-0.18,23980.0,18620.0,-33940.0
32.7588623,35.0228499,477.94,-0.07275,0.04675,0.97525,-1.0,-0.28,-0.16,24010.0,18460.0,-33950.0
32.7588623,35.0228499,477.94,-0.07425,0.03725,0.9685,-0.86,-0.34,-0.18,24070.0,18360.0,-33950.0
32.7588623,35.0228499,477.94,-0.08075,0.04525,0.98875,0.26,0.1,-0.26,24080.0,18320.0,-33950.0
32.7588623,35.0228499,477.94,-0.079,0.04675,0.9925,-0.02,0.58,-0.24,24060.0,18370.0,-33950.0
32.7588623,35.0228499,477.94,-0.084,0.03675,0.96375,-0.88,0.86,-0.14,24080.0,18380.0,-33950.0
32.7588623,35.0228499,477.94,-0.08875,0.03225,0.96175,-0.64,0.3,-0.16,24050.0,18390.0,-33950.0
32.7588623,35.0228499,477.94,-0.08475,0.02875,0.989,0.02,-0.18,-0.18,23970.0,18600.0,-33940.0
32.7588623,35.0228499,477.94,-0.071,0.02375,0.9865,-0.36,-0.56,-0.08,23910.0,18690.0,-33940.0
32.7588623,35.0228499,477.94,-0.06625,0.02775,0.96825,-0.52,-0.66,-0.06,23900.0,18730.0,-33940.0
32.7588623,35.0228499,477.94,-0.0695,0.0325,0.9755,0.0,-0.28,-0.08,23870.0,18780.0,-33940.0
32.7588623,35.0228499,477.94,-0.06825,0.02075,0.99575,0.0,0.2,0.04,23890.0,18860.0,-33930.0
32.7588623,35.0228499,477.94,-0.0685,0.008,0.9965,-0.54,0.38,0.14,23900.0,18910.0,-33930.0
32.7588623,35.0228499,477.94,-0.07225,0.0205,0.9895,0.02,0.12,0.1,23880.0,18890.0,-33930.0
32.7588623,35.0228499,477.94,-0.07,0.03975,1.00025,0.86,-0.38,0.12,23890.0,18900.0,-33930.0
32.7588622,35.0228499,477.94,-0.05925,0.03475,1.003,0.24,-0.68,0.08,23910.0,19000.0,-33920.0
32.7588622,35.0228499,477.94,-0.05325,0.02175,0.99225,-0.68,-0.68,0.22,23880.0,18980.0,-33930.0
32.7588622,35.0228499,477.94,-0.0565,0.032,1.0,0.26,-0.4,0.14,23860.0,18940.0,-33930.0
32.7588622,35.0228499,477.94,-0.056,0.04075,1.017,0.96,0.12,0.08,23860.0,18860.0,-33940.0
32.7588622,35.0228499,477.94,-0.058,0.0385,1.004,0.26,0.46,0.1,23870.0,18900.0,-33940.0
32.7588622,35.0228499,477.94,-0.0685,0.0385,0.9915,-0.36,0.46,0.14,23840.0,18920.0,-33940.0
32.7588622,35.0228499,477.94,-0.07625,0.042,1.0015,0.32,0.2,0.06,23850.0,18930.0,-33940.0
32.7588622,35.0228499,477.94,-0.06775,0.038,1.014,0.64,-0.14,0.0,23900.0,18900.0,-33940.0
32.7588622,35.0228499,477.94,-0.05825,0.02875,0.99675,-0.06,-0.48,0.0,23870.0,18940.0,-33940.0
32.7588622,35.0228499,477.94,-0.05925,0.031,0.97675,-0.02,-0.36,-0.06,23880.0,18960.0,-33940.0
32.7588622,35.0228499,477.94,-0.0645,0.0395,0.99825,0.7,0.04,-0.08,23910.0,18950.0,-33930.0
32.7588622,35.0228499,477.94,-0.071,0.03625,1.0195,0.46,0.68,0.02,23900.0,18900.0,-33930.0
32.7588622,35.0228499,477.94,-0.07925,0.033,0.99925,-0.12,1.02,-0.02,23940.0,18830.0,-33930.0
32.7588622,35.0228499,477.94,-0.08775,0.0505,0.994,0.56,0.68,-0.1,23930.0,18860.0,-33940.0
32.7588622,35.0228499,477.94,-0.0815,0.06675,1.0055,1.1,0.0,-0.02,23890.0,18890.0,-33940.0
32.7588622,35.0228499,477.94,-0.07175,0.05525,0.99625,-0.02,-0.48,-0.06,23960.0,18920.0,-33930.0
32.7588622,35.0228499,477.94,-0.07625,0.04975,0.9865,-0.5,-0.36,-0.08,24010.0,18890.0,-33920.0
32.7588622,35.0228499,477.94,-0.0815,0.0635,1.00575,0.44,0.12,0.02,23980.0,18960.0,-33920.0
32.7588622,35.0228499,477.94,-0.0825,0.06325,1.0175,0.64,0.72,-0.02,23930.0,18920.0,-33930.0
32.7588622,35.0228499,477.94,-0.086,0.0505,0.993,-0.46,0.86,0.08,23920.0,18950.0,-33930.0
32.7588623,35.0228499,477.94,-0.08825,0.05275,0.98175,-0.32,0.36,0.14,23920.0,19130.0,-33920.0
32.7588623,35.0228499,477.94,-0.08925,0.0595,1.00125,0.48,-0.28,0.02,23900.0,19110.0,-33920.0
32.7588623,35.0228499,477.94,-0.07475,0.05075,0.99825,0.2,-0.72,-0.02,23920.0,19060.0,-33930.0
32.7588623,35.0228499,477.94,-0.06775,0.0475,0.98175,-0.48,-0.64,0.02,23900.0,19010.0,-33930.0
32.7588623,35.0228499,477.94,-0.07225,0.0565,0.9845,0.02,-0.3,-0.04,23920.0,18980.0,-33930.0
32.7588623,35.0228499,477.94,-0.07475,0.05125,0.998,0.56,0.28,0.04,23960.0,18910.0,-33930.0
32.7588623,35.0228499,477.94,-0.071,0.0385,0.994,-0.1,0.54,0.0,23940.0,18860.0,-33940.0
32.7588623,35.0228499,477.94,-0.072,0.046,0.97975,-0.16,0.08,0.04,23850.0,18900.0,-33940.0
32.7588623,35.0228499,477.94,-0.06975,0.06525,0.98975,0.76,-0.48,0.02,23880.0,18870.0,-33940.0
32.7588623,35.0228499,477.94,-0.05775,0.06,0.9925,0.38,-0.82,0.02,23930.0,18900.0,-33930.0
32.7588623,35.0228499,477.94,-0.04975,0.04225,0.97775,-0.72,-0.6,0.02,23990.0,19000.0,-33920.0
32.7588623,35.0228499,477.94,-0.05475,0.04575,0.9865,-0.24,-0.22,0.04,23990.0,18900.0,-33920.0
32.7588623,35.0228499,477.94,-0.06325,0.05925,1.0105,0.64,0.4,0.0,23960.0,18850.0,-33930.0
32.7588623,35.0228499,477.94,-0.062,0.058,1.00425,0.16,0.7,0.06,23960.0,18830.0,-33940.0
32.7588623,35.0228499,477.94,-0.065,0.04875,0.98375,-0.8,0.46,0.06,23950.0,18810.0,-33940.0
32.7588623,35.0228499,477.94,-0.06975,0.0495,0.994,-0.4,-0.06,0.0,23970.0,18840.0,-33930.0
32.7588623,35.0228499,477.94,-0.06375,0.04475,1.01325,0.06,-0.44,0.0,23920.0,18960.0,-33930.0
32.7588623,35.0228499,477.94,-0.0535,0.03275,1.0055,-0.46,-0.36,0.04,23910.0,18900.0,-33930.0
32.7588623,35.0228499,477.94,-0.0585,0.0365,0.98925,-0.56,-0.08,0.0,23920.0,18860.0,-33940.0
32.7588623,35.0228499,477.94,-0.0715,0.04725,1.004,0.08,0.38,-0.1,23910.0,18900.0,-33930.0
32.7588622,35.0228499,477.94,-0.0755,0.0315,1.01,-0.14,0.9,0.0,23940.0,19000.0,-33920.0
32.7588622,35.0228499,477.94,-0.07875,0.011,0.9935,-0.72,0.84,-0.1,23930.0,18930.0,-33930.0
32.7588622,35.0228499,477.94,-0.08375,0.027,0.995,0.02,0.14,-0.06,23900.0,18880.0,-33940.0
32.7588622,35.0228499,477.94,-0.0815,0.04625,1.00425,0.82,-0.28,-0.02,23900.0,18830.0,-33940.0
32.7588622,35.0228499,477.94,-0.07,0.029,0.9885,-0.14,-0.46,-0.06,23890.0,18780.0,-33940.0
32.7588622,35.0228499,477.94,-0.0725,0.0155,0.98025,-0.8,-0.18,-0.02,23860.0,18780.0,-33950.0
32.7588622,35.0228499,477.94,-0.08275,0.032,0.9995,0.32,0.22,-0.04,23860.0,18800.0,-33950.0
32.7588622,35.0228499,477.94,-0.08,0.04075,1.009,0.96,0.56,0.0,23880.0,18740.0,-33950.0
32.7588622,35.0228499,477.94,-0.08025,0.03175,0.9875,-0.04,0.5,0.04,23920.0,18740.0,-33940.0
32.7588622,35.0228499,477.94,-0.08725,0.03325,0.97475,-0.42,0.08,0.06,23870.0,18810.0,-33940.0
32.7588622,35.0228499,477.94,-0.085,0.04475,0.9965,0.6,-0.3,0.04,23850.0,18840.0,-33940.0
32.7588622,35.0228499,477.94,-0.07025,0.041,1.0055,0.58,-0.64,0.02,23840.0,18820.0,-33950.0
32.7588622,35.0228499,477.94,-0.0665,0.03825,0.98375,-0.32,-0.5,0.02,23870.0,18780.0,-33950.0
32.7588622,35.0228499,477.94,-0.072,0.0525,0.985,0.14,-0.14,0.1,23910.0,18750.0,-33940.0
32.7588622,35.0228499,477.94,-0.07425,0.05325,1.00425,0.52,0.24,0.08,23890.0,18780.0,-33940.0
32.7588622,35.0228499,477.94,-0.07275,0.03575,1.00025,-0.14,0.48,0.14,23880.0,18840.0,-33940.0
32.7588622,35.0228499,477.94,-0.07325,0.04075,0.99175,-0.24,0.18,-0.02,23930.0,18900.0,-33930.0
32.7588622,35.0228499,477.94,-0.07175,0.06575,1.0015,0.78,-0.36,0.0,23930.0,18830.0,-33930.0
32.7588622,35.0228499,477.94,-0.061,0.06125,0.9995,0.6,-0.6,-0.06,23900.0,18780.0,-33940.0
32.7588622,35.0228499,477.94,-0.05525,0.04,0.9875,-0.56,-0.54,0.04,23890.0,18840.0,-33940.0
32.7588622,35.0228499,477.94,-0.06175,0.0435,0.99325,-0.28,-0.08,0.0,23910.0,18930.0,-33930.0
32.7588622,35.0228499,477.94,-0.0675,0.0605,1.0135,0.88,0.34,-0.06,23880.0,18850.0,-33930.0
32.7588622,35.0228499,477.94,-0.066,0.0585,1.00275,0.4,0.64,-0.04,23930.0,18750.0,-33940.0
32.7588622,35.0228499,477.94,-0.07,0.04925,0.97825,-0.6,0.42,0.0,23950.0,18750.0,-33940.0
32.7588622,35.0228499,477.94,-0.07325,0.05225,0.98925,-0.1,0.0,0.0,23910.0,18780.0,-33940.0
32.7588622,35.0228499,477.94,-0.0675,0.0515,1.01125,0.58,-0.44,-0.04,23930.0,18790.0,-33940.0
32.7588622,35.0228499,477.94,-0.059,0.04475,0.99575,-0.06,-0.38,-0.04,23880.0,18790.0,-33940.0
32.7588622,35.0228499,477.94,-0.06275,0.05275,0.97775,-0.24,-0.12,0.06,23860.0,18840.0,-33940.0
32.7588622,35.0228499,477.94,-0.07225,0.05975,0.99525,0.3,0.36,0.02,23810.0,18810.0,-33950.0
32.7588622,35.0228499,477.94,-0.07525,0.0425,1.00125,-0.04,0.7,0.06,23830.0,18810.0,-33950.0
32.7588622,35.0228499,477.94,-0.077,0.03,0.99025,-0.52,0.66,0.06,23810.0,18840.0,-33950.0
32.7588622,35.0228499,477.94,-0.07975,0.052,0.9935,0.24,0.1,0.06,23790.0,18820.0,-33950.0
32.7588622,35.0228499,477.94,-0.0765,0.0635,1.0015,0.64,-0.34,0.06,23890.0,18750.0,-33940.0
32.7588622,35.0228499,477.94,-0.069,0.04225,0.98725,-0.36,-0.4,0.0,23910.0,18730.0,-33950.0
32.7588622,35.0228499,477.94,-0.06725,0.028,0.982,-0.84,-0.22,0.1,23910.0,18760.0,-33940.0
32.7588622,35.0228499,477.94,-0.0765,0.04525,1.005,0.34,0.16,0.04,23930.0,18880.0,-33930.0
32.7588622,35.0228499,477.94,-0.0775,0.0525,1.0095,0.68,0.5,0.0,23940.0,18960.0,-33930.0
32.7588622,35.0228499,477.94,-0.07625,0.041,0.9845,-0.32,0.6,0.02,23930.0,18930.0,-33930.0
32.7588622,35.0228499,477.94,-0.081,0.041,0.983,-0.66,0.06,-0.02,23950.0,18880.0,-33930.0
32.7588622,35.0228499,477.94,-0.08425,0.0495,1.00775,0.36,-0.28,0.0,23960.0,18910.0,-33930.0
32.7588622,35.0228499,477.94,-0.0695,0.0415,1.00875,0.22,-0.54,-0.02,24010.0,19010.0,-33910.0
32.7588622,35.0228499,477.94,-0.06075,0.03975,0.989,-0.4,-0.52,-0.04,24030.0,19050.0,-33910.0
32.7588622,35.0228499,477.94,-0.0675,0.05525,0.9905,-0.1,-0.26,-0.04,24050.0,19070.0,-33900.0
32.7588622,35.0228499,477.94,-0.071,0.05425,1.00475,0.26,0.26,-0.02,24010.0,19030.0,-33910.0
32.7588622,35.0228499,477.94,-0.07125,0.03125,1.002,-0.5,0.52,-0.1,23990.0,18920.0,-33920.0
32.7588622,35.0228499,477.94,-0.077,0.0285,0.9955,-0.5,0.28,0.0,23980.0,18880.0,-33930.0
32.7588622,35.0228499,477.94,-0.08225,0.05625,1.00375,0.58,-0.02,0.04,23950.0,18910.0,-33930.0
32.7588622,35.0228499,477.94,-0.073,0.0615,0.99925,0.5,-0.36,-0.12,23930.0,18870.0,-33940.0
32.7588622,35.0228499,477.94,-0.06375,0.03325,0.983,-0.8,-0.46,-0.02,23960.0,18860.0,-33940.0
32.7588622,35.0228499,477.94,-0.065,0.029,0.9885,-0.66,-0.4,-0.02,23960.0,18920.0,-33930.0
32.7588622,35.0228499,477.94,-0.07,0.051,1.013,0.64,0.1,-0.04,24010.0,18930.0,-33920.0
32.7588622,35.0228499,477.94,-0.065,0.0495,1.00225,0.54,0.4,0.0,24040.0,18740.0,-33930.0
32.7588622,35.0228499,477.94,-0.0705,0.03375,0.97825,-0.66,0.54,-0.02,24060.0,18590.0,-33950.0
32.7588622,35.0228499,477.94,-0.07975,0.041,0.98825,-0.38,0.2,0.02,24020.0,18530.0,-33960.0
32.7588622,35.0228499,477.94,-0.07625,0.05,1.00625,0.64,-0.06,0.02,24030.0,18480.0,-33960.0
32.7588622,35.0228499,477.94,-0.0635,0.036,0.99225,0.02,-0.42,0.06,24080.0,18420.0,-33960.0
32.7588622,35.0228499,477.94,-0.063,0.03675,0.976,-0.6,-0.42,-0.02,24150.0,18390.0,-33950.0
32.7588622,35.0228499,477.94,-0.07,0.0515,0.99275,0.18,-0.16,0.06,24180.0,18450.0,-33950.0
32.7588622,35.0228499,477.94,-0.0685,0.04425,1.00425,0.3,0.34,0.04,24080.0,18620.0,-33940.0
32.7588622,35.02285,477.94,-0.07,0.02325,0.99325,-0.52,0.56,0.06,24010.0,18760.0,-33940.0
32.7588622,35.02285,477.94,-0.0775,0.0375,0.99225,-0.12,0.32,0.06,24040.0,18980.0,-33920.0
32.7588622,35.02285,477.94,-0.07625,0.06225,1.003,0.84,-0.2,-0.02,24010.0,18960.0,-33930.0
32.7588622,35.02285,477.94,-0.067,0.04875,0.9905,0.16,-0.34,-0.02,23960.0,18900.0,-33940.0
32.7588622,35.02285,477.94,-0.06525,0.02625,0.98075,-0.9,-0.34,0.06,23980.0,18850.0,-33940.0
32.7588622,35.02285,477.94,-0.07275,0.03975,0.9995,-0.1,-0.12,-0.02,24020.0,18840.0,-33930.0
32.7588622,35.02285,477.94,-0.073,0.05725,1.01475,0.98,0.28,-0.08,23990.0,18870.0,-33940.0
32.7588622,35.02285,477.94,-0.071,0.04575,0.99325,0.1,0.56,0.02,23940.0,18900.0,-33940.0
32.7588622,35.02285,477.94,-0.07725,0.03725,0.97625,-0.78,0.32,0.02,23930.0,18900.0,-33940.0
32.7588622,35.02285,477.94,-0.08125,0.04675,1.0005,0.14,-0.1,0.0,23940.0,18930.0,-33940.0
32.7588622,35.02285,477.94,-0.06925,0.0445,1.01025,0.56,-0.44,0.02,23970.0,18980.0,-33930.0
32.7588622,35.02285,477.94,-0.061,0.033,0.9885,-0.24,-0.46,0.02,23990.0,18940.0,-33930.0
32.7588622,35.02285,477.94,-0.06675,0.0465,0.986,-0.22,-0.28,0.0,23930.0,18930.0,-33940.0
32.7588622,35.02285,477.94,-0.072,0.05675,1.00475,0.4,0.16,0.02,23940.0,18890.0,-33940.0
32.7588622,35.02285,477.94,-0.07075,0.032,1.00075,-0.04,0.48,0.0,23980.0,18850.0,-33940.0
32.7588622,35.02285,477.94,-0.07425,0.02375,0.99175,-0.58,0.42,-0.02,23990.0,18850.0,-33940.0
32.7588622,35.02285,477.94,-0.07825,0.055,1.00225,0.46,-0.08,0.0,24000.0,18930.0,-33930.0
32.7588622,35.02285,477.94,-0.0685,0.063,1.0015,0.8,-0.4,0.0,23970.0,18970.0,-33930.0
32.7588622,35.02285,477.94,-0.06075,0.0355,0.985,-0.54,-0.4,0.02,23950.0,18980.0,-33930.0
32.7588622,35.02285,477.94,-0.06675,0.0315,0.98775,-0.72,-0.26,0.0,23940.0,18890.0,-33940.0
32.7588622,35.0228499,477.94,-0.074,0.0545,1.01175,0.74,0.18,0.02,23960.0,18900.0,-33930.0
32.7588622,35.0228499,477.94,-0.07,0.056,1.00625,0.72,0.56,0.04,23950.0,19030.0,-33920.0
32.7588622,35.0228499,477.94,-0.075,0.0435,0.9795,-0.56,0.52,-0.06,23950.0,18980.0,-33930.0
32.7588622,35.0228499,477.94,-0.0825,0.05,0.98575,-0.38,0.16,-0.02,23990.0,18860.0,-33930.0
32.7588622,35.0228499,477.94,-0.07775,0.054,1.00875,0.54,-0.26,0.0,24010.0,18820.0,-33930.0
32.7588622,35.0228499,477.94,-0.06375,0.04025,1.0005,-0.02,-0.5,-0.08,24020.0,18770.0,-33940.0
32.7588622,35.0228499,477.94,-0.06325,0.04425,0.98075,-0.44,-0.44,-0.04,24010.0,18780.0,-33940.0
32.7588622,35.0228499,477.94,-0.0695,0.06225,0.99175,0.22,-0.06,-0.04,23970.0,18840.0,-33940.0
32.7588622,35.0228499,477.94,-0.071,0.05075,1.00075,0.16,0.42,-0.04,23910.0,18860.0,-33940.0
32.7588622,35.0228499,477.94,-0.07475,0.02775,0.992,-0.6,0.58,0.0,23910.0,18840.0,-33940.0
32.7588622,35.0228499,477.94,-0.08175,0.04175,0.99375,-0.18,0.26,0.02,23980.0,18920.0,-33930.0
32.7588622,35.0228499,477.94,-0.079,0.066,1.00325,0.82,-0.18,0.02,23990.0,18990.0,-33930.0
32.7588622,35.0228499,477.94,-0.0675,0.05075,0.99075,0.06,-0.48,0.0,23960.0,18880.0,-33930.0
32.7588622,35.0228499,477.94,-0.06225,0.02775,0.97925,-1.04,-0.56,0.04,23940.0,18810.0,-33940.0
32.7588622,35.0228499,477.94,-0.06775,0.04075,0.9985,-0.14,-0.26,0.0,23930.0,18800.0,-33950.0
32.7588622,35.0228499,477.94,-0.06775,0.056,1.01625,0.88,0.24,-0.02,23960.0,18740.0,-33950.0
32.7588622,35.0228499,477.94,-0.0685,0.04425,0.99275,-0.02,0.56,0.04,23970.0,18790.0,-33940.0
32.7588622,35.0228499,477.94,-0.07825,0.03975,0.97875,-0.82,0.48,0.06,23950.0,18870.0,-33940.0
32.7588622,35.0228499,477.94,-0.08675,0.052,1.00325,0.14,0.08,-0.02,23950.0,18840.0,-33940.0
32.7588622,35.0228499,477.94,-0.07475,0.0485,1.00775,0.4,-0.34,0.0,23990.0,18790.0,-33940.0
32.7588622,35.0228499,477.94,-0.0645,0.04,0.985,-0.38,-0.48,-0.04,23980.0,18840.0,-33940.0
32.7588622,35.02285,477.94,-0.06875,0.06575,0.98625,-0.1,-0.36,-0.08,24030.0,18950.0,-33930.0
32.7588622,35.02285,477.94,-0.07175,0.0715,1.0025,0.46,0.06,-0.04,24030.0,18910.0,-33930.0
32.7588622,35.02285,477.94,-0.0715,0.04075,0.99925,-0.54,0.46,-0.12,23990.0,18850.0,-33940.0
32.7588622,35.02285,477.94,-0.074,0.022,0.9865,-0.98,0.38,0.02,24030.0,18770.0,-33940.0
32.7588622,35.02285,477.94,-0.0805,0.05425,1.003,0.46,0.02,-0.08,24030.0,18760.0,-33940.0
32.7588622,35.02285,477.94,-0.06775,0.059,0.99975,0.8,-0.36,-0.1,23980.0,18780.0,-33950.0
32.7588622,35.02285,477.94,-0.06375,0.03325,0.97925,-0.88,-0.48,0.0,24010.0,18760.0,-33950.0
32.7588622,35.02285,477.94,-0.06775,0.02875,0.99025,-1.06,-0.46,-0.04,24080.0,18760.0,-33940.0
32.7588622,35.02285,477.94,-0.0705,0.04575,1.01175,0.38,0.12,-0.02,24080.0,18810.0,-33940.0
32.7588622,35.02285,477.94,-0.06325,0.0375,1.00325,0.54,0.2,0.04,24040.0,18860.0,-33940.0
32.7588622,35.02285,477.94,-0.06725,0.03175,0.9785,-0.66,0.32,0.0,24050.0,18870.0,-33940.0
32.7588622,35.02285,477.94,-0.07475,0.04175,0.99075,-0.42,0.02,0.08,24040.0,18880.0,-33940.0
32.7588622,35.02285,477.94,-0.07225,0.046,1.01275,0.52,-0.18,0.1,24030.0,18840.0,-33940.0
32.7588622,35.02285,477.94,-0.063,0.033,0.996,-0.14,-0.26,0.04,24090.0,18900.0,-33940.0
32.7588622,35.02285,477.94,-0.063,0.0405,0.98,-0.48,-0.32,0.04,24110.0,18940.0,-33930.0
32.7588622,35.02285,477.94,-0.069,0.053,0.99675,0.24,-0.1,0.08,24130.0,18960.0,-33930.0
32.7588622,35.02285,477.94,-0.07225,0.04225,1.0025,0.1,0.4,0.04,24130.0,19000.0,-33920.0
32.7588622,35.02285,477.94,-0.0735,0.03075,0.99075,-0.52,0.54,0.0,24110.0,18990.0,-33930.0
32.7588622,35.02285,477.94,-0.07725,0.0495,0.995,0.06,0.26,0.06,24110.0,18930.0,-33930.0
32.7588622,35.02285,477.95,-0.07475,0.0615,1.0045,0.56,-0.06,-0.06,24120.0,18950.0,-33930.0
32.7588622,35.02285,477.95,-0.06475,0.04275,0.98675,-0.24,-0.3,-0.04,24150.0,19050.0,-33920.0
32.7588622,35.02285,477.95,-0.0625,0.02925,0.9805,-0.84,-0.46,0.0,24120.0,19020.0,-33930.0
32.7588622,35.02285,477.95,-0.07175,0.045,1.0045,0.2,-0.12,-0.08,24130.0,18940.0,-33940.0
32.7588622,35.02285,477.95,-0.0755,0.05,1.013,0.54,0.42,-0.06,24130.0,18920.0,-33940.0
32.7588622,35.02285,477.95,-0.07575,0.041,0.98825,-0.4,0.78,-0.02,24120.0,18900.0,-33940.0
32.7588622,35.02285,477.95,-0.079,0.0395,0.97975,-0.46,0.38,0.0,24140.0,18910.0,-33940.0
32.7588622,35.02285,477.95,-0.0805,0.04475,1.00425,0.22,-0.2,-0.06,24130.0,18920.0,-33940.0
32.7588622,35.02285,477.95,-0.068,0.0315,1.0065,0.02,-0.6,0.04,24120.0,18990.0,-33940.0
32.7588622,35.02285,477.95,-0.05975,0.031,0.98675,-0.42,-0.54,0.04,24140.0,18950.0,-33940.0
32.7588622,35.02285,477.95,-0.06625,0.0515,0.99225,0.24,-0.36,0.06,24180.0,19010.0,-33930.0
32.7588622,35.02285,477.95,-0.07225,0.05025,1.0055,0.32,0.4,0.02,24150.0,19060.0,-33930.0
32.7588622,35.02285,477.95,-0.07425,0.0235,0.99425,-0.52,0.74,0.0,24140.0,19010.0,-33940.0
32.7588622,35.02285,477.95,-0.08075,0.0295,0.99075,-0.32,0.44,0.04,24150.0,18960.0,-33940.0
32.7588622,35.02285,477.95,-0.084,0.05825,1.00825,0.86,-0.12,0.04,24140.0,18950.0,-33940.0
32.7588622,35.02285,477.95,-0.07225,0.061,0.9975,0.48,-0.44,0.04,24160.0,18940.0,-33940.0
32.7588622,35.02285,477.95,-0.06525,0.0405,0.979,-0.78,-0.54,0.02,24180.0,18990.0,-33940.0
32.7588622,35.02285,477.95,-0.069,0.0525,0.991,-0.4,-0.36,-0.04,24170.0,19050.0,-33940.0
32.7588622,35.02285,477.95,-0.0725,0.068,1.0105,0.72,0.22,-0.06,24150.0,19000.0,-33940.0
32.7588622,35.02285,477.95,-0.07025,0.06125,0.9995,0.24,0.58,-0.1,24170.0,18950.0,-33940.0
32.7588622,35.02285,477.95,-0.077,0.0455,0.97725,-0.92,0.5,-0.06,24190.0,19030.0,-33940.0
32.7588622,35.02285,477.95,-0.084,0.0525,0.99275,-0.26,0.1,-0.12,24180.0,19230.0,-33920.0
32.7588622,35.02285,477.94,-0.0745,0.04825,1.00925,0.32,-0.42,-0.04,24170.0,19300.0,-33920.0
32.7588622,35.02285,477.94,-0.06025,0.0345,0.99125,-0.28,-0.66,-0.1,24200.0,19320.0,-33910.0
32.7588622,35.02285,477.94,-0.063,0.04325,0.98425,-0.42,-0.58,-0.08,24170.0,19210.0,-33920.0
32.7588622,35.02285,477.94,-0.0665,0.05375,1.00075,0.28,-0.14,-0.04,24190.0,19080.0,-33930.0
32.7588622,35.02285,477.94,-0.06575,0.03275,1.00025,-0.14,0.48,-0.06,24200.0,19020.0,-33940.0
32.7588622,35.02285,477.94,-0.07075,0.02225,0.99225,-0.66,0.54,0.0,24160.0,19040.0,-33940.0
32.7588622,35.02285,477.94,-0.07775,0.046,1.0015,0.16,0.22,-0.02,24160.0,19010.0,-33940.0
32.7588622,35.02285,477.94,-0.0715,0.05525,1.00075,0.64,-0.24,0.02,24200.0,19000.0,-33940.0
32.7588622,35.02285,477.94,-0.064,0.0355,0.984,-0.54,-0.54,0.04,24230.0,19010.0,-33930.0
32.7588622,35.02285,477.94,-0.06425,0.034,0.98775,-0.72,-0.48,0.1,24270.0,19080.0,-33920.0
32.7588622,35.02285,477.94,-0.06925,0.0455,1.011,0.36,-0.1,0.02,24220.0,18980.0,-33930.0
32.7588622,35.02285,477.94,-0.06925,0.04,1.0045,0.26,0.44,-0.02,24210.0,18990.0,-33930.0
32.7588622,35.02285,477.94,-0.0725,0.03625,0.98225,-0.54,0.54,0.08,24230.0,18950.0,-33930.0
32.7588622,35.02285,477.94,-0.08,0.048,0.99325,-0.1,0.24,0.02,24260.0,18910.0,-33930.0
32.7588622,35.02285,477.94,-0.07825,0.04475,1.0075,0.28,-0.08,0.0,24230.0,18920.0,-33930.0
32.7588622,35.02285,477.94,-0.06675,0.02525,0.99025,-0.22,-0.44,0.02,24230.0,18980.0,-33930.0
32.7588622,35.02285,477.94,-0.06325,0.03575,0.98325,-0.28,-0.6,0.06,24240.0,19000.0,-33920.0
32.7588622,35.02285,477.94,-0.06925,0.054,1.00025,0.52,-0.2,0.0,24270.0,18830.0,-33940.0
32.7588622,35.02285,477.94,-0.07125,0.04125,1.00025,0.2,0.4,-0.04,24310.0,18640.0,-33940.0
32.7588622,35.0228499,477.94,-0.07475,0.02725,0.988,-0.58,0.7,-0.04,24370.0,18660.0,-33940.0
32.7588622,35.0228499,477.94,-0.07975,0.04475,0.996,0.1,0.42,-0.02,24350.0,18570.0,-33950.0
32.7588622,35.0228499,477.94,-0.07775,0.06,1.0045,0.84,-0.14,-0.08,24370.0,18450.0,-33950.0
32.7588622,35.0228499,477.94,-0.0665,0.04275,0.9885,-0.1,-0.56,0.0,24420.0,18360.0,-33950.0
32.7588622,35.0228499,477.94,-0.06275,0.034,0.98225,-0.7,-0.62,0.06,24410.0,18380.0,-33950.0
32.7588622,35.0228499,477.94,-0.07,0.05075,1.00525,0.26,-0.14,-0.06,24250.0,18630.0,-33950.0
32.7588622,35.0228499,477.94,-0.07025,0.056,1.01325,0.64,0.38,-0.06,24140.0,18750.0,-33950.0
32.7588622,35.0228499,477.94,-0.0695,0.04125,0.98825,-0.22,0.66,-0.02,24140.0,18830.0,-33950.0
32.7588622,35.0228499,477.94,-0.077,0.04,0.98225,-0.56,0.36,0.06,24110.0,18860.0,-33950.0
32.7588622,35.0228499,477.94,-0.081,0.0525,1.00575,0.38,-0.1,-0.02,24130.0,18870.0,-33940.0
32.7588622,35.0228499,477.94,-0.06825,0.04525,1.00625,0.3,-0.44,0.02,24140.0,18890.0,-33940.0
32.7588622,35.0228499,477.94,-0.061,0.03525,0.98375,-0.5,-0.58,0.04,24130.0,18890.0,-33940.0
32.7588622,35.0228499,477.94,-0.067,0.048,0.988,-0.08,-0.32,0.04,24140.0,18840.0,-33940.0
32.7588622,35.0228499,477.94,-0.06975,0.0505,1.004,0.36,0.22,0.02,24180.0,18800.0,-33940.0
32.7588622,35.0228499,477.94,-0.06925,0.025,0.99625,-0.34,0.6,0.08,24150.0,18840.0,-33940.0
32.7588622,35.0228499,477.94,-0.07625,0.02525,0.991,-0.42,0.42,0.04,24140.0,18900.0,-33940.0
32.7588622,35.0228499,477.94,-0.079,0.054,1.0025,0.7,-0.02,0.1,24170.0,18870.0,-33930.0
32.7588622,35.0228499,477.94,-0.066,0.048,0.99375,0.54,-0.42,0.02,24150.0,18850.0,-33940.0
32.7588622,35.0228499,477.94,-0.05925,0.0205,0.9795,-0.76,-0.58,0.08,24150.0,18860.0,-33940.0
32.7588622,35.0228499,477.94,-0.0665,0.02525,0.992,-0.4,-0.36,0.02,24150.0,18910.0,-33930.0
32.7588622,35.02285,477.94,-0.07075,0.0485,1.01375,1.0,0.26,0.06,24130.0,19080.0,-33920.0
32.7588622,35.02285,477.94,-0.06825,0.04175,0.996,0.5,0.6,0.04,24140.0,18990.0,-33930.0
32.7588622,35.02285,477.94,-0.07575,0.0355,0.97975,-0.5,0.66,0.08,24190.0,18880.0,-33930.0
32.7588622,35.02285,477.94,-0.083,0.0465,0.9955,0.0,0.24,0.06,24170.0,18870.0,-33930.0
32.7588622,35.02285,477.94,-0.0745,0.048,1.00675,0.66,-0.24,0.0,24080.0,18900.0,-33940.0
32.7588622,35.02285,477.94,-0.06225,0.03475,0.99125,-0.06,-0.58,-0.06,24060.0,18930.0,-33940.0
32.7588622,35.02285,477.94,-0.0675,0.04825,0.98425,-0.24,-0.5,0.02,24070.0,18980.0,-33940.0
32.7588622,35.02285,477.94,-0.074,0.062,1.002,0.52,0.14,-0.04,24140.0,18910.0,-33940.0
32.7588622,35.02285,477.94,-0.072,0.0425,1.00075,0.14,0.66,-0.06,24160.0,18860.0,-33940.0
32.7588622,35.02285,477.94,-0.07775,0.0315,0.9915,-0.5,0.7,-0.06,24170.0,18960.0,-33930.0
32.7588622,35.02285,477.94,-0.08325,0.05775,0.99875,0.36,0.14,0.0,24160.0,19060.0,-33920.0
32.7588622,35.02285,477.94,-0.0745,0.06875,1.00075,0.88,-0.32,-0.14,24130.0,18980.0,-33930.0
32.7588622,35.02285,477.94,-0.0645,0.04475,0.98525,-0.32,-0.66,-0.04,24160.0,18920.0,-33940.0
32.7588622,35.02285,477.94,-0.067,0.037,0.986,-0.82,-0.52,0.0,24120.0,18950.0,-33940.0
32.7588622,35.02285,477.94,-0.0725,0.0535,1.0085,0.4,0.04,-0.02,24140.0,18940.0,-33940.0
32.7588622,35.02285,477.94,-0.06875,0.055,1.01025,0.74,0.4,0.0,24170.0,18930.0,-33940.0
32.7588622,35.02285,477.94,-0.07375,0.04725,0.98675,-0.42,0.58,-0.04,24160.0,19050.0,-33930.0
32.7588622,35.02285,477.94,-0.081,0.05175,0.98475,-0.38,0.24,0.06,24180.0,19030.0,-33930.0
32.7588622,35.02285,477.94,-0.078,0.056,1.00675,0.44,-0.2,0.08,24180.0,19000.0,-33930.0
32.7588622,35.02285,477.94,-0.06275,0.0435,1.0045,0.06,-0.66,-0.02,24170.0,19050.0,-33930.0
32.7588622,35.02285,477.94,-0.06125,0.045,0.98325,-0.48,-0.64,0.04,24180.0,19140.0,-33920.0
32.7588622,35.02285,477.94,-0.06775,0.0605,0.9915,0.1,-0.2,0.08,24180.0,19060.0,-33930.0
32.7588622,35.02285,477.94,-0.06975,0.0555,1.00475,0.32,0.48,0.04,24120.0,19050.0,-33940.0
32.7588622,35.02285,477.94,-0.07225,0.0345,0.99725,-0.62,0.7,0.12,24140.0,19020.0,-33940.0
32.7588622,35.02285,477.94,-0.07925,0.04325,0.99075,-0.32,0.44,0.0,24190.0,18980.0,-33940.0
32.7588622,35.02285,477.94,-0.07675,0.06725,0.99975,0.72,-0.22,0.04,24190.0,18970.0,-33940.0
32.7588622,35.02285,477.94,-0.06425,0.05575,0.992,0.08,-0.56,-0.02,24150.0,18980.0,-33940.0
32.7588622,35.02285,477.94,-0.063,0.033,0.9795,-1.08,-0.56,0.02,24120.0,18990.0,-33940.0
32.7588622,35.02285,477.94,-0.07175,0.0435,0.997,-0.28,-0.14,-0.02,24120.0,19000.0,-33950.0
32.7588622,35.02285,477.94,-0.07125,0.055,1.01375,0.68,0.5,-0.02,24190.0,18980.0,-33940.0
32.7588622,35.02285,477.94,-0.069,0.04025,0.9915,-0.2,0.72,-0.08,24210.0,18980.0,-33940.0
32.7588622,35.02285,477.94,-0.07725,0.036,0.97975,-0.84,0.4,-0.02,24200.0,18970.0,-33940.0
32.7588622,35.02285,477.94,-0.079,0.045,0.99725,0.0,-0.22,-0.02,24180.0,18960.0,-33940.0
32.7588622,35.02285,477.94,-0.0655,0.032,1.00425,0.16,-0.58,-0.06,24190.0,18960.0,-33940.0
32.7588622,35.02285,477.94,-0.06075,0.021,0.9905,-0.56,-0.56,0.0,24210.0,18970.0,-33940.0
32.7588622,35.02285,477.94,-0.067,0.03475,0.98925,-0.22,-0.3,-0.02,24200.0,19010.0,-33930.0
32.7588622,35.02285,477.94,-0.071,0.0395,1.00125,0.52,0.36,-0.04,24230.0,19060.0,-33920.0
32.7588622,35.02285,477.94,-0.07075,0.0175,0.99775,-0.26,0.6,0.0,24210.0,19050.0,-33930.0
32.7588622,35.02285,477.94,-0.077,0.01825,0.99375,-0.44,0.44,0.06,24190.0,19000.0,-33940.0
32.7588622,35.02285,477.94,-0.0785,0.04525,1.004,0.6,-0.12,0.02,24220.0,19000.0,-33930.0
32.7588622,35.02285,477.94,-0.068,0.04775,0.997,0.72,-0.48,-0.02,24260.0,19040.0,-33920.0
32.7588622,35.02285,477.94,-0.061,0.02725,0.9825,-0.56,-0.56,0.04,24210.0,19010.0,-33930.0
32.7588622,35.02285,477.94,-0.06675,0.03,0.991,-0.44,-0.28,0.06,24180.0,18950.0,-33930.0
32.7588622,35.02285,477.94,-0.0735,0.04825,1.01225,0.76,0.28,0.0,24170.0,18940.0,-33940.0
32.7588622,35.02285,477.94,-0.07125,0.047,1.0015,0.58,0.64,0.04,24140.0,18960.0,-33940.0
32.7588622,35.02285,477.94,-0.07525,0.04,0.97975,-0.44,0.54,0.04,24160.0,18970.0,-33940.0
32.7588622,35.02285,477.94,-0.08075,0.0485,0.991,-0.14,0.04,0.06,24160.0,18930.0,-33940.0
32.7588622,35.02285,477.94,-0.074,0.05,1.008,0.52,-0.38,0.02,24150.0,18950.0,-33940.0
32.7588622,35.02285,477.94,-0.06175,0.0365,0.996,-0.06,-0.64,-0.06,24190.0,18910.0,-33940.0
32.7588622,35.02285,477.94,-0.06375,0.04475,0.985,-0.2,-0.38,0.02,24220.0,18910.0,-33930.0
32.7588622,35.02285,477.94,-0.072,0.0635,0.99925,0.5,0.12,-0.04,24190.0,18940.0,-33930.0
32.7588622,35.02285,477.94,-0.0715,0.05075,1.0015,0.24,0.6,-0.02,24110.0,18920.0,-33940.0
32.7588622,35.02285,477.94,-0.07525,0.03075,0.98975,-0.56,0.64,-0.02,24130.0,18890.0,-33940.0
32.7588622,35.02285,477.94,-0.08225,0.051,0.9965,0.08,0.12,0.06,24120.0,18890.0,-33940.0
32.7588622,35.02285,477.94,-0.07575,0.071,1.0055,0.9,-0.36,-0.02,24150.0,18880.0,-33940.0
32.7588622,35.02285,477.94,-0.06425,0.05175,0.98775,-0.12,-0.6,-0.02,24170.0,18900.0,-33940.0
32.7588622,35.02285,477.94,-0.06425,0.03925,0.97925,-0.82,-0.5,-0.02,24150.0,19000.0,-33930.0
32.7588622,35.02285,477.94,-0.0715,0.0565,1.003,0.2,-0.06,0.02,24120.0,18970.0,-33930.0
32.7588622,35.02285,477.94,-0.07025,0.062,1.01175,0.68,0.44,-0.02,24140.0,18910.0,-33940.0
32.7588622,35.02285,477.94,-0.0715,0.04825,0.98775,-0.34,0.56,0.0,24180.0,18940.0,-33930.0
32.7588622,35.02285,477.94,-0.079,0.04975,0.98025,-0.66,0.24,0.06,24190.0,19100.0,-33920.0
32.7588622,35.02285,477.94,-0.07975,0.0595,1.00325,0.32,-0.22,0.02,24180.0,19160.0,-33910.0
32.7588622,35.02285,477.94,-0.065,0.0455,1.0015,0.1,-0.58,-0.02,24200.0,19100.0,-33910.0
32.7588622,35.02285,477.94,-0.06075,0.037,0.982,-0.66,-0.56,0.02,24160.0,19010.0,-33930.0
32.7588622,35.02285,477.94,-0.06675,0.05425,0.99175,-0.06,-0.26,0.02,24120.0,18970.0,-33930.0
32.7588622,35.02285,477.94,-0.06975,0.0565,1.00575,0.42,0.4,0.0,24120.0,18950.0,-33940.0
32.7588622,35.02285,477.94,-0.069,0.03125,0.99675,-0.52,0.62,0.04,24110.0,18930.0,-33940.0
32.7588622,35.02285,477.94,-0.07475,0.03175,0.99025,-0.6,0.42,0.08,24150.0,18860.0,-33940.0
32.7588622,35.02285,477.94,-0.07725,0.05825,1.0035,0.54,-0.14,0.04,24190.0,18850.0,-33930.0
32.7588622,35.02285,477.94,-0.066,0.05275,0.9965,0.38,-0.46,-0.08,24140.0,18920.0,-33940.0
32.7588622,35.02285,477.94,-0.062,0.02625,0.98075,-0.92,-0.5,0.06,24120.0,18950.0,-33940.0
32.7588622,35.02285,477.94,-0.06975,0.031,0.9945,-0.5,-0.16,0.04,24150.0,18870.0,-33940.0
32.7588622,35.02285,477.94,-0.075,0.0495,1.01525,0.72,0.4,-0.04,24180.0,18840.0,-33940.0
32.7588622,35.02285,477.94,-0.0705,0.03925,0.99825,0.26,0.62,0.02,24200.0,18780.0,-33940.0
32.7588622,35.02285,477.94,-0.07475,0.0285,0.97675,-0.82,0.46,0.02,24190.0,18810.0,-33940.0
32.7588622,35.02285,477.94,-0.07975,0.0405,0.995,-0.14,-0.14,-0.04,24170.0,18850.0,-33940.0
32.7588622,35.02285,477.94,-0.072,0.04025,1.0095,0.52,-0.38,0.02,24170.0,18920.0,-33940.0
32.7588622,35.02285,477.94,-0.06225,0.026,0.99225,-0.3,-0.48,0.02,24190.0,18960.0,-33930.0
32.7588622,35.02285,477.94,-0.06725,0.0345,0.98275,-0.34,-0.24,0.0,24160.0,18960.0,-33930.0
32.7588622,35.02285,477.94,-0.07425,0.04875,1.00275,0.42,0.18,-0.08,24140.0,18970.0,-33940.0
32.7588622,35.02285,477.95,-0.075,0.03275,1.00475,0.14,0.6,-0.04,24180.0,19080.0,-33920.0
32.7588622,35.02285,477.95,-0.07525,0.02125,0.98925,-0.62,0.48,0.04,24190.0,19010.0,-33930.0
32.7588622,35.02285,477.95,-0.07725,0.0425,0.997,0.18,-0.1,-0.06,24190.0,18910.0,-33930.0
32.7588622,35.02285,477.95,-0.072,0.0565,1.0055,0.76,-0.46,-0.06,24150.0,18890.0,-33940.0
32.7588622,35.02285,477.95,-0.06225,0.035,0.988,-0.26,-0.44,0.0,24160.0,18880.0,-33940.0
32.7588622,35.02285,477.95,-0.06475,0.02525,0.98375,-0.7,-0.3,0.08,24200.0,18740.0,-33950.0
32.7588622,35.02285,477.95,-0.0755,0.04575,1.00875,0.4,0.18,0.02,24290.0,18610.0,-33950.0
32.7588622,35.02285,477.95,-0.0765,0.05375,1.01125,0.88,0.6,0.0,24320.0,18510.0,-33950.0
32.7588622,35.02285,477.95,-0.07525,0.04025,0.983,-0.32,0.58,-0.02,24300.0,18520.0,-33960.0
32.7588622,35.02285,477.95,-0.079,0.04275,0.98125,-0.48,0.02,0.02,24340.0,18490.0,-33950.0
32.7588622,35.02285,477.95,-0.078,0.054,1.0075,0.48,-0.44,-0.08,24380.0,18450.0,-33950.0
32.7588622,35.02285,477.95,-0.06375,0.04475,1.003,0.32,-0.62,0.0,24350.0,18500.0,-33950.0
32.7588622,35.02285,477.95,-0.0605,0.03925,0.9805,-0.44,-0.52,0.0,24290.0,18650.0,-33950.0
32.7588622,35.02285,477.95,-0.071,0.05725,0.9895,0.16,-0.02,0.04,24230.0,18770.0,-33950.0
32.7588622,35.02285,477.95,-0.0765,0.0585,1.005,0.44,0.62,-0.04,24180.0,18850.0,-33950.0
32.7588622,35.02285,477.95,-0.07425,0.035,0.995,-0.26,0.66,-0.02,24180.0,18950.0,-33940.0
32.7588622,35.02285,477.95,-0.0775,0.04,0.9875,-0.4,0.18,0.02,24190.0,19040.0,-33930.0
32.7588622,35.02285,477.95,-0.0765,0.06975,1.00225,0.78,-0.44,-0.04,24170.0,19060.0,-33930.0
32.7588622,35.02285,477.95,-0.06275,0.064,0.99775,0.36,-0.72,-0.02,24180.0,19050.0,-33930.0
32.7588622,35.02285,477.94,-0.0575,0.035,0.98125,-0.94,-0.58,0.06,24210.0,19100.0,-33930.0
32.7588622,35.02285,477.94,-0.06725,0.0425,0.9945,-0.44,-0.1,0.02,24190.0,19210.0,-33920.0
32.7588622,35.02285,477.94,-0.07425,0.06575,1.01625,0.84,0.56,-0.04,24200.0,19130.0,-33920.0
32.7588622,35.02285,477.94,-0.071,0.058,0.9995,0.24,0.78,0.0,24190.0,19060.0,-33930.0
32.7588622,35.02285,477.94,-0.077,0.044,0.978,-0.94,0.3,0.04,24160.0,19030.0,-33940.0
32.7588622,35.02285,477.94,-0.08175,0.05275,0.9965,-0.26,-0.22,-0.14,24140.0,19000.0,-33940.0
32.7588622,35.02285,477.94,-0.06975,0.055,1.01325,0.44,-0.56,-0.04,24170.0,18970.0,-33940.0
32.7588622,35.02285,477.94,-0.057,0.03725,0.99575,-0.28,-0.6,0.06,24190.0,18960.0,-33940.0
32.7588622,35.02285,477.94,-0.0615,0.04275,0.98075,-0.7,-0.36,-0.02,24170.0,19030.0,-33930.0
32.7588622,35.02285,477.94,-0.07075,0.056,0.99775,0.2,0.22,0.02,24160.0,19030.0,-33940.0
32.7588622,35.02285,477.94,-0.07,0.039,1.00375,0.0,0.62,0.02,24170.0,19100.0,-33930.0
32.7588622,35.02285,477.94,-0.0775,0.02,0.99075,-0.78,0.6,0.06,24180.0,19200.0,-33920.0
32.7588622,35.02285,477.94,-0.0835,0.04125,0.99075,-0.1,0.18,0.04,24190.0,19100.0,-33930.0
32.7588622,35.02285,477.94,-0.07625,0.05775,0.99875,0.7,-0.42,0.0,24160.0,19050.0,-33940.0
32.7588622,35.02285,477.94,-0.0645,0.03525,0.987,-0.34,-0.56,0.0,24130.0,19020.0,-33940.0
32.7588622,35.02285,477.94,-0.0655,0.0215,0.98,-1.04,-0.46,0.06,24160.0,18940.0,-33940.0
32.7588622,35.02285,477.94,-0.07175,0.03875,1.0035,0.22,-0.06,0.04,24220.0,18950.0,-33930.0
32.7588622,35.02285,477.94,-0.0695,0.047,1.01075,0.76,0.4,0.02,24180.0,18970.0,-33930.0
32.7588622,35.02285,477.94,-0.07325,0.035,0.9875,-0.32,0.58,-0.02,24160.0,18930.0,-33940.0
32.7588622,35.02285,477.94,-0.0825,0.03525,0.983,-0.7,0.18,0.04,24150.0,18920.0,-33940.0
32.7588622,35.02285,477.94,-0.0825,0.041,1.00625,0.34,-0.16,0.0,24140.0,18990.0,-33940.0
32.7588622,35.02285,477.95,-0.06925,0.03125,1.00675,0.28,-0.5,0.02,24180.0,19070.0,-33920.0
32.7588622,35.02285,477.95,-0.06125,0.02875,0.984,-0.44,-0.6,-0.02,24150.0,19010.0,-33930.0
32.7588622,35.02285,477.95,-0.06325,0.0445,0.99125,0.1,-0.38,-0.02,24120.0,18980.0,-33940.0
32.7588622,35.02285,477.95,-0.06575,0.04125,1.0075,0.4,0.14,-0.02,24160.0,18890.0,-33940.0
32.7588622,35.02285,477.95,-0.068,0.0195,0.99825,-0.34,0.48,0.04,24190.0,18830.0,-33940.0
32.7588622,35.02285,477.95,-0.07175,0.029,0.9935,-0.2,0.36,-0.02,24160.0,18880.0,-33940.0
32.7588622,35.02285,477.95,-0.075,0.05425,1.00475,0.8,-0.08,-0.04,24130.0,18890.0,-33940.0
32.7588622,35.02285,477.95,-0.06675,0.04775,0.9955,0.46,-0.42,-0.02,24160.0,18870.0,-33940.0
32.7588622,35.02285,477.95,-0.05775,0.0275,0.9805,-0.72,-0.56,-0.02,24170.0,18880.0,-33930.0
32.7588622,35.02285,477.95,-0.0595,0.03675,0.9955,-0.12,-0.3,-0.04,24180.0,18910.0,-33930.0
32.7588622,35.02285,477.95,-0.06475,0.0535,1.01425,1.0,0.14,0.0,24170.0,18930.0,-33930.0
32.7588622,35.02285,477.95,-0.063,0.04825,0.99725,0.34,0.5,0.04,24120.0,18910.0,-33940.0
32.7588622,35.02285,477.95,-0.06925,0.03975,0.976,-0.48,0.58,0.06,24110.0,18880.0,-33940.0
32.7588622,35.02285,477.95,-0.08,0.04975,0.991,0.16,0.24,0.08,24140.0,18800.0,-33940.0
32.7588622,35.02285,477.95,-0.0775,0.0515,1.00725,0.68,-0.02,0.02,24170.0,18840.0,-33940.0
32.7588622,35.02285,477.95,-0.06575,0.03925,0.9875,-0.12,-0.22,-0.02,24130.0,18910.0,-33940.0
32.7588622,35.02285,477.95,-0.06625,0.0445,0.97525,-0.2,-0.32,0.02,24160.0,18980.0,-33930.0
32.7588622,35.02285,477.95,-0.075,0.0595,0.9955,0.54,0.04,0.08,24150.0,18970.0,-33930.0
32.7588622,35.02285,477.95,-0.0725,0.04575,1.001,0.24,0.48,0.02,24130.0,18950.0,-33930.0
32.7588622,35.02285,477.95,-0.0765,0.028,0.9855,-0.48,0.6,0.06,24180.0,18970.0,-33930.0
32.7588622,35.02285,477.95,-0.0855,0.0465,0.99175,0.16,0.22,-0.02,24210.0,19070.0,-33920.0
32.7588622,35.02285,477.95,-0.0825,0.067,1.0015,1.0,-0.1,0.0,24150.0,19090.0,-33920.0
32.7588622,35.02285,477.95,-0.06975,0.04725,0.9885,-0.04,-0.44,-0.02,24120.0,18950.0,-33940.0
32.7588622,35.02285,477.95,-0.07125,0.0295,0.98225,-0.84,-0.44,-0.04,24120.0,18890.0,-33940.0
32.7588622,35.02285,477.95,-0.0775,0.0485,1.004,0.28,-0.2,0.04,24090.0,18860.0,-33950.0
32.7588622,35.02285,477.95,-0.07225,0.05975,1.0165,1.0,0.2,0.0,24110.0,18830.0,-33940.0
32.7588622,35.02285,477.95,-0.07175,0.0445,0.993,-0.22,0.38,0.0,24170.0,18760.0,-33940.0
32.7588622,35.02285,477.95,-0.081,0.04225,0.98375,-0.7,0.24,0.02,24170.0,18830.0,-33940.0
32.7588622,35.02285,477.95,-0.08225,0.05225,1.00675,0.42,-0.08,-0.02,24190.0,18810.0,-33940.0
32.7588622,35.02285,477.95,-0.06675,0.04375,1.0115,0.48,-0.5,-0.08,24200.0,18880.0,-33930.0
32.7588622,35.02285,477.95,-0.0605,0.0375,0.99225,-0.48,-0.64,-0.04,24170.0,18890.0,-33930.0
32.7588622,35.02285,477.95,-0.06725,0.05225,0.992,-0.08,-0.46,-0.02,24170.0,18840.0,-33940.0
32.7588622,35.02285,477.95,-0.06775,0.05175,1.006,0.5,0.18,-0.02,24140.0,18790.0,-33940.0
32.7588622,35.02285,477.95,-0.066,0.03175,1.0055,-0.18,0.48,0.02,24140.0,18780.0,-33940.0
32.7588622,35.02285,477.95,-0.07125,0.034,0.99525,-0.46,0.32,0.06,24140.0,18760.0,-33940.0
32.7588622,35.02285,477.95,-0.07475,0.0585,0.998,0.6,0.0,0.02,24190.0,18830.0,-33930.0
32.7588622,35.02285,477.95,-0.06475,0.05575,0.998,0.46,-0.42,0.0,24220.0,18900.0,-33930.0
32.7588622,35.02285,477.95,-0.05775,0.03025,0.987,-0.72,-0.4,0.08,24200.0,18860.0,-33930.0
32.7588622,35.02285,477.95,-0.06325,0.03325,0.989,-0.44,-0.24,0.04,24200.0,18850.0,-33930.0
32.7588622,35.02285,477.95,-0.069,0.05475,1.00675,0.86,0.24,0.02,24190.0,18950.0,-33930.0
32.7588622,35.02285,477.95,-0.06725,0.051,0.9975,0.46,0.58,0.06,24210.0,19070.0,-33920.0
32.7588622,35.02285,477.95,-0.07225,0.03825,0.97625,-0.74,0.62,0.06,24240.0,19110.0,-33910.0
32.7588622,35.02285,477.95,-0.081,0.0485,0.98925,-0.16,0.12,0.12,24260.0,19110.0,-33910.0
32.7588622,35.02285,477.95,-0.0775,0.05425,1.007,0.68,-0.16,0.08,24230.0,19040.0,-33920.0
32.7588622,35.02285,477.95,-0.06425,0.04075,0.99075,-0.1,-0.4,-0.04,24200.0,18980.0,-33930.0
32.7588622,35.02285,477.95,-0.06375,0.0435,0.97725,-0.56,-0.48,0.0,24170.0,18940.0,-33940.0
32.7588622,35.02285,477.95,-0.07325,0.0605,0.99675,0.3,-0.02,0.02,24160.0,18970.0,-33940.0
32.7588622,35.02285,477.95,-0.074,0.04775,1.0025,0.24,0.5,0.06,24200.0,18920.0,-33930.0
32.7588622,35.02285,477.95,-0.07475,0.02675,0.98925,-0.64,0.64,0.02,24190.0,18900.0,-33940.0
32.7588622,35.02285,477.95,-0.0815,0.045,0.99475,-0.1,0.2,-0.02,24150.0,18970.0,-33940.0
32.7588622,35.02285,477.95,-0.079,0.06975,1.0065,0.84,-0.24,0.0,24200.0,19000.0,-33930.0
32.7588622,35.02285,477.95,-0.06575,0.0515,0.991,-0.08,-0.56,-0.02,24230.0,18900.0,-33930.0
32.7588622,35.02285,477.95,-0.065,0.03125,0.98275,-1.12,-0.48,0.02,24190.0,18920.0,-33930.0
32.7588622,35.02285,477.95,-0.07425,0.04875,1.00775,-0.14,-0.08,-0.02,24180.0,18920.0,-33940.0
32.7588622,35.02285,477.95,-0.07325,0.06175,1.02075,0.8,0.44,-0.02,24180.0,18910.0,-33940.0
32.7588622,35.02285,477.95,-0.07025,0.045,0.995,-0.28,0.62,-0.02,24170.0,18910.0,-33940.0
32.7588622,35.02285,477.95,-0.07625,0.0375,0.983,-1.04,0.32,0.04,24180.0,18960.0,-33930.0
32.7588622,35.02285,477.95,-0.08,0.04825,1.00825,0.08,-0.16,0.02,24190.0,19000.0,-33930.0
32.7588622,35.02285,477.95,-0.0665,0.039,1.01175,0.28,-0.54,0.04,24190.0,18990.0,-33930.0
32.7588622,35.02285,477.95,-0.0585,0.02425,0.98775,-0.6,-0.48,0.0,24210.0,18960.0,-33930.0
32.7588622,35.02285,477.94,-0.067,0.0385,0.98825,-0.32,-0.26,0.0,24240.0,19080.0,-33920.0
32.7588622,35.02285,477.94,-0.0705,0.0435,1.00325,0.46,0.36,0.04,24200.0,19030.0,-33920.0
32.7588622,35.02285,477.94,-0.0695,0.0195,0.9955,-0.16,0.62,0.0,24140.0,19040.0,-33930.0
32.7588622,35.02285,477.94,-0.07575,0.01725,0.98875,-0.56,0.4,0.02,24150.0,19000.0,-33940.0
32.7588622,35.02285,477.94,-0.07825,0.048,0.997,0.68,-0.04,0.06,24190.0,18990.0,-33930.0
32.7588622,35.02285,477.94,-0.06525,0.05275,0.99425,0.76,-0.48,0.02,24170.0,18970.0,-33940.0
32.7588622,35.02285,477.94,-0.058,0.0295,0.97775,-0.54,-0.52,0.04,24130.0,18960.0,-33940.0
32.7588622,35.02285,477.94,-0.06275,0.0295,0.98275,-0.44,-0.26,-0.04,24120.0,18970.0,-33940.0
32.7588622,35.02285,477.94,-0.06925,0.0495,1.00725,0.88,0.22,-0.02,24110.0,18980.0,-33940.0
32.7588622,35.02285,477.94,-0.06975,0.05375,1.002,0.76,0.64,-0.02,24170.0,18960.0,-33940.0
32.7588622,35.02285,477.94,-0.07325,0.04675,0.975,-0.4,0.74,0.1,24220.0,18990.0,-33930.0
32.7588622,35.02285,477.94,-0.07825,0.0515,0.98275,-0.16,0.14,-0.02,24190.0,18940.0,-33940.0
32.7588622,35.02285,477.94,-0.07575,0.05125,1.00875,0.5,-0.28,0.0,24240.0,18690.0,-33950.0
32.7588622,35.02285,477.94,-0.06225,0.042,0.99775,0.08,-0.5,-0.02,24320.0,18540.0,-33950.0
32.7588622,35.02285,477.94,-0.06175,0.05225,0.98075,-0.28,-0.38,0.04,24380.0,18490.0,-33950.0
32.7588622,35.02285,477.94,-0.0685,0.064,0.99825,0.32,0.06,-0.04,24440.0,18480.0,-33940.0
32.7588622,35.02285,477.94,-0.0715,0.04875,1.00425,0.06,0.62,-0.02,24420.0,18440.0,-33950.0
32.7588622,35.02285,477.94,-0.07425,0.03475,0.9975,-0.56,0.7,0.08,24370.0,18450.0,-33950.0
32.7588622,35.02285,477.94,-0.07975,0.0545,1.0035,0.04,0.26,0.04,24300.0,18570.0,-33950.0
32.7588622,35.02285,477.94,-0.07775,0.07175,1.01175,0.6,-0.2,0.02,24270.0,18730.0,-33940.0
32.7588622,35.02285,477.95,-0.06575,0.0545,0.999,-0.38,-0.5,-0.04,24260.0,18980.0,-33930.0
32.7588622,35.02285,477.95,-0.063,0.0425,0.996,-1.04,-0.5,-0.04,24210.0,18990.0,-33930.0
32.7588622,35.02285,477.95,-0.0705,0.0565,1.01625,-0.08,-0.06,-0.02,24210.0,18910.0,-33930.0
32.7588622,35.02285,477.95,-0.071,0.0625,1.02225,0.34,0.5,0.02,24210.0,18870.0,-33940.0
32.7588622,35.02285,477.95,-0.07025,0.051,1.00375,-0.66,0.72,-0.04,24210.0,18840.0,-33940.0
32.7588622,35.02285,477.95,-0.08025,0.05,0.99375,-0.96,0.42,0.02,24200.0,18840.0,-33940.0
32.7588622,35.02285,477.95,-0.083,0.05525,1.01,-0.18,0.02,0.02,24170.0,18880.0,-33940.0
32.7588622,35.02285,477.95,-0.06775,0.0455,1.01275,-0.18,-0.38,-0.08,24160.0,18870.0,-33940.0
32.7588622,35.02285,477.95,-0.063,0.04,0.992,-0.9,-0.38,-0.08,24150.0,18880.0,-33940.0
32.7588622,35.02285,477.95,-0.0675,0.05375,0.9925,-0.4,-0.14,0.0,24170.0,18970.0,-33930.0
32.7588622,35.02285,477.95,-0.07075,0.05575,1.00925,0.1,0.48,-0.08,24150.0,19110.0,-33920.0
32.7588622,35.02285,477.95,-0.07175,0.037,0.99875,-0.72,0.78,0.04,24170.0,19040.0,-33930.0
32.7588622,35.02285,477.95,-0.07875,0.041,0.99,-0.76,0.62,-0.04,24170.0,18920.0,-33930.0
32.7588622,35.02285,477.95,-0.0815,0.064,1.00275,0.2,0.22,-0.02,24150.0,18860.0,-33940.0
32.7588622,35.02285,477.95,-0.07075,0.05975,0.9965,0.02,-0.2,-0.1,24130.0,18860.0,-33940.0
32.7588622,35.02285,477.95,-0.06625,0.043,0.9815,-1.26,-0.36,0.04,24120.0,18900.0,-33940.0
32.7588622,35.02285,477.95,-0.07125,0.047,0.987,-0.96,-0.02,0.06,24140.0,19010.0,-33930.0
32.7588622,35.02285,477.95,-0.07425,0.054,1.00825,0.06,0.36,0.04,24120.0,18990.0,-33930.0
32.7588622,35.02285,477.95,-0.074,0.0465,0.99825,-0.5,0.66,0.1,24140.0,18940.0,-33930.0
32.7588622,35.02285,477.95,-0.08125,0.0445,0.9755,-1.3,0.6,-0.02,24100.0,19040.0,-33930.0
32.7588622,35.02285,477.95,-0.0855,0.04675,0.98575,-0.64,0.2,0.0,24110.0,19130.0,-33920.0
32.7588622,35.02285,477.95,-0.07875,0.038,1.002,-0.36,-0.28,-0.04,24120.0,19050.0,-33920.0
32.7588622,35.02285,477.95,-0.0695,0.03025,0.9885,-0.98,-0.58,0.0,24120.0,18960.0,-33930.0
32.7588622,35.02285,477.95,-0.07025,0.04075,0.975,-0.78,-0.46,-0.06,24130.0,18850.0,-33940.0
32.7588622,35.02285,477.95,-0.07375,0.04325,0.98875,-0.2,-0.08,-0.04,24110.0,18870.0,-33940.0
32.7588622,35.02285,477.95,-0.07375,0.0255,0.99525,-0.62,0.36,-0.08,24080.0,18930.0,-33940.0
32.7588622,35.02285,477.95,-0.0775,0.0215,0.9855,-1.0,0.36,-0.02,24090.0,18870.0,-33940.0
32.7588622,35.02285,477.95,-0.08275,0.03875,0.98625,-0.04,0.02,-0.12,24090.0,18870.0,-33940.0
32.7588622,35.02285,477.95,-0.07525,0.04325,0.99225,0.2,-0.4,-0.1,24110.0,18880.0,-33940.0
32.7588622,35.02285,477.95,-0.0655,0.02525,0.9845,-0.82,-0.74,-0.08,24110.0,18890.0,-33940.0
32.7588622,35.02285,477.95,-0.0675,0.0195,0.9805,-0.96,-0.68,0.0,24100.0,18910.0,-33940.0
32.7588622,35.02285,477.95,-0.07325,0.031,0.9975,0.16,-0.22,-0.06,24070.0,18900.0,-33940.0
32.7588622,35.02285,477.95,-0.068,0.03125,1.006,0.26,0.22,0.0,24060.0,18870.0,-33940.0
32.7588622,35.02285,477.95,-0.06975,0.023,0.988,-0.66,0.34,0.0,24080.0,18860.0,-33940.0
32.7588622,35.02285,477.95,-0.07625,0.0265,0.98275,-0.5,0.02,0.0,24080.0,18890.0,-33940.0
32.7588622,35.02285,477.95,-0.0725,0.0315,1.0025,0.4,-0.38,0.06,24110.0,18970.0,-33930.0
32.7588622,35.02285,477.95,-0.05825,0.02075,1.0025,-0.12,-0.68,0.02,24130.0,18970.0,-33920.0
32.7588622,35.02285,477.95,-0.05825,0.02175,0.98625,-0.5,-0.58,0.08,24130.0,18850.0,-33930.0
32.7588622,35.02285,477.95,-0.06425,0.03925,0.99175,0.34,-0.22,0.04,24080.0,18840.0,-33940.0
32.7588622,35.02285,477.95,-0.0655,0.03625,1.00275,0.48,0.34,0.02,24090.0,18900.0,-33940.0
32.7588622,35.02285,477.95,-0.0675,0.0165,0.995,-0.44,0.62,0.1,24120.0,19000.0,-33920.0
32.7588622,35.02285,477.95,-0.0735,0.02875,0.9935,-0.12,0.32,0.02,24080.0,18950.0,-33930.0
32.7588622,35.02285,477.95,-0.07175,0.05525,1.0045,1.02,-0.22,0.1,24110.0,18840.0,-33930.0
32.7588622,35.02285,477.95,-0.06025,0.04525,0.99275,0.36,-0.48,-0.02,24110.0,18860.0,-33940.0
32.7588622,35.02285,477.95,-0.05725,0.02575,0.98025,-0.78,-0.46,0.0,24060.0,18880.0,-33940.0
32.7588622,35.02285,477.95,-0.0655,0.037,0.99575,-0.06,-0.06,0.06,24070.0,18880.0,-33940.0
32.7588622,35.02285,477.95,-0.07075,0.054,1.01175,1.04,0.48,-0.06,24070.0,18860.0,-33940.0
32.7588622,35.02285,477.95,-0.07175,0.045,0.994,0.26,0.78,0.02,24040.0,18910.0,-33940.0
32.7588622,35.02285,477.95,-0.078,0.039,0.97775,-0.66,0.52,0.02,24030.0,18920.0,-33940.0
32.7588622,35.02285,477.95,-0.0835,0.051,0.99575,0.22,0.02,-0.02,24060.0,18920.0,-33940.0
32.7588622,35.02285,477.95,-0.07425,0.0495,1.00775,0.6,-0.42,-0.12,24070.0,18980.0,-33930.0
32.7588622,35.02285,477.95,-0.0625,0.037,0.98975,-0.24,-0.54,-0.06,24050.0,18930.0,-33940.0
32.7588622,35.02285,477.95,-0.0675,0.04875,0.98475,-0.26,-0.26,-0.06,24040.0,18930.0,-33940.0
32.7588622,35.02285,477.95,-0.0775,0.0615,1.00275,0.54,0.2,-0.06,24030.0,18990.0,-33940.0
32.7588622,35.02285,477.95,-0.0785,0.04225,1.003,0.0,0.68,0.0,24050.0,18970.0,-33940.0
32.7588622,35.02285,477.95,-0.0815,0.0295,0.99375,-0.68,0.66,-0.04,24070.0,18990.0,-33940.0
32.7588622,35.02285,477.95,-0.087,0.05425,1.00075,0.22,0.06,-0.02,24080.0,19060.0,-33930.0
32.7588622,35.02285,477.95,-0.079,0.06775,1.0035,0.86,-0.52,-0.06,24060.0,19020.0,-33940.0
32.7588622,35.02285,477.95,-0.067,0.04175,0.986,-0.48,-0.72,-0.06,24060.0,18970.0,-33940.0
32.7588622,35.02285,477.95,-0.069,0.03,0.9855,-0.88,-0.52,0.06,24120.0,19010.0,-33930.0
32.7588622,35.02285,477.95,-0.0785,0.0525,1.014,0.32,0.02,-0.04,24200.0,19130.0,-33910.0
32.7588622,35.02285,477.95,-0.0755,0.0555,1.0125,0.7,0.48,0.04,24200.0,19220.0,-33900.0
32.7588622,35.02285,477.95,-0.077,0.04175,0.9835,-0.48,0.52,0.08,24190.0,19240.0,-33900.0
32.7588622,35.02285,477.95,-0.084,0.0475,0.98725,-0.58,0.04,-0.02,24120.0,19180.0,-33920.0
32.7588622,35.02285,477.95,-0.08025,0.05625,1.01475,0.36,-0.52,0.02,24110.0,19090.0,-33930.0
32.7588622,35.02285,477.95,-0.06575,0.0415,1.00575,-0.06,-0.84,-0.12,24120.0,19010.0,-33930.0
32.7588622,35.02285,477.95,-0.0615,0.0425,0.987,-0.62,-0.76,0.0,24070.0,19040.0,-33930.0
32.7588622,35.02285,477.95,-0.07075,0.058,0.9975,-0.04,-0.3,-0.04,24080.0,19020.0,-33930.0
32.7588622,35.02285,477.95,-0.074,0.05025,1.0095,0.1,0.34,0.0,24120.0,18960.0,-33930.0
32.7588622,35.02285,477.95,-0.0745,0.029,0.99975,-0.72,0.46,0.04,24130.0,19010.0,-33930.0
32.7588622,35.02285,477.95,-0.0815,0.03825,0.99675,-0.48,0.06,0.04,24130.0,19070.0,-33920.0
32.7588622,35.02285,477.95,-0.08025,0.061,1.00575,0.42,-0.56,-0.12,24130.0,19020.0,-33930.0
32.7588622,35.02285,477.95,-0.06625,0.0465,0.99825,-0.1,-1.02,-0.06,24100.0,18990.0,-33930.0
32.7588622,35.02285,477.95,-0.06225,0.02425,0.98625,-1.24,-0.84,-0.06,24150.0,18920.0,-33930.0
32.7588622,35.02285,477.95,-0.07125,0.03525,0.99725,-0.46,-0.4,0.04,24140.0,18940.0,-33930.0
32.7588622,35.02285,477.95,-0.07225,0.04725,1.01575,0.68,0.22,-0.12,24110.0,18980.0,-33930.0
32.7588622,35.02285,477.95,-0.0705,0.0385,0.999,-0.22,0.4,-0.04,24130.0,19060.0,-33930.0
32.7588622,35.02285,477.95,-0.08075,0.03225,0.97825,-0.96,0.1,-0.06,24150.0,19130.0,-33910.0
32.7588622,35.02285,477.95,-0.08575,0.04,0.993,-0.18,-0.32,0.0,24130.0,19060.0,-33920.0
32.7588622,35.02285,477.95,-0.07225,0.033,1.0085,0.22,-0.78,-0.02,24160.0,19020.0,-33920.0
32.7588622,35.02285,477.95,-0.0615,0.024,0.99225,-0.44,-0.92,-0.02,24200.0,19140.0,-33910.0
32.7588622,35.02285,477.95,-0.06525,0.0385,0.979,-0.36,-0.78,-0.04,24140.0,19120.0,-33910.0
32.7588622,35.02285,477.95,-0.06925,0.0475,0.9925,0.38,-0.14,-0.04,24080.0,19060.0,-33930.0
32.7588622,35.02285,477.95,-0.06675,0.0245,0.999,-0.18,0.22,0.0,24120.0,18940.0,-33930.0
32.7588622,35.02285,477.95,-0.073,0.01875,0.9915,-0.62,0.16,0.0,24160.0,18940.0,-33920.0
32.7588622,35.02285,477.95,-0.07825,0.0455,0.9925,0.44,-0.2,0.02,24130.0,18930.0,-33930.0
32.7588622,35.02285,477.95,-0.06875,0.05525,0.99225,0.84,-0.64,0.02,24100.0,18940.0,-33930.0
32.7588622,35.02285,477.95,-0.05775,0.0325,0.98175,-0.46,-0.92,0.04,24090.0,18960.0,-33930.0
32.7588622,35.02285,477.95,-0.06075,0.0265,0.9795,-0.86,-0.72,0.08,24040.0,18990.0,-33930.0
32.7588622,35.02285,477.95,-0.06475,0.04575,1.00325,0.66,-0.24,0.02,24090.0,18970.0,-33930.0
32.7588622,35.02285,477.95,-0.06125,0.04925,1.0075,0.86,0.16,-0.02,24090.0,18960.0,-33930.0
32.7588622,35.02285,477.95,-0.06375,0.039,0.97925,-0.48,0.34,0.06,24070.0,18910.0,-33930.0
32.7588622,35.02285,477.95,-0.06975,0.04525,0.9805,-0.36,0.02,0.08,24090.0,18870.0,-33930.0
32.7588622,35.02285,477.95,-0.068,0.0515,1.005,0.54,-0.46,0.02,24100.0,18880.0,-33930.0
32.7588622,35.02285,477.95,-0.05625,0.03775,0.997,0.12,-0.52,-0.04,24090.0,18900.0,-33930.0
32.7588622,35.02285,477.95,-0.054,0.0375,0.98,-0.58,-0.58,0.02,24110.0,18930.0,-33930.0
32.7588622,35.02285,477.95,-0.06125,0.05625,0.99325,0.14,-0.28,-0.02,24140.0,19010.0,-33920.0
32.7588622,35.02285,477.95,-0.063,0.0485,1.00075,0.38,0.3,0.04,24090.0,18970.0,-33920.0
32.7588622,35.02285,477.95,-0.064,0.0255,0.99175,-0.66,0.62,0.0,24160.0,18780.0,-33930.0
32.7588621,35.02285,477.95,-0.06875,0.03575,0.992,-0.38,0.22,0.04,24220.0,18640.0,-33940.0
32.7588621,35.02285,477.95,-0.06975,0.0605,1.00425,0.74,-0.18,0.02,24240.0,18700.0,-33930.0
32.7588621,35.02285,477.95,-0.05875,0.04725,0.99275,0.12,-0.38,-0.04,24280.0,18570.0,-33940.0
32.7588621,35.02285,477.95,-0.054,0.02375,0.97825,-1.08,-0.32,0.02,24350.0,18440.0,-33940.0
32.7588621,35.02285,477.95,-0.063,0.034,0.9975,-0.22,-0.08,-0.08,24350.0,18420.0,-33950.0
32.7588621,35.02285,477.95,-0.0675,0.04925,1.0145,0.8,0.42,-0.02,24240.0,18500.0,-33950.0
32.7588621,35.02285,477.95,-0.0685,0.03925,0.9915,0.06,0.78,-0.08,24130.0,18650.0,-33950.0
32.7588621,35.02285,477.95,-0.07825,0.034,0.97875,-0.7,0.54,0.12,24110.0,18790.0,-33940.0
32.7588621,35.02285,477.95,-0.08425,0.04575,0.99675,0.1,0.08,-0.04,24070.0,18820.0,-33940.0
32.7588621,35.02285,477.95,-0.075,0.04275,1.00625,0.54,-0.3,0.0,24080.0,18850.0,-33940.0
32.7588621,35.02285,477.95,-0.064,0.031,0.98975,-0.3,-0.5,-0.02,24090.0,18960.0,-33930.0
32.7588621,35.02285,477.95,-0.067,0.04425,0.98225,-0.24,-0.36,0.04,24090.0,19080.0,-33920.0
32.7588621,35.02285,477.95,-0.074,0.057,1.00175,0.48,0.12,0.04,24110.0,18950.0,-33920.0
32.7588621,35.02285,477.95,-0.075,0.0365,1.0015,-0.1,0.62,-0.02,24110.0,18840.0,-33930.0
32.7588621,35.02285,477.95,-0.07875,0.02275,0.99075,-0.7,0.62,0.02,24080.0,18840.0,-33930.0
32.7588621,35.02285,477.95,-0.0835,0.0465,0.9995,0.22,0.1,0.04,24070.0,18840.0,-33940.0
32.7588621,35.02285,477.95,-0.07525,0.061,1.00425,0.76,-0.34,-0.02,24120.0,18850.0,-33930.0
32.7588621,35.02285,477.95,-0.06475,0.03625,0.985,-0.46,-0.66,-0.04,24140.0,18870.0,-33920.0
32.7588621,35.02285,477.95,-0.0645,0.022,0.98375,-0.98,-0.52,0.16,24150.0,18840.0,-33920.0
32.7588621,35.02285,477.95,-0.07175,0.04225,1.013,0.32,0.0,0.02,24140.0,18860.0,-33930.0
32.7588621,35.02285,477.95,-0.06875,0.0465,1.015,0.82,0.44,0.04,24140.0,18900.0,-33920.0
32.7588621,35.02285,477.95,-0.0685,0.03125,0.984,-0.4,0.6,0.04,24160.0,19010.0,-33910.0
32.7588621,35.02285,477.95,-0.074,0.03375,0.98275,-0.54,0.06,0.0,24150.0,18930.0,-33920.0
32.7588621,35.02285,477.95,-0.0735,0.04625,1.0095,0.5,-0.24,0.04,24070.0,18910.0,-33930.0
32.7588621,35.02285,477.95,-0.06,0.034,1.00475,0.24,-0.6,-0.06,24110.0,18880.0,-33930.0
32.7588621,35.02285,477.95,-0.05575,0.02775,0.9825,-0.5,-0.5,0.02,24130.0,18840.0,-33930.0
32.7588621,35.02285,477.95,-0.0635,0.0485,0.992,0.16,-0.1,0.04,24120.0,18840.0,-33930.0
32.7588621,35.02285,477.95,-0.06725,0.04975,1.00425,0.56,0.5,-0.02,24120.0,18820.0,-33930.0
32.7588621,35.02285,477.95,-0.0675,0.02525,0.9925,-0.36,0.68,0.0,24120.0,18850.0,-33930.0
32.7588621,35.02285,477.95,-0.07225,0.031,0.989,-0.42,0.3,0.06,24110.0,18910.0,-33930.0
32.7588621,35.02285,477.95,-0.07475,0.06,1.004,0.78,-0.18,-0.04,24150.0,18910.0,-33930.0
32.7588621,35.02285,477.95,-0.06375,0.05575,0.99475,0.46,-0.42,-0.06,24140.0,18930.0,-33920.0
32.7588621,35.02285,477.95,-0.0575,0.029,0.978,-0.8,-0.42,0.02,24110.0,18960.0,-33930.0
32.7588621,35.02285,477.95,-0.06525,0.0355,0.99175,-0.46,-0.08,0.0,24090.0,18940.0,-33930.0
32.7588621,35.02285,477.95,-0.07275,0.05575,1.0145,0.9,0.42,0.0,24100.0,18930.0,-33930.0
32.7588621,35.02285,477.95,-0.07125,0.04975,0.9985,0.28,0.74,-0.02,24110.0,18980.0,-33930.0
32.7588621,35.02285,477.95,-0.07725,0.03725,0.97575,-0.72,0.54,0.06,24110.0,19040.0,-33930.0
32.7588621,35.02285,477.95,-0.084,0.0475,0.995,-0.12,0.04,0.0,24150.0,19100.0,-33920.0
32.7588621,35.02285,477.95,-0.0755,0.05,1.01225,0.58,-0.32,0.06,24130.0,19100.0,-33920.0
32.7588621,35.02285,477.95,-0.063,0.035,0.99275,-0.18,-0.54,0.02,24060.0,19070.0,-33930.0
32.7588621,35.02285,477.95,-0.06575,0.042,0.983,-0.42,-0.4,0.06,24110.0,19020.0,-33930.0
32.7588621,35.02285,477.95,-0.0735,0.058,1.002,0.32,0.08,0.0,24180.0,19100.0,-33910.0
32.7588621,35.02285,477.95,-0.07275,0.04125,1.004,0.12,0.58,-0.02,24120.0,19040.0,-33920.0
32.7588621,35.02285,477.95,-0.07525,0.02425,0.9915,-0.64,0.56,0.1,24110.0,18980.0,-33930.0
32.7588621,35.02285,477.95,-0.08025,0.04475,0.99825,0.08,0.1,0.06,24110.0,18980.0,-33930.0
32.7588621,35.02285,477.95,-0.076,0.06325,1.0055,0.72,-0.46,0.06,24030.0,19010.0,-33940.0
32.7588621,35.02285,477.95,-0.0635,0.0425,0.9875,-0.26,-0.6,-0.02,24040.0,19000.0,-33940.0
32.7588621,35.02285,477.95,-0.0625,0.02575,0.9815,-1.0,-0.46,0.0,24070.0,18970.0,-33940.0
32.7588621,35.02285,477.95,-0.07025,0.04325,1.00625,0.18,0.0,0.04,24080.0,19010.0,-33930.0
32.7588621,35.02285,477.95,-0.07,0.05125,1.01375,0.82,0.38,-0.02,24070.0,18990.0,-33930.0
32.7588621,35.02285,477.95,-0.06775,0.03525,0.986,-0.4,0.58,0.0,24090.0,19010.0,-33930.0
32.7588621,35.02285,477.95,-0.0745,0.03525,0.9805,-0.62,0.12,0.04,24090.0,19070.0,-33930.0
32.7588621,35.02285,477.95,-0.0755,0.049,1.0065,0.36,-0.3,0.0,24090.0,19020.0,-33930.0
32.7588621,35.02285,477.95,-0.061,0.0365,1.0035,0.3,-0.58,0.02,24090.0,18930.0,-33930.0
32.7588621,35.02285,477.95,-0.05725,0.0275,0.982,-0.6,-0.46,0.02,24100.0,18920.0,-33930.0
32.7588621,35.02285,477.95,-0.0655,0.045,0.99125,-0.08,-0.18,0.0,24110.0,18900.0,-33930.0
32.7588621,35.02285,477.95,-0.06925,0.04975,1.005,0.52,0.46,-0.08,24140.0,18950.0,-33930.0
32.7588621,35.02285,477.95,-0.068,0.02425,0.99475,-0.24,0.66,-0.04,24140.0,18950.0,-33930.0
32.7588621,35.02285,477.95,-0.07275,0.02525,0.9875,-0.48,0.32,0.02,24140.0,18910.0,-33930.0
32.7588621,35.02285,477.95,-0.074,0.0525,1.0025,0.52,-0.16,-0.02,24190.0,18880.0,-33930.0
32.7588621,35.02285,477.95,-0.0655,0.05275,0.99725,0.6,-0.44,-0.06,24220.0,18940.0,-33920.0
32.7588621,35.02285,477.95,-0.05925,0.02625,0.98075,-0.66,-0.46,0.02,24200.0,19080.0,-33900.0
32.7588621,35.02285,477.95,-0.067,0.028,0.9885,-0.6,-0.08,0.04,24210.0,19160.0,-33900.0
32.7588621,35.02285,477.95,-0.07475,0.0495,1.01375,0.8,0.46,-0.02,24220.0,19190.0,-33890.0
32.7588621,35.02285,477.95,-0.07175,0.04575,1.00225,0.48,0.62,0.0,24210.0,19160.0,-33890.0
32.7588621,35.02285,477.95,-0.075,0.0335,0.97725,-0.66,0.4,0.06,24190.0,19040.0,-33910.0
32.7588621,35.02285,477.95,-0.08125,0.04375,0.992,-0.22,-0.08,-0.02,24150.0,18960.0,-33920.0
32.7588621,35.02285,477.95,-0.07425,0.04725,1.01275,0.62,-0.46,0.06,24150.0,18950.0,-33920.0
32.7588621,35.02285,477.95,-0.06025,0.03125,0.99725,-0.08,-0.46,-0.02,24160.0,18870.0,-33920.0
32.7588621,35.02285,477.95,-0.0635,0.037,0.98375,-0.44,-0.3,0.04,24160.0,18850.0,-33920.0
32.7588621,35.02285,477.95,-0.0725,0.057,1.0,0.46,0.12,0.02,24110.0,18940.0,-33920.0
32.7588621,35.02285,477.95,-0.072,0.0445,1.00225,0.28,0.54,0.02,24110.0,18970.0,-33920.0
32.7588621,35.02285,477.95,-0.0745,0.0235,0.99175,-0.58,0.54,0.06,24120.0,18870.0,-33930.0
32.7588621,35.02285,477.95,-0.0805,0.0415,0.99875,-0.08,0.04,0.02,24100.0,18900.0,-33930.0
32.7588621,35.02285,477.95,-0.076,0.0645,1.00675,0.9,-0.36,0.06,24070.0,18880.0,-33930.0
32.7588621,35.02285,477.95,-0.06125,0.04525,0.98925,0.0,-0.6,0.0,24090.0,18880.0,-33930.0
32.7588621,35.02285,477.95,-0.06075,0.02775,0.97975,-0.98,-0.44,-0.04,24090.0,18840.0,-33930.0
32.7588621,35.02285,477.95,-0.06875,0.04575,1.00275,0.04,-0.08,0.02,24090.0,18890.0,-33930.0
32.7588621,35.02285,477.95,-0.0685,0.055,1.014,0.84,0.36,-0.06,24090.0,18930.0,-33920.0
32.7588621,35.02285,477.95,-0.0675,0.03825,0.9885,-0.18,0.66,-0.02,24080.0,19030.0,-33920.0
32.7588621,35.02285,477.95,-0.07575,0.03725,0.98,-0.8,0.36,0.08,24060.0,19040.0,-33920.0
32.7588621,35.02285,477.95,-0.079,0.05175,1.0045,0.28,-0.12,0.0,24100.0,19110.0,-33910.0
32.7588621,35.02285,477.95,-0.0645,0.04225,1.00325,0.4,-0.52,0.0,24090.0,19020.0,-33920.0
32.7588621,35.02285,477.95,-0.0565,0.0285,0.9815,-0.54,-0.56,0.04,24120.0,18950.0,-33920.0
32.7588621,35.02285,477.95,-0.064,0.045,0.98975,-0.16,-0.26,0.02,24080.0,18920.0,-33930.0
32.7588621,35.02285,477.95,-0.069,0.05375,1.00725,0.5,0.4,0.0,24070.0,18920.0,-33930.0
32.7588621,35.02285,477.95,-0.06825,0.029,0.9965,-0.24,0.66,0.04,24040.0,18910.0,-33930.0
32.7588621,35.02285,477.95,-0.07375,0.02475,0.98725,-0.58,0.46,0.0,24040.0,18910.0,-33930.0
32.7588621,35.02285,477.95,-0.078,0.053,1.00275,0.5,-0.04,0.02,24060.0,18890.0,-33930.0
32.7588621,35.02285,477.95,-0.06775,0.0565,0.9995,0.58,-0.42,-0.04,24030.0,18910.0,-33930.0
32.7588621,35.02285,477.95,-0.06075,0.02875,0.981,-0.74,-0.48,-0.02,24050.0,18930.0,-33930.0
32.7588621,35.02285,477.95,-0.06625,0.02925,0.98875,-0.68,-0.24,0.02,24100.0,18930.0,-33920.0
32.7588621,35.02285,477.95,-0.0725,0.05075,1.01425,0.72,0.24,0.0,24100.0,18890.0,-33930.0
32.7588621,35.02285,477.95,-0.07,0.0465,1.0035,0.48,0.7,-0.02,24090.0,18850.0,-33930.0
32.7588621,35.02285,477.95,-0.07425,0.0325,0.979,-0.72,0.54,0.0,24070.0,18860.0,-33930.0
32.7588621,35.02285,477.95,-0.081,0.041,0.9905,-0.28,0.0,-0.02,24050.0,18870.0,-33930.0
32.7588621,35.02285,477.95,-0.07425,0.04525,1.0105,0.58,-0.4,-0.04,24100.0,18920.0,-33920.0
32.7588621,35.02285,477.95,-0.06025,0.02925,0.996,-0.06,-0.6,-0.02,24100.0,18960.0,-33920.0
32.7588621,35.02285,477.95,-0.063,0.03475,0.984,-0.52,-0.38,0.0,24070.0,18970.0,-33930.0
32.7588621,35.02285,477.95,-0.07225,0.0535,1.0,0.32,0.08,0.04,24080.0,18950.0,-33930.0
32.7588621,35.02285,477.95,-0.0725,0.04025,1.003,0.2,0.58,0.0,24100.0,18950.0,-33930.0
32.7588621,35.02285,477.95,-0.07375,0.02075,0.99025,-0.56,0.56,0.04,24120.0,19060.0,-33910.0
32.7588621,35.02285,477.95,-0.07825,0.0395,0.996,-0.02,0.06,0.0,24130.0,19020.0,-33910.0
32.7588621,35.02285,477.95,-0.0715,0.061,1.0055,0.86,-0.42,-0.04,24100.0,18970.0,-33920.0
32.7588621,35.02285,477.95,-0.05925,0.04025,0.9885,-0.06,-0.6,0.02,24080.0,18970.0,-33930.0
32.7588621,35.02285,477.95,-0.06,0.02475,0.98125,-0.96,-0.42,0.02,24100.0,18890.0,-33930.0
32.7588621,35.02285,477.95,-0.0705,0.046,1.005,0.2,0.08,0.0,24200.0,18660.0,-33940.0
32.7588621,35.02285,477.95,-0.07075,0.05675,1.011,0.9,0.54,-0.06,24250.0,18530.0,-33940.0
32.7588621,35.02285,477.95,-0.071,0.0375,0.98275,-0.2,0.66,0.0,24270.0,18480.0,-33940.0
32.7588621,35.02285,477.95,-0.07725,0.035,0.9785,-0.74,0.16,0.04,24250.0,18470.0,-33950.0
32.7588621,35.02285,477.95,-0.07725,0.04975,1.00875,0.36,-0.28,0.0,24270.0,18540.0,-33940.0
32.7588621,35.02285,477.95,-0.062,0.04225,1.0065,0.36,-0.58,-0.04,24290.0,18630.0,-33940.0
32.7588621,35.02285,477.95,-0.057,0.0335,0.9805,-0.56,-0.54,-0.06,24290.0,18700.0,-33930.0
32.7588621,35.02285,477.95,-0.065,0.04875,0.98675,-0.14,-0.18,-0.02,24190.0,18820.0,-33930.0
32.7588621,35.02285,477.95,-0.07,0.05075,1.00475,0.48,0.48,0.04,24130.0,18930.0,-33930.0
32.7588621,35.02285,477.95,-0.07075,0.02675,0.998,-0.24,0.72,0.04,24120.0,18960.0,-33930.0
32.7588621,35.02285,477.95,-0.07725,0.03025,0.991,-0.5,0.44,-0.04,24130.0,19000.0,-33930.0
32.7588621,35.02285,477.95,-0.079,0.06125,1.003,0.66,-0.1,0.04,24130.0,19100.0,-33920.0
32.7588621,35.02285,477.95,-0.066,0.05575,0.99525,0.5,-0.54,0.0,24130.0,19070.0,-33920.0
32.7588621,35.02285,477.95,-0.059,0.02775,0.98025,-0.9,-0.62,0.0,24120.0,19040.0,-33920.0
32.7588621,35.02285,477.95,-0.06625,0.03425,0.9945,-0.52,-0.28,-0.02,24100.0,19080.0,-33920.0
32.7588621,35.0228501,477.96,-0.07075,0.0555,1.01675,0.86,0.36,-0.08,24150.0,19170.0,-33910.0
32.7588621,35.0228501,477.96,-0.069,0.047,0.99775,0.32,0.72,-0.04,24150.0,19120.0,-33910.0
32.7588621,35.0228501,477.96,-0.077,0.03625,0.97775,-0.78,0.56,0.02,24100.0,19090.0,-33920.0
32.7588621,35.0228501,477.96,-0.0835,0.0465,0.99725,-0.18,0.0,-0.06,24130.0,18990.0,-33930.0
32.7588621,35.0228501,477.96,-0.07375,0.045,1.01125,0.5,-0.48,0.02,24170.0,18960.0,-33930.0
32.7588621,35.0228501,477.96,-0.06175,0.031,0.99225,-0.22,-0.62,-0.08,24120.0,19000.0,-33930.0
32.7588621,35.0228501,477.96,-0.0645,0.042,0.98425,-0.42,-0.42,0.0,24020.0,19030.0,-33940.0
32.7588621,35.0228501,477.96,-0.0705,0.0555,1.0005,0.38,0.16,-0.06,24030.0,19000.0,-33940.0
32.7588621,35.0228501,477.96,-0.07,0.035,1.00025,-0.04,0.56,-0.08,24060.0,18990.0,-33940.0
32.7588621,35.0228501,477.96,-0.07475,0.0225,0.99225,-0.54,0.56,-0.02,24090.0,19010.0,-33930.0
32.7588621,35.0228501,477.96,-0.08175,0.0505,1.001,0.26,0.08,-0.04,24100.0,19030.0,-33930.0
32.7588621,35.0228501,477.96,-0.07175,0.062,1.00075,0.74,-0.38,-0.04,24070.0,19020.0,-33930.0
32.7588621,35.0228501,477.96,-0.06075,0.036,0.98175,-0.42,-0.68,-0.1,24060.0,19000.0,-33930.0
32.7588621,35.0228501,477.96,-0.0635,0.02825,0.98525,-0.94,-0.52,-0.06,24130.0,18930.0,-33930.0
32.7588621,35.0228501,477.96,-0.06825,0.0475,1.01075,0.4,-0.02,0.0,24150.0,18930.0,-33930.0
32.7588621,35.0228501,477.96,-0.0625,0.047,1.00875,0.6,0.36,-0.02,24100.0,19010.0,-33930.0
32.7588621,35.0228501,477.96,-0.068,0.0355,0.9835,-0.58,0.6,-0.02,24110.0,19000.0,-33930.0
32.7588621,35.0228501,477.96,-0.07675,0.0415,0.987,-0.5,0.26,0.04,24110.0,18920.0,-33930.0
32.7588621,35.0228501,477.96,-0.07125,0.042,1.0055,0.38,-0.14,0.0,24140.0,18870.0,-33930.0
32.7588621,35.0228501,477.96,-0.0575,0.0265,1.00075,-0.1,-0.62,-0.02,24180.0,18910.0,-33930.0
32.7588621,35.02285,477.96,-0.059,0.033,0.9875,-0.42,-0.54,0.08,24180.0,19030.0,-33910.0
32.7588621,35.02285,477.96,-0.06475,0.04975,0.99525,0.22,-0.1,-0.02,24110.0,18990.0,-33920.0
32.7588621,35.02285,477.96,-0.06425,0.03525,1.0005,0.16,0.5,0.06,24080.0,18900.0,-33930.0
32.7588621,35.02285,477.96,-0.069,0.0165,0.996,-0.6,0.76,0.12,24080.0,18910.0,-33930.0
32.7588621,35.02285,477.96,-0.07825,0.0365,0.99875,0.02,0.42,0.02,24050.0,18910.0,-33930.0
32.7588621,35.02285,477.96,-0.07325,0.0555,1.0025,0.98,-0.1,0.04,24080.0,18900.0,-33930.0
32.7588621,35.02285,477.96,-0.0635,0.03825,0.987,-0.02,-0.48,0.08,24130.0,18830.0,-33930.0
