Lat_GNSS,Long_GNSS,Height_GNSS,Acc_X,Acc_Y,Acc_Z,Gyro_X,Gyro_Y,Gyro_Z,Magn_X,Magn_Y,Magn_Z
32.7588601,35.0228483,477.34,-0.07125,0.053,1.001,0.82,-0.42,-0.06,23590.0,17510.0,-34120.0
32.7588601,35.0228483,477.34,-0.06125,0.02375,0.9815,-0.34,-0.34,0.02,23590.0,17510.0,-34130.0
32.7588601,35.0228483,477.34,-0.06475,0.0255,0.98625,-0.84,-0.2,0.06,23580.0,17520.0,-34130.0
32.7588601,35.0228483,477.34,-0.07275,0.055,1.0045,0.56,-0.08,0.04,23620.0,17530.0,-34120.0
32.7588601,35.0228483,477.34,-0.06925,0.04625,1.002,0.44,0.14,-0.06,23630.0,17580.0,-34120.0
32.7588601,35.0228483,477.34,-0.07,0.018,0.9905,-0.8,0.36,0.04,23590.0,17720.0,-34100.0
32.7588601,35.0228483,477.34,-0.07775,0.03275,0.99375,-0.44,0.28,0.04,23600.0,17830.0,-34080.0
32.7588601,35.0228483,477.34,-0.07625,0.05525,1.001,0.9,-0.06,0.0,23660.0,17830.0,-34070.0
32.7588601,35.0228483,477.34,-0.0625,0.0375,0.9905,0.14,-0.06,-0.06,23660.0,17850.0,-34080.0
32.7588601,35.0228483,477.34,-0.05925,0.021,0.988,-1.1,-0.04,0.04,23650.0,17750.0,-34090.0
32.7588601,35.0228483,477.34,-0.071,0.0425,1.00225,0.06,-0.02,0.0,23690.0,17680.0,-34100.0
32.7588601,35.0228483,477.34,-0.072,0.0475,1.00325,0.88,0.18,0.02,23680.0,17660.0,-34100.0
32.7588601,35.0228483,477.34,-0.0705,0.02075,0.99275,-0.18,0.2,0.0,23690.0,17690.0,-34100.0
32.7588601,35.0228483,477.34,-0.07675,0.029,0.99475,-0.62,0.12,0.02,23710.0,17740.0,-34090.0
32.7588601,35.0228483,477.34,-0.08025,0.05625,1.00125,0.62,-0.06,0.0,23710.0,17730.0,-34090.0
32.7588601,35.0228483,477.34,-0.06875,0.0445,0.99375,0.5,-0.22,-0.02,23760.0,17670.0,-34090.0
32.7588601,35.0228482,477.34,-0.062,0.01525,0.9855,-0.92,-0.26,0.0,23810.0,17760.0,-34070.0
32.7588601,35.0228482,477.34,-0.0685,0.035,0.998,-0.46,-0.34,0.08,23780.0,17820.0,-34070.0
32.7588601,35.0228482,477.34,-0.07425,0.0565,1.00625,0.92,-0.08,0.02,23690.0,17840.0,-34090.0
32.7588601,35.0228482,477.34,-0.07025,0.03575,0.99575,0.02,0.14,0.0,23710.0,17800.0,-34090.0
32.7588601,35.0228482,477.34,-0.0745,0.02075,0.98975,-1.08,0.24,0.02,23770.0,17800.0,-34080.0
32.7588601,35.0228482,477.34,-0.08075,0.04325,0.99675,0.0,0.04,0.08,23810.0,17770.0,-34080.0
32.7588601,35.0228482,477.34,-0.0735,0.0505,0.99925,0.84,-0.18,0.0,23810.0,17750.0,-34080.0
32.7588601,35.0228482,477.34,-0.06075,0.02525,0.9905,-0.42,-0.4,0.0,23800.0,17800.0,-34080.0
32.7588601,35.0228482,477.34,-0.06475,0.029,0.9915,-0.86,-0.2,0.06,23800.0,17840.0,-34070.0
32.7588601,35.0228482,477.34,-0.074,0.052,1.00125,0.5,0.04,0.06,23810.0,17870.0,-34070.0
32.7588601,35.0228482,477.34,-0.07175,0.03925,0.997,0.5,0.22,-0.02,23830.0,17970.0,-34060.0
32.7588601,35.0228482,477.34,-0.0705,0.01525,0.991,-0.74,0.12,0.02,23780.0,18050.0,-34050.0
32.7588601,35.0228482,477.34,-0.0765,0.03775,0.99725,-0.28,-0.12,0.06,23780.0,17970.0,-34060.0
32.7588601,35.0228482,477.34,-0.07375,0.0585,0.9995,1.02,-0.3,-0.02,23830.0,17940.0,-34060.0
32.7588601,35.0228482,477.34,-0.0625,0.034,0.99025,0.06,-0.3,-0.04,23850.0,17880.0,-34070.0
32.7588601,35.0228482,477.34,-0.06275,0.019,0.9895,-1.06,-0.18,0.04,23870.0,17880.0,-34060.0
32.7588601,35.0228482,477.34,-0.073,0.0465,1.00175,0.18,-0.02,0.06,23890.0,17920.0,-34050.0
32.7588601,35.0228482,477.34,-0.0725,0.0545,1.001,0.98,0.1,0.02,23890.0,17900.0,-34060.0
32.7588601,35.0228482,477.34,-0.0685,0.02575,0.9895,-0.38,0.16,-0.1,23900.0,17900.0,-34060.0
32.7588601,35.0228482,477.34,-0.07375,0.02625,0.99225,-0.86,0.08,0.06,23920.0,17920.0,-34050.0
32.7588601,35.0228483,477.34,-0.07775,0.05125,1.00175,0.46,-0.06,0.06,23940.0,18020.0,-34040.0
32.7588601,35.0228483,477.34,-0.06575,0.04375,0.9965,0.7,-0.2,-0.08,23920.0,18040.0,-34030.0
32.7588601,35.0228483,477.34,-0.06,0.02325,0.9895,-0.7,-0.22,0.1,23870.0,18020.0,-34040.0
32.7588601,35.0228483,477.34,-0.07025,0.03825,0.9955,-0.48,-0.12,0.06,23840.0,18040.0,-34050.0
32.7588601,35.0228483,477.34,-0.0755,0.04975,1.00125,0.76,0.12,0.06,23810.0,18030.0,-34060.0
32.7588601,35.0228483,477.34,-0.07075,0.02775,0.994,0.12,0.2,-0.06,23860.0,18000.0,-34050.0
32.7588601,35.0228483,477.34,-0.072,0.02225,0.99475,-0.8,0.04,0.02,23850.0,17960.0,-34060.0
32.7588601,35.0228483,477.34,-0.077,0.05175,1.0045,0.3,-0.24,0.06,23870.0,17950.0,-34060.0
32.7588601,35.0228483,477.34,-0.0695,0.05225,0.99925,0.76,-0.34,-0.06,23880.0,17960.0,-34050.0
32.7588601,35.0228483,477.34,-0.062,0.0195,0.9875,-0.58,-0.3,-0.02,23870.0,18040.0,-34040.0
32.7588601,35.0228483,477.34,-0.069,0.0265,0.99475,-0.72,-0.22,0.04,23860.0,18190.0,-34030.0
32.7588601,35.0228483,477.34,-0.07575,0.057,1.0075,0.82,-0.12,0.04,23880.0,18200.0,-34010.0
32.7588601,35.0228483,477.34,-0.07075,0.04575,0.9995,0.6,0.06,-0.02,23940.0,18190.0,-34000.0
32.7588601,35.0228483,477.34,-0.0705,0.01825,0.98875,-0.94,-0.02,0.04,23940.0,18170.0,-34000.0
32.7588601,35.0228483,477.34,-0.078,0.03325,0.9965,-0.46,-0.06,0.08,23930.0,18090.0,-34010.0
32.7588601,35.0228483,477.34,-0.0765,0.05075,1.0,0.98,-0.42,-0.06,23920.0,18020.0,-34020.0
32.7588601,35.0228483,477.34,-0.061,0.03375,0.994,0.32,-0.54,0.0,23960.0,18000.0,-34020.0
32.7588601,35.0228483,477.34,-0.064,0.02775,0.98625,-0.78,-0.54,0.04,24020.0,17940.0,-34020.0
32.7588601,35.0228483,477.34,-0.07225,0.04625,0.996,0.02,-0.2,0.0,24130.0,17690.0,-34040.0
32.7588601,35.0228483,477.34,-0.07225,0.0395,0.9975,0.7,0.08,0.02,24120.0,17590.0,-34060.0
32.7588601,35.0228483,477.34,-0.0675,0.018,0.99175,-0.2,0.08,-0.02,24160.0,17570.0,-34050.0
32.7588601,35.0228483,477.34,-0.07375,0.03675,0.99425,-0.28,-0.06,0.04,24200.0,17570.0,-34040.0
32.7588601,35.0228483,477.34,-0.07425,0.05975,0.9995,0.66,-0.2,0.0,24200.0,17440.0,-34060.0
32.7588601,35.0228483,477.34,-0.06325,0.0385,0.98975,0.18,-0.3,0.02,24170.0,17460.0,-34060.0
32.7588601,35.0228483,477.34,-0.0615,0.016,0.988,-0.96,-0.24,0.0,24100.0,17630.0,-34050.0
32.7588601,35.0228483,477.34,-0.06975,0.04225,1.00125,0.02,-0.12,0.02,24000.0,17760.0,-34050.0
32.7588601,35.0228483,477.34,-0.07,0.0565,1.0055,1.12,0.16,0.0,23960.0,17770.0,-34040.0
32.7588601,35.0228483,477.34,-0.06675,0.03075,0.99175,-0.08,0.36,-0.04,24000.0,17760.0,-34030.0
32.7588601,35.0228483,477.34,-0.0725,0.024,0.98925,-1.04,0.28,0.04,24010.0,17840.0,-34030.0
32.7588601,35.0228483,477.34,-0.07725,0.047,1.0025,0.4,0.0,-0.04,24030.0,17870.0,-34020.0
32.7588601,35.0228483,477.34,-0.06625,0.047,1.00175,0.88,-0.26,-0.04,24060.0,17950.0,-34010.0
32.7588601,35.0228483,477.34,-0.059,0.025,0.98825,-0.58,-0.42,0.02,24010.0,17930.0,-34020.0
32.7588601,35.0228483,477.34,-0.06875,0.03525,0.9915,-0.7,-0.16,0.02,24020.0,17870.0,-34020.0
32.7588601,35.0228483,477.34,-0.076,0.04725,1.00175,0.62,0.2,-0.04,24030.0,17840.0,-34020.0
32.7588601,35.0228483,477.34,-0.072,0.029,0.99725,0.34,0.42,-0.04,24040.0,17890.0,-34020.0
32.7588601,35.0228483,477.34,-0.07225,0.02275,0.99375,-0.62,0.2,0.06,24070.0,17930.0,-34000.0
32.7588601,35.0228483,477.34,-0.07775,0.0495,0.99925,0.02,-0.18,0.06,24080.0,17910.0,-34000.0
32.7588601,35.0228483,477.34,-0.071,0.05075,0.99675,0.68,-0.48,0.0,24070.0,17880.0,-34000.0
32.7588601,35.0228483,477.34,-0.0635,0.01925,0.98625,-0.54,-0.34,-0.02,24040.0,17880.0,-34010.0
32.7588601,35.0228483,477.34,-0.06875,0.0275,0.9955,-0.8,-0.16,0.04,24020.0,17840.0,-34010.0
32.7588601,35.0228483,477.34,-0.07625,0.05625,1.0075,0.78,0.08,0.0,24080.0,17920.0,-33990.0
32.7588602,35.0228483,477.34,-0.071,0.0475,0.99675,0.6,0.2,-0.02,24080.0,18070.0,-33970.0
32.7588602,35.0228483,477.34,-0.071,0.02025,0.985,-0.82,0.1,0.0,24120.0,18150.0,-33950.0
32.7588602,35.0228483,477.34,-0.07875,0.03225,0.9935,-0.52,-0.1,0.04,24100.0,18150.0,-33960.0
32.7588602,35.0228483,477.34,-0.0755,0.0505,1.005,0.86,-0.36,-0.04,24050.0,18100.0,-33980.0
32.7588602,35.0228483,477.34,-0.06075,0.03475,0.99525,0.26,-0.42,-0.02,24070.0,17980.0,-33990.0
32.7588602,35.0228483,477.34,-0.06025,0.0285,0.98825,-0.92,-0.48,0.06,24070.0,17940.0,-33990.0
32.7588602,35.0228483,477.34,-0.07075,0.04425,0.9955,-0.2,-0.06,0.0,24050.0,17920.0,-34000.0
32.7588602,35.0228483,477.34,-0.06975,0.039,0.99725,0.66,0.14,0.02,24100.0,17910.0,-34000.0
32.7588602,35.0228483,477.34,-0.067,0.0185,0.99275,-0.26,0.16,0.0,24090.0,17900.0,-34000.0
32.7588602,35.0228483,477.34,-0.07325,0.03625,0.99775,-0.48,-0.08,0.04,24100.0,18050.0,-33980.0
32.7588602,35.0228483,477.34,-0.074,0.05975,1.00275,0.7,-0.3,0.0,24110.0,18110.0,-33960.0
32.7588602,35.0228483,477.34,-0.063,0.038,0.99125,0.14,-0.34,-0.04,24130.0,18150.0,-33960.0
32.7588602,35.0228483,477.34,-0.0585,0.0165,0.98675,-0.94,-0.22,0.04,24100.0,18220.0,-33950.0
32.7588602,35.0228483,477.34,-0.067,0.0405,1.00025,-0.14,-0.2,0.04,24110.0,18210.0,-33950.0
32.7588602,35.0228483,477.34,-0.068,0.059,1.00575,1.04,0.08,0.02,24110.0,18080.0,-33970.0
32.7588602,35.0228483,477.34,-0.06575,0.0335,0.9915,-0.2,0.3,-0.02,24100.0,18050.0,-33970.0
32.7588602,35.0228483,477.34,-0.07375,0.023,0.989,-1.12,0.24,0.08,24120.0,18010.0,-33980.0
32.7588602,35.0228483,477.34,-0.08025,0.04575,1.0015,0.18,0.04,0.0,24110.0,18060.0,-33980.0
32.7588602,35.0228483,477.34,-0.069,0.04625,1.001,0.86,-0.18,-0.06,24100.0,18130.0,-33970.0
32.7588601,35.0228483,477.33,-0.059,0.025,0.98875,-0.52,-0.36,-0.04,24160.0,18160.0,-33950.0
32.7588601,35.0228483,477.33,-0.0665,0.0345,0.9905,-0.72,-0.28,0.14,24150.0,18220.0,-33940.0
32.7588601,35.0228483,477.33,-0.0725,0.0475,1.00175,0.56,-0.08,-0.06,24150.0,18120.0,-33960.0
32.7588601,35.0228483,477.33,-0.069,0.02825,0.9975,0.34,0.38,-0.08,24130.0,18050.0,-33970.0
32.7588601,35.0228483,477.33,-0.07275,0.02,0.9935,-0.6,0.36,-0.02,24110.0,18080.0,-33980.0
32.7588601,35.0228483,477.33,-0.07825,0.048,0.99975,0.12,0.06,0.0,24110.0,18100.0,-33980.0
32.7588601,35.0228483,477.33,-0.073,0.05225,0.99425,0.84,-0.18,-0.04,24110.0,18100.0,-33980.0
32.7588601,35.0228483,477.33,-0.06275,0.021,0.98325,-0.4,-0.3,0.0,24140.0,18060.0,-33980.0
32.7588601,35.0228483,477.33,-0.06575,0.0245,0.994,-0.8,-0.3,0.04,24130.0,18080.0,-33980.0
32.7588601,35.0228483,477.33,-0.0735,0.05475,1.01,0.66,0.06,0.02,24100.0,18090.0,-33980.0
32.7588601,35.0228483,477.33,-0.069,0.0485,1.001,0.68,0.24,-0.02,24160.0,18100.0,-33970.0
32.7588601,35.0228483,477.33,-0.069,0.0215,0.98525,-0.86,0.32,0.0,24210.0,18090.0,-33960.0
32.7588601,35.0228483,477.33,-0.077,0.03325,0.992,-0.66,0.1,0.1,24160.0,18070.0,-33970.0
32.7588601,35.0228483,477.33,-0.07425,0.0515,1.00375,0.78,-0.2,0.04,24130.0,18040.0,-33980.0
32.7588601,35.0228483,477.33,-0.06025,0.035,0.99725,0.28,-0.4,-0.04,24140.0,18020.0,-33990.0
32.7588601,35.0228483,477.33,-0.06025,0.02675,0.9905,-0.94,-0.4,0.1,24120.0,18060.0,-33980.0
32.7588601,35.0228483,477.33,-0.0705,0.04425,0.99775,-0.16,-0.14,0.06,24160.0,18090.0,-33970.0
32.7588601,35.0228483,477.33,-0.071,0.0415,0.998,0.7,0.24,0.0,24180.0,18180.0,-33950.0
32.7588601,35.0228483,477.33,-0.06775,0.01925,0.99225,-0.24,0.28,-0.04,24140.0,18170.0,-33960.0
32.7588601,35.0228483,477.33,-0.07325,0.034,0.997,-0.54,-0.02,0.04,24190.0,18100.0,-33960.0
32.7588602,35.0228482,477.32,-0.0745,0.058,1.00275,0.62,-0.3,0.0,24220.0,18160.0,-33950.0
32.7588602,35.0228482,477.32,-0.06275,0.039,0.99375,0.32,-0.4,-0.04,24200.0,18200.0,-33950.0
32.7588602,35.0228482,477.32,-0.0595,0.01725,0.9885,-0.98,-0.38,0.04,24150.0,18170.0,-33960.0
32.7588602,35.0228482,477.32,-0.069,0.04075,1.00025,-0.3,-0.28,0.12,24170.0,18090.0,-33970.0
32.7588602,35.0228482,477.32,-0.07025,0.058,1.00675,0.98,-0.08,0.04,24180.0,18080.0,-33970.0
32.7588602,35.0228482,477.32,-0.06825,0.03275,0.993,-0.1,0.08,0.04,24200.0,18130.0,-33960.0
32.7588602,35.0228482,477.32,-0.07475,0.02225,0.98875,-1.12,0.0,0.04,24180.0,18110.0,-33960.0
32.7588602,35.0228482,477.32,-0.08,0.04275,0.9985,0.08,-0.26,0.1,24150.0,18110.0,-33970.0
32.7588602,35.0228482,477.32,-0.06875,0.04325,0.999,0.76,-0.54,0.04,24140.0,18160.0,-33960.0
32.7588602,35.0228482,477.32,-0.05925,0.02225,0.9895,-0.5,-0.74,0.0,24150.0,18100.0,-33970.0
32.7588602,35.0228482,477.32,-0.0675,0.0315,0.9895,-0.92,-0.7,0.08,24160.0,18180.0,-33950.0
32.7588602,35.0228482,477.32,-0.07425,0.044,0.9955,0.34,-0.4,0.1,24140.0,18260.0,-33940.0
32.7588602,35.0228482,477.32,-0.071,0.026,0.99375,0.38,-0.08,0.08,24160.0,18250.0,-33940.0
32.7588602,35.0228482,477.32,-0.07175,0.0175,0.99325,-0.7,-0.1,0.06,24200.0,18230.0,-33930.0
32.7588602,35.0228482,477.32,-0.079,0.0455,0.99875,-0.2,-0.44,0.12,24230.0,18250.0,-33930.0
32.7588602,35.0228482,477.32,-0.0715,0.0505,0.997,0.62,-0.76,0.08,24240.0,18220.0,-33930.0
32.7588602,35.0228482,477.32,-0.06,0.02275,0.9885,-0.28,-0.92,0.08,24220.0,18180.0,-33940.0
32.7588602,35.0228482,477.32,-0.06375,0.026,0.99275,-0.94,-0.84,0.16,24180.0,18100.0,-33950.0
32.7588602,35.0228482,477.32,-0.07125,0.05175,1.00125,0.18,-0.6,0.16,24190.0,18070.0,-33960.0
32.7588602,35.0228482,477.32,-0.0655,0.047,1.002,0.66,-0.36,0.06,24150.0,18020.0,-33970.0
32.7588602,35.0228482,477.31,-0.066,0.02425,0.997,-0.68,-0.2,0.12,24120.0,18130.0,-33960.0
32.7588602,35.0228482,477.31,-0.077,0.0355,0.9955,-0.9,-0.34,0.14,24090.0,18170.0,-33950.0
32.7588602,35.0228482,477.31,-0.07125,0.0505,0.9995,0.34,-0.62,0.04,24150.0,18080.0,-33960.0
32.7588602,35.0228482,477.31,-0.05625,0.03825,0.9995,0.34,-0.92,0.04,24180.0,18040.0,-33960.0
32.7588602,35.0228482,477.31,-0.0565,0.03325,1.00075,-0.76,-1.02,0.08,24210.0,17970.0,-33960.0
32.7588602,35.0228482,477.31,-0.066,0.04725,0.9985,-0.7,-0.74,0.14,24190.0,17920.0,-33970.0
32.7588602,35.0228482,477.31,-0.0635,0.043,0.997,0.34,-0.32,0.0,24140.0,17900.0,-33980.0
32.7588602,35.0228482,477.31,-0.06175,0.02725,1.0015,0.12,-0.08,0.1,24150.0,17940.0,-33970.0
32.7588602,35.0228482,477.31,-0.0695,0.041,1.0045,-0.46,0.1,0.04,24150.0,18010.0,-33960.0
32.7588602,35.0228482,477.31,-0.07125,0.05925,0.999,-0.02,-0.16,0.0,24130.0,18100.0,-33960.0
32.7588602,35.0228482,477.31,-0.0625,0.042,0.991,0.38,-0.32,0.0,24100.0,18120.0,-33950.0
32.7588602,35.0228482,477.31,-0.06,0.024,0.99075,-0.62,-0.54,0.06,24110.0,18060.0,-33970.0
32.7588602,35.0228482,477.31,-0.06675,0.0425,0.99575,-0.64,-0.44,0.08,24100.0,17990.0,-33970.0
32.7588602,35.0228482,477.31,-0.068,0.05675,1.0,0.6,-0.2,0.06,24080.0,17990.0,-33970.0
32.7588602,35.0228482,477.31,-0.06425,0.0365,0.995,0.22,0.34,0.04,24060.0,18020.0,-33980.0
32.7588602,35.0228482,477.31,-0.072,0.02525,0.99075,-0.84,0.42,0.02,24070.0,18020.0,-33970.0
32.7588602,35.0228482,477.31,-0.07925,0.04275,0.9895,-0.34,0.2,0.08,24100.0,18020.0,-33960.0
32.7588602,35.0228482,477.31,-0.0695,0.044,0.99075,0.62,-0.22,0.02,24130.0,17950.0,-33970.0
32.7588602,35.0228482,477.31,-0.0605,0.02575,0.989,-0.16,-0.46,-0.02,24130.0,17960.0,-33970.0
32.7588602,35.0228482,477.31,-0.066,0.03225,0.9925,-0.82,-0.48,0.16,24080.0,17990.0,-33970.0
32.7588602,35.0228482,477.31,-0.07125,0.044,0.99375,0.04,-0.1,0.06,24100.0,18080.0,-33950.0
32.7588602,35.0228482,477.31,-0.06625,0.02875,0.992,0.44,0.26,0.06,24120.0,18090.0,-33950.0
32.7588602,35.0228482,477.31,-0.06925,0.0155,0.993,-0.44,0.38,0.1,24110.0,17990.0,-33960.0
32.7588602,35.0228482,477.31,-0.07625,0.0395,0.997,-0.2,0.24,0.0,24180.0,17840.0,-33970.0
32.7588602,35.0228482,477.31,-0.0715,0.0485,0.99775,0.72,-0.14,0.02,24250.0,17680.0,-33990.0
32.7588602,35.0228482,477.31,-0.06125,0.02125,0.992,0.0,-0.36,0.0,24230.0,17640.0,-34010.0
32.7588602,35.0228482,477.31,-0.06075,0.0175,0.993,-0.86,-0.34,0.04,24240.0,17540.0,-34020.0
32.7588602,35.0228482,477.31,-0.06625,0.0445,1.002,0.26,-0.14,-0.02,24280.0,17480.0,-34020.0
32.7588602,35.0228482,477.31,-0.065,0.044,1.00475,1.0,0.2,-0.04,24290.0,17480.0,-34020.0
32.7588602,35.0228482,477.31,-0.0665,0.01675,0.997,-0.46,0.46,0.02,24270.0,17660.0,-34000.0
32.7588602,35.0228482,477.31,-0.07525,0.02475,0.99575,-0.76,0.36,0.04,24200.0,17900.0,-33980.0
32.7588602,35.0228482,477.31,-0.07525,0.0455,1.001,0.78,-0.02,-0.02,24150.0,17980.0,-33980.0
32.7588602,35.0228482,477.31,-0.06075,0.036,0.9965,0.7,-0.38,-0.06,24090.0,18000.0,-33970.0
32.7588602,35.0228482,477.31,-0.05625,0.02225,0.99175,-0.74,-0.6,0.04,24130.0,18080.0,-33960.0
32.7588602,35.0228482,477.31,-0.06575,0.037,0.99675,-0.5,-0.38,0.08,24180.0,18170.0,-33930.0
32.7588602,35.0228482,477.31,-0.069,0.04175,1.00125,0.8,0.22,0.06,24230.0,18150.0,-33930.0
32.7588602,35.0228482,477.31,-0.064,0.02475,0.99925,0.3,0.56,0.0,24230.0,18190.0,-33920.0
32.7588602,35.0228482,477.31,-0.069,0.03325,0.998,-0.56,0.42,0.04,24240.0,18200.0,-33910.0
32.7588602,35.0228482,477.31,-0.07325,0.05775,0.9985,0.28,-0.04,-0.02,24200.0,18130.0,-33930.0
32.7588602,35.0228482,477.31,-0.0645,0.045,0.9905,0.66,-0.32,-0.02,24200.0,18050.0,-33940.0
32.7588602,35.0228482,477.31,-0.0575,0.0175,0.9865,-0.64,-0.4,0.06,24210.0,18100.0,-33930.0
32.7588603,35.0228482,477.32,-0.06525,0.038,0.99675,-0.46,-0.14,0.02,24250.0,18200.0,-33910.0
32.7588603,35.0228482,477.32,-0.06975,0.0635,1.00675,1.1,0.24,0.0,24290.0,18240.0,-33900.0
32.7588603,35.0228482,477.32,-0.06575,0.0445,0.99625,0.5,0.6,-0.02,24280.0,18210.0,-33910.0
32.7588603,35.0228482,477.32,-0.0695,0.02425,0.9845,-1.02,0.54,0.06,24250.0,18140.0,-33930.0
32.7588603,35.0228482,477.32,-0.07725,0.043,0.9915,-0.32,0.12,0.02,24280.0,18030.0,-33940.0
32.7588603,35.0228482,477.32,-0.069,0.055,1.00175,1.12,-0.3,-0.02,24290.0,18020.0,-33930.0
32.7588603,35.0228482,477.32,-0.056,0.0375,0.9965,0.06,-0.38,-0.06,24250.0,18040.0,-33940.0
32.7588603,35.0228482,477.32,-0.061,0.038,0.99275,-1.0,-0.14,0.08,24260.0,17990.0,-33950.0
32.7588603,35.0228482,477.32,-0.0695,0.0515,0.996,0.06,0.22,0.06,24290.0,17980.0,-33940.0
32.7588603,35.0228482,477.32,-0.068,0.03825,0.996,0.72,0.58,-0.1,24290.0,18070.0,-33930.0
32.7588603,35.0228482,477.32,-0.0675,0.02125,0.993,-0.44,0.54,-0.06,24300.0,18060.0,-33930.0
32.7588603,35.0228482,477.32,-0.076,0.04575,1.00025,-0.42,0.24,0.0,24280.0,18000.0,-33940.0
32.7588603,35.0228482,477.32,-0.073,0.05875,1.00275,0.68,-0.1,-0.04,24270.0,18010.0,-33950.0
32.7588603,35.0228482,477.32,-0.06125,0.033,0.99175,0.04,-0.22,-0.1,24290.0,17960.0,-33950.0
32.7588603,35.0228482,477.32,-0.0585,0.02125,0.99025,-1.04,-0.2,0.04,24300.0,17960.0,-33940.0
32.7588603,35.0228482,477.32,-0.06775,0.0455,1.00275,-0.04,0.0,-0.02,24290.0,17980.0,-33950.0
32.7588603,35.0228482,477.32,-0.066,0.049,1.00625,0.86,0.32,0.02,24280.0,18000.0,-33940.0
32.7588603,35.0228482,477.32,-0.06575,0.0235,0.995,-0.4,0.56,-0.04,24330.0,18080.0,-33920.0
32.7588603,35.0228482,477.32,-0.07575,0.0265,0.99175,-1.02,0.34,0.06,24330.0,18130.0,-33920.0
32.7588603,35.0228482,477.32,-0.07725,0.0445,0.99875,0.34,-0.1,0.08,24360.0,18150.0,-33910.0
32.7588603,35.0228482,477.32,-0.06225,0.034,0.996,0.44,-0.54,-0.02,24370.0,18170.0,-33900.0
32.7588603,35.0228482,477.32,-0.0565,0.01975,0.99,-0.88,-0.64,0.02,24330.0,18070.0,-33930.0
32.7588603,35.0228482,477.32,-0.068,0.03625,0.99425,-0.6,-0.46,0.06,24300.0,18030.0,-33940.0
32.7588603,35.0228482,477.32,-0.07,0.04075,0.9995,0.52,0.02,-0.06,24250.0,18040.0,-33950.0
32.7588603,35.0228482,477.32,-0.06625,0.0215,0.9955,0.0,0.28,0.04,24210.0,18100.0,-33950.0
32.7588603,35.0228482,477.32,-0.07375,0.02625,0.99375,-0.7,0.26,0.0,24190.0,18120.0,-33950.0
32.7588603,35.0228482,477.32,-0.07775,0.04625,0.9945,0.1,-0.18,0.04,24200.0,18110.0,-33950.0
32.7588603,35.0228482,477.32,-0.0655,0.03825,0.9885,0.48,-0.52,0.0,24200.0,18110.0,-33950.0
32.7588603,35.0228482,477.32,-0.0615,0.01875,0.98625,-0.56,-0.62,0.04,24160.0,18130.0,-33960.0
32.7588603,35.0228482,477.32,-0.06875,0.0345,0.99625,-0.58,-0.42,0.0,24130.0,18220.0,-33940.0
32.7588603,35.0228482,477.32,-0.0685,0.05325,1.00525,0.7,-0.1,0.0,24170.0,18220.0,-33940.0
32.7588603,35.0228482,477.32,-0.064,0.038,1.002,0.28,0.16,-0.1,24140.0,18150.0,-33950.0
32.7588603,35.0228482,477.32,-0.06875,0.027,0.9965,-0.96,0.08,0.12,24160.0,18120.0,-33950.0
32.7588603,35.0228482,477.32,-0.074,0.0415,0.998,-0.46,-0.22,0.04,24190.0,18190.0,-33930.0
32.7588603,35.0228482,477.32,-0.0645,0.045,1.00125,0.66,-0.58,-0.02,24150.0,18310.0,-33930.0
32.7588603,35.0228482,477.32,-0.05525,0.03,0.99925,-0.14,-0.64,0.06,24130.0,18360.0,-33920.0
32.7588603,35.0228482,477.32,-0.063,0.03425,0.9975,-0.96,-0.46,0.08,24150.0,18370.0,-33900.0
32.7588603,35.0228482,477.32,-0.069,0.038,0.99775,-0.06,-0.08,0.06,24160.0,18330.0,-33920.0
32.7588603,35.0228482,477.32,-0.06625,0.0225,0.9955,0.46,0.24,-0.02,24190.0,18220.0,-33930.0
32.7588603,35.0228481,477.32,-0.064,0.02175,0.9965,-0.2,0.32,-0.02,24210.0,18240.0,-33920.0
32.7588603,35.0228481,477.32,-0.0675,0.04825,1.00125,-0.02,0.04,0.04,24190.0,18270.0,-33920.0
32.7588603,35.0228481,477.32,-0.06225,0.04975,0.99775,0.5,-0.22,-0.02,24170.0,18160.0,-33940.0
32.7588603,35.0228481,477.32,-0.0565,0.02525,0.98975,-0.26,-0.34,-0.02,24200.0,18060.0,-33940.0
32.7588603,35.0228481,477.32,-0.0635,0.0275,0.99225,-0.76,-0.18,0.08,24220.0,18040.0,-33950.0
32.7588603,35.0228481,477.32,-0.072,0.0515,0.99825,0.5,0.14,0.02,24230.0,17990.0,-33950.0
32.7588603,35.0228481,477.32,-0.067,0.049,0.99875,0.7,0.42,0.02,24250.0,18000.0,-33940.0
32.7588603,35.0228481,477.32,-0.0675,0.03125,0.993,-0.62,0.38,0.1,24270.0,17980.0,-33940.0
32.7588603,35.0228481,477.32,-0.07425,0.03625,0.99175,-0.86,0.1,0.16,24290.0,17950.0,-33940.0
32.7588603,35.0228481,477.32,-0.069,0.04275,0.993,0.3,-0.42,0.0,24290.0,17930.0,-33940.0
32.7588603,35.0228481,477.32,-0.05525,0.03475,0.996,0.32,-0.62,0.0,24300.0,18040.0,-33930.0
32.7588603,35.0228481,477.32,-0.05675,0.034,0.996,-0.56,-0.48,0.1,24300.0,18080.0,-33920.0
32.7588603,35.0228481,477.32,-0.06775,0.041,0.9935,-0.56,0.04,0.06,24310.0,17970.0,-33930.0
32.7588603,35.0228481,477.32,-0.06775,0.027,0.991,0.28,0.52,0.06,24320.0,17920.0,-33930.0
32.7588603,35.0228481,477.32,-0.0665,0.013,0.99225,-0.12,0.58,-0.02,24310.0,17890.0,-33950.0
32.7588603,35.0228481,477.32,-0.07375,0.032,0.99825,-0.18,0.14,0.02,24290.0,17920.0,-33950.0
32.7588603,35.0228481,477.32,-0.07075,0.049,0.9995,0.54,-0.24,0.02,24290.0,17970.0,-33940.0
32.7588603,35.0228481,477.32,-0.05825,0.03275,0.99475,0.18,-0.52,-0.12,24260.0,18060.0,-33930.0
32.7588603,35.0228481,477.32,-0.0585,0.0225,0.9955,-0.7,-0.46,0.04,24310.0,18100.0,-33920.0
32.7588603,35.0228481,477.32,-0.066,0.046,1.00475,-0.06,0.0,-0.02,24320.0,18010.0,-33930.0
32.7588603,35.0228482,477.33,-0.06525,0.05525,1.01025,0.84,0.34,-0.02,24310.0,18090.0,-33920.0
32.7588603,35.0228482,477.33,-0.0655,0.03125,1.0015,-0.28,0.64,0.08,24340.0,18060.0,-33920.0
32.7588603,35.0228482,477.33,-0.0755,0.023,0.99475,-0.98,0.42,0.02,24350.0,17960.0,-33930.0
32.7588603,35.0228482,477.33,-0.07925,0.037,0.9925,0.16,-0.04,0.08,24310.0,17990.0,-33940.0
32.7588603,35.0228482,477.33,-0.064,0.035,0.992,0.84,-0.44,-0.06,24290.0,18010.0,-33940.0
32.7588603,35.0228482,477.33,-0.05725,0.02475,0.99,-0.36,-0.56,0.0,24260.0,17950.0,-33950.0
32.7588603,35.0228482,477.33,-0.06775,0.037,0.9915,-0.76,-0.24,0.04,24270.0,17970.0,-33950.0
32.7588603,35.0228482,477.33,-0.071,0.042,0.99575,0.54,0.22,0.0,24280.0,17930.0,-33960.0
32.7588603,35.0228482,477.33,-0.06675,0.03075,1.0005,0.4,0.58,0.02,24310.0,17970.0,-33950.0
32.7588603,35.0228482,477.33,-0.073,0.0375,1.005,-0.5,0.4,-0.04,24300.0,17980.0,-33950.0
32.7588603,35.0228482,477.33,-0.07525,0.054,0.99875,0.0,-0.08,0.06,24330.0,18020.0,-33930.0
32.7588603,35.0228482,477.33,-0.06375,0.03575,0.9825,0.4,-0.44,-0.04,24350.0,17970.0,-33940.0
32.7588603,35.0228482,477.33,-0.0595,0.01075,0.97375,-0.44,-0.46,0.06,24370.0,17950.0,-33940.0
32.7588603,35.0228482,477.33,-0.0665,0.02375,0.9835,-0.34,-0.18,-0.04,24350.0,18020.0,-33940.0
32.7588603,35.0228482,477.33,-0.0675,0.04075,0.997,0.96,0.28,-0.06,24310.0,18050.0,-33940.0
32.7588603,35.0228482,477.33,-0.065,0.0325,0.994,0.58,0.56,-0.02,24350.0,18130.0,-33930.0
32.7588603,35.0228482,477.33,-0.0705,0.0245,0.9875,-0.62,0.38,0.08,24370.0,18200.0,-33910.0
32.7588603,35.0228482,477.33,-0.075,0.04,0.987,-0.1,-0.12,0.0,24370.0,18260.0,-33910.0
32.7588603,35.0228482,477.33,-0.0655,0.0525,0.9995,1.0,-0.66,-0.08,24360.0,18300.0,-33900.0
32.7588603,35.0228482,477.33,-0.05275,0.05075,1.01,0.12,-0.74,-0.08,24330.0,18320.0,-33910.0
32.7588603,35.0228482,477.32,-0.0575,0.0575,1.01325,-0.86,-0.3,0.02,24380.0,18270.0,-33910.0
32.7588603,35.0228482,477.32,-0.06625,0.06125,1.013,-0.28,0.26,-0.02,24420.0,18230.0,-33900.0
32.7588603,35.0228482,477.32,-0.066,0.04625,1.0105,0.16,0.7,-0.06,24350.0,18180.0,-33930.0
32.7588603,35.0228482,477.32,-0.06825,0.03725,1.00825,-0.66,0.64,-0.06,24310.0,18140.0,-33940.0
32.7588603,35.0228482,477.32,-0.076,0.055,1.01075,-0.68,0.1,0.04,24330.0,18110.0,-33940.0
32.7588603,35.0228482,477.32,-0.0715,0.05475,1.0105,-0.04,-0.32,-0.06,24360.0,18080.0,-33940.0
32.7588603,35.0228482,477.32,-0.06075,0.02425,1.00125,-0.6,-0.46,-0.02,24390.0,18060.0,-33940.0
32.7588603,35.0228482,477.32,-0.06425,0.0215,0.99825,-1.12,-0.22,-0.06,24370.0,18050.0,-33940.0
32.7588603,35.0228482,477.32,-0.07225,0.04375,1.0035,0.24,0.22,-0.04,24340.0,18130.0,-33940.0
32.7588603,35.0228482,477.32,-0.066,0.044,1.0025,0.5,0.52,-0.12,24410.0,17980.0,-33950.0
32.7588603,35.0228482,477.32,-0.073,0.027,0.99525,-0.74,0.4,-0.08,24510.0,17850.0,-33950.0
32.7588603,35.0228482,477.32,-0.0835,0.03575,0.9935,-0.88,0.18,-0.04,24530.0,17740.0,-33960.0
32.7588603,35.0228482,477.32,-0.07575,0.0425,0.99525,0.48,-0.2,-0.04,24530.0,17660.0,-33980.0
32.7588603,35.0228482,477.32,-0.061,0.034,0.99375,0.2,-0.6,0.0,24560.0,17570.0,-33980.0
32.7588603,35.0228482,477.32,-0.06075,0.041,0.9885,-0.9,-0.52,0.0,24580.0,17620.0,-33970.0
32.7588603,35.0228482,477.32,-0.06825,0.0485,0.989,-0.48,-0.04,0.02,24530.0,17800.0,-33950.0
32.7588603,35.0228482,477.32,-0.069,0.03325,0.992,-0.04,0.44,0.02,24480.0,18000.0,-33930.0
32.7588603,35.0228482,477.32,-0.071,0.02275,0.99175,-0.58,0.64,0.06,24440.0,18110.0,-33920.0
32.7588603,35.0228482,477.32,-0.07725,0.04075,0.99175,-0.6,0.26,0.06,24410.0,18100.0,-33920.0
32.7588603,35.0228482,477.32,-0.07275,0.045,0.9875,0.12,-0.32,0.0,24420.0,18120.0,-33920.0
32.7588603,35.0228482,477.32,-0.06075,0.02525,0.9845,-0.4,-0.66,0.02,24440.0,18220.0,-33900.0
32.7588603,35.0228482,477.33,-0.05875,0.0235,0.98725,-1.14,-0.58,0.02,24450.0,18330.0,-33880.0
32.7588603,35.0228482,477.33,-0.06025,0.04075,0.9945,-0.22,-0.12,0.02,24460.0,18360.0,-33870.0
32.7588603,35.0228482,477.33,-0.0575,0.03875,0.99975,0.44,0.16,-0.06,24490.0,18380.0,-33870.0
32.7588603,35.0228482,477.33,-0.061,0.02575,0.99675,-0.68,0.42,0.0,24450.0,18320.0,-33880.0
32.7588603,35.0228482,477.33,-0.071,0.02825,0.993,-1.02,0.3,-0.02,24450.0,18270.0,-33890.0
32.7588603,35.0228482,477.33,-0.07025,0.03675,0.995,0.26,-0.08,-0.1,24420.0,18230.0,-33890.0
32.7588603,35.0228482,477.33,-0.05375,0.035,1.00075,0.24,-0.54,-0.1,24380.0,18210.0,-33900.0
32.7588603,35.0228482,477.33,-0.05075,0.03325,1.0025,-0.92,-0.66,-0.06,24380.0,18160.0,-33920.0
32.7588603,35.0228482,477.33,-0.05725,0.03875,1.0005,-0.86,-0.34,0.02,24400.0,18150.0,-33910.0
32.7588603,35.0228482,477.33,-0.0595,0.03075,1.00325,0.1,0.24,-0.04,24390.0,18250.0,-33900.0
32.7588603,35.0228482,477.33,-0.0625,0.0205,1.0065,-0.34,0.64,0.02,24400.0,18210.0,-33900.0
32.7588603,35.0228482,477.33,-0.071,0.035,1.00925,-0.82,0.52,-0.02,24420.0,18120.0,-33910.0
32.7588603,35.0228482,477.33,-0.075,0.0525,1.009,-0.16,0.06,0.0,24390.0,18120.0,-33910.0
32.7588603,35.0228482,477.33,-0.0655,0.03875,1.0055,-0.28,-0.4,-0.04,24390.0,18110.0,-33910.0
32.7588603,35.0228482,477.33,-0.06575,0.02125,1.00475,-1.34,-0.42,0.0,24400.0,18140.0,-33910.0
32.7588603,35.0228482,477.33,-0.07325,0.04275,1.0105,-0.86,-0.08,-0.02,24350.0,18230.0,-33900.0
32.7588603,35.0228482,477.33,-0.07275,0.05825,1.0175,0.36,0.42,-0.02,24300.0,18330.0,-33900.0
32.7588603,35.0228482,477.33,-0.07275,0.04325,1.01325,-0.7,0.68,-0.06,24320.0,18390.0,-33880.0
32.7588603,35.0228482,477.33,-0.084,0.03525,1.00525,-1.86,0.56,-0.06,24340.0,18420.0,-33870.0
32.7588603,35.0228482,477.33,-0.08525,0.045,1.0025,-0.76,0.06,-0.08,24340.0,18430.0,-33870.0
32.7588603,35.0228482,477.33,-0.074,0.04175,1.00425,0.12,-0.44,-0.22,24340.0,18430.0,-33870.0
32.7588603,35.0228482,477.33,-0.067,0.03275,1.00025,-1.06,-0.56,-0.12,24340.0,18440.0,-33870.0
32.7588603,35.0228482,477.33,-0.07275,0.0415,0.9975,-1.42,-0.32,-0.08,24300.0,18390.0,-33880.0
32.7588603,35.0228482,477.33,-0.07825,0.03575,0.9955,-0.22,0.16,-0.1,24310.0,18300.0,-33890.0
32.7588603,35.0228482,477.33,-0.078,0.01525,0.99325,-0.32,0.52,-0.14,24300.0,18240.0,-33900.0
32.7588603,35.0228482,477.33,-0.08025,0.01875,0.99125,-1.04,0.34,-0.1,24220.0,18250.0,-33910.0
32.7588603,35.0228482,477.33,-0.0815,0.0365,0.99,-0.2,-0.22,-0.1,24240.0,18210.0,-33910.0
32.7588603,35.0228482,477.33,-0.07075,0.029,0.98575,0.26,-0.8,-0.18,24290.0,18170.0,-33900.0
32.7588603,35.0228482,477.33,-0.06675,0.01475,0.98275,-0.72,-0.86,-0.02,24260.0,18160.0,-33910.0
32.7588603,35.0228482,477.33,-0.0685,0.02625,0.98475,-0.74,-0.48,0.08,24280.0,18200.0,-33900.0
32.7588603,35.0228482,477.33,-0.072,0.035,0.988,0.44,0.0,0.02,24280.0,18230.0,-33890.0
32.7588603,35.0228482,477.33,-0.069,0.026,0.989,0.22,0.18,0.06,24260.0,18140.0,-33910.0
32.7588603,35.0228482,477.33,-0.0755,0.02025,0.98325,-0.96,0.0,0.14,24320.0,18100.0,-33910.0
32.7588603,35.0228482,477.33,-0.07725,0.028,0.9805,-0.46,-0.48,0.12,24340.0,18090.0,-33910.0
32.7588603,35.0228482,477.33,-0.06775,0.0275,0.9865,0.46,-0.98,0.06,24320.0,18120.0,-33900.0
32.7588603,35.0228482,477.33,-0.05475,0.0245,0.98825,-0.26,-1.16,0.1,24330.0,18130.0,-33900.0
32.7588603,35.0228482,477.33,-0.0555,0.031,0.98275,-0.92,-0.88,0.16,24330.0,18110.0,-33890.0
32.7588603,35.0228482,477.33,-0.06025,0.025,0.98175,-0.26,-0.42,0.1,24280.0,18100.0,-33900.0
32.7588603,35.0228482,477.33,-0.06,0.00825,0.9885,0.0,-0.06,0.04,24280.0,18060.0,-33910.0
32.7588603,35.0228482,477.33,-0.06375,0.00975,0.9935,-0.56,-0.02,0.08,24290.0,18150.0,-33890.0
32.7588603,35.0228482,477.33,-0.065,0.032,0.99475,-0.08,-0.42,-0.02,24290.0,18210.0,-33880.0
32.7588603,35.0228482,477.33,-0.0555,0.03075,0.99,0.44,-0.88,-0.1,24280.0,18150.0,-33890.0
32.7588603,35.0228482,477.33,-0.0475,0.006,0.985,-0.62,-0.98,-0.08,24280.0,18150.0,-33900.0
32.7588603,35.0228482,477.33,-0.04725,0.00725,0.98675,-0.72,-0.74,-0.1,24260.0,18170.0,-33900.0
32.7588603,35.0228482,477.33,-0.04875,0.029,0.999,0.76,-0.22,-0.12,24230.0,18120.0,-33910.0
32.7588603,35.0228482,477.33,-0.051,0.02825,1.00525,0.74,0.18,-0.1,24260.0,18110.0,-33910.0
32.7588603,35.0228482,477.33,-0.055,0.01575,0.99525,-0.62,0.46,-0.12,24270.0,18150.0,-33900.0
32.7588603,35.0228482,477.33,-0.05925,0.02325,0.9905,-0.4,0.08,-0.04,24250.0,18190.0,-33890.0
32.7588603,35.0228482,477.33,-0.05625,0.028,0.995,0.88,-0.36,-0.14,24230.0,18160.0,-33900.0
32.7588603,35.0228482,477.33,-0.0455,0.0195,0.997,0.4,-0.58,-0.08,24280.0,18190.0,-33890.0
32.7588603,35.0228482,477.33,-0.04475,0.02725,0.99475,-0.48,-0.42,-0.02,24340.0,18220.0,-33880.0
32.7588603,35.0228482,477.33,-0.05325,0.039,0.995,0.2,0.16,0.06,24310.0,18170.0,-33890.0
32.7588603,35.0228482,477.33,-0.0585,0.028,0.997,0.7,0.72,0.02,24300.0,18130.0,-33900.0
32.7588603,35.0228482,477.33,-0.0635,0.0195,0.99725,-0.12,0.84,0.08,24280.0,18080.0,-33910.0
32.7588603,35.0228482,477.33,-0.07,0.04025,0.99625,-0.04,0.48,0.06,24270.0,18070.0,-33920.0
32.7588603,35.0228482,477.33,-0.0705,0.054,0.99125,0.88,-0.1,0.06,24290.0,18170.0,-33900.0
32.7588603,35.0228482,477.33,-0.06225,0.03825,0.987,0.22,-0.36,0.16,24240.0,18300.0,-33890.0
32.7588603,35.0228482,477.33,-0.06325,0.03075,0.98875,-0.76,-0.26,0.1,24280.0,18360.0,-33880.0
32.7588603,35.0228482,477.33,-0.07025,0.04925,0.99725,0.28,0.2,0.06,24310.0,18380.0,-33870.0
32.7588603,35.0228482,477.33,-0.07025,0.05475,1.003,0.98,0.54,0.02,24300.0,18430.0,-33870.0
32.7588603,35.0228482,477.33,-0.0735,0.039,0.9935,-0.26,0.64,0.1,24340.0,18410.0,-33860.0
32.7588603,35.0228482,477.33,-0.08275,0.03775,0.989,-0.94,0.32,0.1,24310.0,18420.0,-33860.0
32.7588603,35.0228482,477.33,-0.08225,0.04625,0.9945,0.44,-0.16,-0.02,24260.0,18420.0,-33880.0
32.7588603,35.0228482,477.33,-0.07,0.0435,1.00025,0.66,-0.6,0.02,24250.0,18290.0,-33900.0
32.7588603,35.0228482,477.33,-0.0615,0.038,0.99825,-0.6,-0.62,-0.02,24230.0,18210.0,-33910.0
32.7588603,35.0228482,477.33,-0.06725,0.04375,0.99575,-0.58,-0.26,-0.02,24220.0,18180.0,-33920.0
32.7588603,35.0228482,477.33,-0.07025,0.03625,0.9965,0.4,0.2,-0.06,24230.0,18150.0,-33920.0
32.7588603,35.0228482,477.33,-0.06975,0.023,1.0,-0.04,0.48,-0.06,24280.0,18160.0,-33910.0
32.7588603,35.0228482,477.33,-0.07225,0.03125,1.0025,-0.56,0.24,-0.02,24310.0,18180.0,-33910.0
32.7588603,35.0228482,477.33,-0.07375,0.0465,1.001,0.22,-0.34,-0.04,24340.0,18230.0,-33890.0
32.7588603,35.0228482,477.33,-0.06075,0.03325,0.99575,0.26,-0.7,-0.08,24330.0,18210.0,-33900.0
32.7588603,35.0228482,477.33,-0.053,0.0125,0.99075,-0.78,-0.62,-0.04,24290.0,18170.0,-33910.0
32.7588603,35.0228482,477.33,-0.05725,0.0265,0.99675,-0.5,-0.28,-0.06,24290.0,18160.0,-33910.0
32.7588603,35.0228482,477.33,-0.05875,0.0395,1.0075,0.76,0.2,0.0,24310.0,18110.0,-33920.0
32.7588603,35.0228482,477.33,-0.05775,0.02525,1.0015,0.06,0.52,0.08,24290.0,18160.0,-33910.0
32.7588603,35.0228482,477.33,-0.0655,0.01625,0.9925,-0.96,0.38,0.04,24280.0,18180.0,-33910.0
32.7588603,35.0228482,477.33,-0.0695,0.0305,0.99475,0.02,-0.04,0.06,24310.0,18240.0,-33900.0
32.7588603,35.0228482,477.33,-0.0575,0.029,0.9965,0.76,-0.4,0.0,24330.0,18240.0,-33890.0
32.7588603,35.0228482,477.33,-0.049,0.02,0.9915,-0.32,-0.56,-0.02,24340.0,18220.0,-33900.0
32.7588603,35.0228482,477.33,-0.05625,0.03075,0.99325,-0.54,-0.12,0.14,24360.0,18260.0,-33880.0
32.7588603,35.0228482,477.33,-0.063,0.036,0.9975,0.44,0.34,0.06,24340.0,18290.0,-33890.0
32.7588603,35.0228482,477.33,-0.06375,0.01925,0.9965,0.3,0.76,-0.04,24300.0,18230.0,-33900.0
32.7588603,35.0228482,477.33,-0.06825,0.019,0.995,-0.5,0.48,0.02,24330.0,18200.0,-33900.0
32.7588603,35.0228482,477.33,-0.07325,0.044,0.99525,0.14,-0.02,0.02,24340.0,18200.0,-33900.0
32.7588603,35.0228482,477.33,-0.066,0.043,0.99275,0.6,-0.44,0.0,24330.0,18190.0,-33910.0
32.7588603,35.0228482,477.33,-0.059,0.01725,0.98725,-0.5,-0.46,-0.04,24300.0,18120.0,-33920.0
32.7588603,35.0228482,477.33,-0.06425,0.0245,0.9935,-0.62,-0.14,-0.02,24300.0,18160.0,-33910.0
32.7588603,35.0228482,477.33,-0.07025,0.04625,1.0055,0.82,0.34,-0.04,24260.0,18190.0,-33910.0
32.7588603,35.0228482,477.33,-0.067,0.0375,1.00225,0.6,0.6,-0.08,24260.0,18190.0,-33910.0
32.7588603,35.0228482,477.33,-0.072,0.0185,0.989,-0.88,0.44,-0.04,24280.0,18240.0,-33900.0
32.7588603,35.0228482,477.33,-0.0795,0.03025,0.9905,-0.36,0.04,0.0,24250.0,18240.0,-33910.0
32.7588603,35.0228482,477.33,-0.071,0.03675,1.001,0.9,-0.42,-0.08,24250.0,18150.0,-33920.0
32.7588603,35.0228482,477.33,-0.05725,0.024,0.999,0.18,-0.6,-0.08,24330.0,18080.0,-33910.0
32.7588603,35.0228482,477.33,-0.06,0.0305,0.99575,-0.78,-0.34,0.0,24340.0,18030.0,-33920.0
32.7588603,35.0228482,477.33,-0.067,0.04025,0.9975,0.1,0.08,0.04,24380.0,17860.0,-33940.0
32.7588603,35.0228482,477.33,-0.06625,0.02525,0.9965,0.58,0.52,0.0,24440.0,17760.0,-33940.0
32.7588603,35.0228482,477.33,-0.069,0.016,0.99475,-0.34,0.44,0.04,24460.0,17730.0,-33940.0
32.7588603,35.0228482,477.33,-0.07425,0.0435,1.0005,0.02,0.08,0.06,24500.0,17790.0,-33930.0
32.7588603,35.0228482,477.33,-0.06725,0.053,1.0015,0.78,-0.5,0.0,24530.0,17810.0,-33920.0
32.7588603,35.0228482,477.33,-0.05575,0.02625,0.99125,-0.14,-0.52,0.08,24490.0,17960.0,-33910.0
32.7588603,35.0228482,477.33,-0.0575,0.02525,0.9905,-0.9,-0.38,0.08,24440.0,18130.0,-33880.0
32.7588603,35.0228482,477.33,-0.0635,0.04975,1.00125,0.44,0.12,0.02,24420.0,18240.0,-33860.0
32.7588603,35.0228482,477.33,-0.06075,0.05025,1.004,0.9,0.38,-0.02,24410.0,18300.0,-33860.0
32.7588603,35.0228482,477.33,-0.066,0.0295,0.99375,-0.64,0.54,0.06,24350.0,18350.0,-33860.0
32.7588603,35.0228482,477.33,-0.0755,0.03575,0.992,-0.78,0.2,0.06,24310.0,18330.0,-33860.0
32.7588603,35.0228482,477.33,-0.07125,0.0445,0.99925,0.6,-0.26,-0.02,24340.0,18250.0,-33870.0
32.7588603,35.0228482,477.33,-0.055,0.0335,0.99775,0.42,-0.52,-0.08,24310.0,18160.0,-33890.0
32.7588603,35.0228482,477.33,-0.05225,0.0335,0.99225,-0.78,-0.52,-0.02,24300.0,18120.0,-33900.0
32.7588603,35.0228482,477.33,-0.06,0.0435,0.9945,-0.32,-0.06,0.0,24290.0,18120.0,-33900.0
32.7588603,35.0228482,477.33,-0.0615,0.03025,0.998,0.48,0.5,-0.08,24270.0,18220.0,-33900.0
32.7588603,35.0228482,477.33,-0.06575,0.0125,0.99675,-0.36,0.7,-0.02,24320.0,18200.0,-33890.0
32.7588603,35.0228482,477.33,-0.07425,0.0325,0.99875,-0.42,0.34,0.0,24360.0,18090.0,-33900.0
32.7588603,35.0228482,477.33,-0.07275,0.048,0.999,0.6,-0.18,-0.08,24310.0,18110.0,-33900.0
32.7588603,35.0228482,477.33,-0.06,0.024,0.989,-0.06,-0.52,-0.08,24260.0,18050.0,-33920.0
32.7588603,35.0228482,477.33,-0.05825,0.00975,0.9855,-0.98,-0.48,-0.06,24280.0,18050.0,-33910.0
32.7588603,35.0228482,477.33,-0.06425,0.03175,0.9995,0.02,-0.1,0.02,24300.0,18020.0,-33910.0
32.7588603,35.0228482,477.33,-0.063,0.04025,1.00975,1.02,0.38,-0.06,24340.0,18020.0,-33900.0
32.7588603,35.0228482,477.33,-0.065,0.02025,0.999,-0.34,0.64,0.0,24340.0,18110.0,-33890.0
32.7588603,35.0228482,477.33,-0.076,0.0215,0.991,-0.98,0.46,0.1,24310.0,18180.0,-33890.0
32.7588603,35.0228482,477.33,-0.07625,0.036,0.993,0.46,-0.06,0.02,24300.0,18240.0,-33880.0
32.7588603,35.0228482,477.33,-0.062,0.028,0.995,0.72,-0.5,0.02,24310.0,18270.0,-33870.0
32.7588603,35.0228482,477.33,-0.05675,0.0205,0.99325,-0.6,-0.58,0.02,24300.0,18160.0,-33890.0
32.7588603,35.0228482,477.33,-0.06525,0.036,0.997,-0.42,-0.34,0.06,24260.0,18140.0,-33900.0
32.7588603,35.0228482,477.33,-0.067,0.036,1.002,0.68,0.4,0.0,24270.0,18090.0,-33910.0
32.7588603,35.0228482,477.33,-0.067,0.0175,0.99675,0.1,0.68,-0.04,24270.0,18100.0,-33910.0
32.7588603,35.0228482,477.33,-0.072,0.028,0.99275,-0.48,0.34,0.06,24240.0,18130.0,-33910.0
32.7588603,35.0228482,477.33,-0.073,0.049,0.99625,0.4,-0.22,0.0,24270.0,18090.0,-33910.0
32.7588603,35.0228482,477.33,-0.06175,0.03375,0.9945,0.52,-0.64,0.02,24260.0,18090.0,-33910.0
32.7588603,35.0228482,477.33,-0.05625,0.01425,0.991,-0.7,-0.54,-0.04,24250.0,18050.0,-33920.0
32.7588603,35.0228482,477.33,-0.0625,0.03575,0.99875,-0.22,-0.14,0.02,24280.0,18100.0,-33900.0
32.7588603,35.0228482,477.33,-0.0625,0.05225,1.006,1.04,0.36,-0.04,24270.0,18130.0,-33900.0
32.7588603,35.0228482,477.33,-0.06175,0.031,0.996,0.04,0.6,-0.04,24260.0,18080.0,-33910.0
32.7588603,35.0228482,477.33,-0.07,0.01925,0.98875,-1.12,0.38,-0.04,24280.0,18110.0,-33910.0
32.7588603,35.0228482,477.33,-0.0745,0.03625,0.99525,0.16,-0.06,0.0,24300.0,18070.0,-33910.0
32.7588603,35.0228482,477.33,-0.06125,0.03975,1.00325,1.0,-0.48,0.02,24270.0,18090.0,-33910.0
32.7588603,35.0228482,477.33,-0.0505,0.0275,0.9975,-0.28,-0.54,0.02,24300.0,18130.0,-33900.0
32.7588603,35.0228482,477.33,-0.05775,0.036,0.99325,-0.84,-0.24,-0.02,24300.0,18180.0,-33900.0
32.7588603,35.0228482,477.33,-0.0635,0.03825,0.99575,0.38,0.26,-0.06,24280.0,18190.0,-33900.0
32.7588603,35.0228482,477.33,-0.064,0.02,0.99625,0.4,0.62,-0.02,24340.0,18240.0,-33880.0
32.7588603,35.0228482,477.33,-0.069,0.021,0.997,-0.5,0.5,0.04,24360.0,18330.0,-33870.0
32.7588603,35.0228482,477.33,-0.0745,0.049,1.001,0.02,-0.04,0.06,24360.0,18380.0,-33860.0
32.7588603,35.0228482,477.33,-0.06525,0.04525,0.99625,0.7,-0.42,0.02,24340.0,18370.0,-33860.0
32.7588603,35.0228482,477.33,-0.05725,0.015,0.985,-0.54,-0.44,0.0,24340.0,18420.0,-33860.0
32.7588603,35.0228482,477.33,-0.06125,0.024,0.98975,-0.64,-0.24,0.06,24300.0,18390.0,-33870.0
32.7588603,35.0228482,477.33,-0.066,0.049,1.005,0.84,0.24,0.1,24300.0,18260.0,-33890.0
32.7588603,35.0228482,477.33,-0.065,0.0395,1.0025,0.54,0.56,-0.04,24300.0,18190.0,-33900.0
32.7588603,35.0228482,477.33,-0.071,0.02,0.991,-0.96,0.48,0.08,24260.0,18180.0,-33910.0
32.7588603,35.0228482,477.33,-0.0785,0.03325,0.9935,-0.46,0.08,0.04,24250.0,18250.0,-33900.0
32.7588603,35.0228482,477.33,-0.0695,0.04125,1.00075,0.86,-0.4,-0.08,24330.0,18240.0,-33890.0
32.7588603,35.0228482,477.33,-0.05525,0.02625,0.99525,0.02,-0.64,0.02,24380.0,18280.0,-33870.0
32.7588603,35.0228482,477.33,-0.05825,0.03,0.991,-0.88,-0.4,0.02,24350.0,18340.0,-33870.0
32.7588603,35.0228482,477.33,-0.06625,0.04125,0.99825,0.1,0.1,0.0,24320.0,18250.0,-33890.0
32.7588603,35.0228482,477.33,-0.06625,0.02675,1.00175,0.52,0.62,0.0,24300.0,18190.0,-33900.0
32.7588603,35.0228482,477.33,-0.068,0.0145,0.99775,-0.46,0.58,0.02,24290.0,18160.0,-33910.0
32.7588603,35.0228482,477.33,-0.074,0.03875,0.99775,-0.28,0.1,-0.06,24330.0,18150.0,-33910.0
32.7588603,35.0228482,477.33,-0.0675,0.04775,0.9965,0.76,-0.42,-0.04,24330.0,18200.0,-33900.0
32.7588603,35.0228482,477.33,-0.05675,0.02,0.988,-0.12,-0.58,-0.08,24290.0,18260.0,-33900.0
32.7588603,35.0228482,477.33,-0.058,0.016,0.9905,-0.92,-0.36,0.02,24310.0,18240.0,-33900.0
32.7588603,35.0228482,477.33,-0.065,0.04225,1.00525,0.46,0.12,-0.06,24310.0,18190.0,-33900.0
32.7588603,35.0228482,477.33,-0.06225,0.0435,1.00625,0.92,0.44,-0.04,24300.0,18290.0,-33900.0
32.7588603,35.0228482,477.33,-0.0645,0.02025,0.9915,-0.6,0.54,0.1,24300.0,18330.0,-33890.0
32.7588603,35.0228482,477.33,-0.07325,0.026,0.98775,-0.88,0.12,0.02,24320.0,18270.0,-33890.0
32.7588603,35.0228482,477.33,-0.06975,0.04,0.99675,0.8,-0.32,-0.02,24290.0,18280.0,-33900.0
32.7588603,35.0228482,477.33,-0.0555,0.03,0.9995,0.52,-0.56,0.02,24280.0,18210.0,-33910.0
32.7588603,35.0228482,477.33,-0.05325,0.02575,0.9945,-0.76,-0.42,0.06,24270.0,18170.0,-33910.0
32.7588603,35.0228482,477.33,-0.063,0.04,0.9955,-0.36,-0.02,0.1,24240.0,18200.0,-33920.0
32.7588603,35.0228482,477.33,-0.06475,0.035,0.998,0.68,0.38,0.0,24240.0,18160.0,-33920.0
32.7588603,35.0228482,477.33,-0.06575,0.016,0.99375,-0.14,0.66,0.0,24260.0,18140.0,-33910.0
32.7588603,35.0228482,477.33,-0.07225,0.03175,0.99675,-0.52,0.3,0.04,24270.0,18150.0,-33910.0
32.7588603,35.0228482,477.33,-0.07175,0.0525,1.001,0.62,-0.26,-0.04,24250.0,18250.0,-33900.0
32.7588603,35.0228482,477.33,-0.06,0.033,0.9945,0.3,-0.58,0.04,24250.0,18180.0,-33910.0
32.7588603,35.0228482,477.33,-0.05675,0.0145,0.98875,-0.88,-0.4,0.06,24300.0,18130.0,-33910.0
32.7588603,35.0228482,477.33,-0.0645,0.03625,0.99625,-0.2,0.02,-0.02,24320.0,18100.0,-33910.0
32.7588603,35.0228482,477.33,-0.06525,0.0495,1.0055,1.06,0.42,0.0,24320.0,18090.0,-33910.0
32.7588603,35.0228482,477.33,-0.06625,0.0285,0.997,-0.08,0.6,0.0,24300.0,18090.0,-33910.0
32.7588603,35.0228482,477.33,-0.07525,0.022,0.99125,-1.14,0.42,0.1,24280.0,18150.0,-33900.0
32.7588603,35.0228482,477.33,-0.07725,0.039,0.9965,0.3,-0.1,0.0,24270.0,18140.0,-33900.0
32.7588603,35.0228482,477.33,-0.063,0.03625,0.99975,1.0,-0.52,-0.04,24310.0,18140.0,-33900.0
32.7588603,35.0228482,477.33,-0.05375,0.02375,0.99375,-0.5,-0.52,0.0,24280.0,18150.0,-33900.0
32.7588603,35.0228482,477.32,-0.0605,0.0365,0.99375,-0.66,-0.3,0.04,24300.0,18230.0,-33880.0
32.7588603,35.0228482,477.32,-0.06575,0.03925,0.999,0.58,0.32,0.02,24350.0,18250.0,-33870.0
32.7588603,35.0228482,477.32,-0.0655,0.01925,0.998,0.26,0.68,0.02,24330.0,18260.0,-33870.0
32.7588603,35.0228482,477.32,-0.071,0.02125,0.99675,-0.64,0.4,0.02,24360.0,18240.0,-33860.0
32.7588603,35.0228482,477.32,-0.0745,0.04825,1.00025,0.16,-0.1,-0.04,24350.0,18280.0,-33860.0
32.7588603,35.0228482,477.32,-0.06375,0.0415,0.996,0.6,-0.6,-0.04,24310.0,18280.0,-33870.0
32.7588603,35.0228482,477.32,-0.05525,0.014,0.986,-0.62,-0.5,0.0,24290.0,18190.0,-33880.0
32.7588603,35.0228482,477.32,-0.05975,0.027,0.993,-0.64,-0.22,-0.04,24290.0,18070.0,-33900.0
32.7588603,35.0228482,477.32,-0.06325,0.0485,1.00775,0.86,0.24,-0.04,24260.0,18100.0,-33900.0
32.7588603,35.0228482,477.32,-0.0615,0.0355,1.0025,0.52,0.54,0.04,24270.0,18070.0,-33910.0
32.7588603,35.0228482,477.32,-0.06875,0.01925,0.99025,-1.02,0.46,0.06,24300.0,18100.0,-33900.0
32.7588603,35.0228482,477.32,-0.076,0.03475,0.99125,-0.24,0.14,0.02,24300.0,18060.0,-33900.0
32.7588603,35.0228482,477.32,-0.06575,0.04025,0.99825,0.92,-0.4,-0.02,24310.0,18020.0,-33900.0
32.7588603,35.0228482,477.32,-0.053,0.02425,0.99425,-0.08,-0.6,-0.08,24290.0,18020.0,-33910.0
32.7588603,35.0228482,477.32,-0.057,0.02975,0.9935,-0.9,-0.32,0.04,24270.0,18030.0,-33910.0
32.7588603,35.0228482,477.32,-0.06425,0.04025,0.9995,0.28,0.12,0.04,24290.0,17990.0,-33910.0
32.7588603,35.0228482,477.32,-0.0645,0.025,0.999,0.54,0.58,-0.04,24300.0,18010.0,-33900.0
32.7588603,35.0228482,477.32,-0.06775,0.01475,0.99375,-0.5,0.54,0.04,24290.0,18060.0,-33900.0
32.7588603,35.0228482,477.32,-0.07475,0.0405,0.996,-0.2,0.2,0.06,24310.0,18040.0,-33900.0
32.7588603,35.0228482,477.32,-0.06825,0.04625,0.99775,0.76,-0.32,0.02,24300.0,18050.0,-33900.0
32.7588603,35.0228482,477.32,-0.058,0.01825,0.98925,-0.2,-0.54,-0.04,24340.0,18060.0,-33900.0
32.7588603,35.0228482,477.33,-0.06,0.018,0.9915,-0.82,-0.34,0.04,24420.0,17970.0,-33890.0
32.7588603,35.0228482,477.33,-0.0665,0.04375,1.00425,0.5,0.18,0.02,24520.0,17910.0,-33890.0
32.7588603,35.0228482,477.33,-0.064,0.04225,1.0045,0.84,0.54,-0.02,24540.0,17870.0,-33900.0
32.7588603,35.0228482,477.33,-0.06775,0.01925,0.99125,-0.72,0.52,0.0,24480.0,17820.0,-33910.0
32.7588603,35.0228482,477.33,-0.07675,0.0285,0.9905,-0.74,0.2,0.08,24490.0,17760.0,-33920.0
32.7588603,35.0228482,477.33,-0.0715,0.041,0.9995,0.8,-0.32,0.04,24420.0,17840.0,-33920.0
32.7588603,35.0228482,477.33,-0.057,0.029,0.99825,0.46,-0.52,-0.12,24330.0,17920.0,-33920.0
32.7588603,35.0228482,477.33,-0.05575,0.0275,0.99325,-0.84,-0.48,0.04,24300.0,17990.0,-33920.0
32.7588603,35.0228482,477.33,-0.06425,0.0415,0.99575,-0.16,-0.06,0.04,24280.0,18030.0,-33920.0
32.7588603,35.0228482,477.33,-0.06525,0.032,0.99875,0.68,0.46,-0.06,24230.0,18160.0,-33910.0
32.7588603,35.0228482,477.33,-0.06575,0.01525,0.9955,-0.2,0.66,0.04,24270.0,18120.0,-33900.0
32.7588603,35.0228482,477.33,-0.072,0.03575,0.99775,-0.38,0.2,0.06,24320.0,18060.0,-33900.0
32.7588603,35.0228482,477.33,-0.06925,0.053,1.001,0.7,-0.36,0.0,24300.0,18100.0,-33910.0
32.7588603,35.0228482,477.33,-0.05775,0.0295,0.99225,0.16,-0.56,0.02,24290.0,18120.0,-33910.0
32.7588603,35.0228482,477.33,-0.05625,0.0155,0.98825,-0.96,-0.42,0.02,24270.0,18140.0,-33910.0
32.7588603,35.0228482,477.33,-0.064,0.0405,0.999,0.06,0.06,-0.02,24280.0,18080.0,-33910.0
32.7588603,35.0228482,477.33,-0.06325,0.05,1.006,1.02,0.52,-0.06,24320.0,18050.0,-33910.0
32.7588603,35.0228482,477.33,-0.06425,0.02625,0.99525,-0.34,0.66,0.02,24340.0,18150.0,-33890.0
32.7588603,35.0228482,477.33,-0.07375,0.02475,0.9905,-1.12,0.28,0.04,24330.0,18220.0,-33880.0
32.7588603,35.0228482,477.32,-0.074,0.04175,0.997,0.46,-0.16,-0.02,24330.0,18270.0,-33880.0
32.7588603,35.0228482,477.32,-0.05875,0.0365,0.9985,0.86,-0.52,-0.06,24330.0,18330.0,-33870.0
32.7588603,35.0228482,477.32,-0.0525,0.026,0.9915,-0.64,-0.52,0.0,24330.0,18340.0,-33870.0
32.7588603,35.0228482,477.32,-0.0625,0.038,0.994,-0.68,-0.14,0.08,24300.0,18390.0,-33870.0
32.7588603,35.0228482,477.32,-0.067,0.03625,1.00025,0.54,0.38,0.02,24340.0,18410.0,-33860.0
32.7588603,35.0228482,477.32,-0.06625,0.01725,0.99825,0.12,0.68,0.02,24380.0,18370.0,-33860.0
32.7588603,35.0228482,477.32,-0.07125,0.02725,0.9965,-0.54,0.32,0.02,24380.0,18290.0,-33870.0
32.7588603,35.0228482,477.32,-0.07275,0.05025,0.99825,0.26,-0.2,-0.04,24350.0,18240.0,-33880.0
32.7588603,35.0228482,477.32,-0.06175,0.03325,0.99275,0.38,-0.54,-0.04,24330.0,18270.0,-33880.0
32.7588603,35.0228482,477.32,-0.05675,0.00825,0.98725,-0.78,-0.46,0.04,24300.0,18230.0,-33900.0
32.7588603,35.0228482,477.32,-0.0635,0.02925,0.99775,-0.36,-0.04,0.04,24340.0,18240.0,-33890.0
32.7588603,35.0228482,477.32,-0.06525,0.049,1.0085,1.12,0.38,0.04,24330.0,18260.0,-33880.0
32.7588603,35.0228482,477.32,-0.06475,0.03125,0.998,0.16,0.58,0.02,24330.0,18170.0,-33900.0
32.7588603,35.0228482,477.32,-0.0725,0.01625,0.98775,-1.16,0.38,0.08,24360.0,18140.0,-33900.0
32.7588603,35.0228482,477.32,-0.07725,0.03175,0.99375,0.02,-0.14,0.02,24340.0,18150.0,-33910.0
32.7588603,35.0228482,477.32,-0.06425,0.036,1.00225,1.06,-0.5,-0.04,24290.0,18220.0,-33900.0
32.7588603,35.0228482,477.32,-0.05225,0.02525,0.997,-0.12,-0.58,-0.04,24330.0,18220.0,-33890.0
32.7588603,35.0228482,477.32,-0.058,0.034,0.99325,-0.8,-0.22,0.04,24390.0,18220.0,-33880.0
32.7588603,35.0228482,477.32,-0.06475,0.037,0.99675,0.26,0.3,-0.02,24360.0,18200.0,-33890.0
32.7588603,35.0228482,477.32,-0.0655,0.0185,0.99775,0.3,0.56,-0.06,24340.0,18160.0,-33900.0
32.7588603,35.0228482,477.32,-0.0695,0.01775,0.997,-0.44,0.48,0.02,24380.0,18240.0,-33880.0
32.7588603,35.0228482,477.32,-0.075,0.0475,1.00025,0.1,0.06,0.02,24390.0,18290.0,-33870.0
32.7588603,35.0228482,477.32,-0.065,0.045,0.9975,0.68,-0.48,-0.06,24380.0,18200.0,-33880.0
32.7588603,35.0228482,477.32,-0.056,0.01625,0.9865,-0.42,-0.48,0.02,24380.0,18140.0,-33890.0
32.7588603,35.0228482,477.32,-0.0585,0.02325,0.991,-0.66,-0.26,-0.04,24360.0,18180.0,-33890.0
32.7588603,35.0228482,477.32,-0.06325,0.04775,1.0065,0.76,0.14,-0.02,24340.0,18150.0,-33900.0
32.7588603,35.0228482,477.32,-0.062,0.04,1.0035,0.64,0.54,-0.02,24340.0,18160.0,-33900.0
32.7588603,35.0228482,477.32,-0.06875,0.02025,0.9905,-0.9,0.52,0.0,24320.0,18120.0,-33910.0
32.7588603,35.0228482,477.32,-0.07775,0.034,0.991,-0.38,0.18,0.0,24340.0,18160.0,-33890.0
32.7588603,35.0228482,477.32,-0.068,0.04325,0.998,0.92,-0.32,-0.04,24380.0,18170.0,-33880.0
32.7588603,35.0228482,477.32,-0.05425,0.0295,0.9945,0.2,-0.62,-0.04,24370.0,18230.0,-33880.0
32.7588603,35.0228482,477.32,-0.057,0.0315,0.99125,-0.96,-0.42,0.04,24300.0,18310.0,-33880.0
32.7588603,35.0228482,477.32,-0.06575,0.0405,0.997,0.04,0.08,-0.04,24250.0,18250.0,-33890.0
32.7588603,35.0228482,477.32,-0.06525,0.028,1.00125,0.54,0.56,0.04,24270.0,18190.0,-33900.0
32.7588603,35.0228482,477.32,-0.06725,0.02075,0.997,-0.3,0.62,0.04,24260.0,18170.0,-33910.0
32.7588603,35.0228482,477.32,-0.0725,0.04625,0.99775,-0.2,0.06,0.06,24240.0,18130.0,-33920.0
32.7588603,35.0228482,477.32,-0.06625,0.04975,0.996,0.64,-0.42,0.0,24270.0,18150.0,-33910.0
32.7588603,35.0228482,477.32,-0.05775,0.0195,0.98825,-0.3,-0.64,-0.1,24230.0,18230.0,-33910.0
32.7588603,35.0228482,477.32,-0.0615,0.019,0.993,-0.8,-0.3,0.06,24230.0,18170.0,-33910.0
32.7588603,35.0228482,477.32,-0.06725,0.0485,1.00775,0.54,0.2,-0.02,24250.0,18120.0,-33910.0
32.7588603,35.0228482,477.32,-0.06475,0.047,1.007,0.78,0.54,-0.04,24220.0,18220.0,-33910.0
32.7588603,35.0228482,477.32,-0.067,0.02025,0.99025,-0.82,0.48,0.04,24230.0,18280.0,-33890.0
32.7588603,35.0228482,477.32,-0.075,0.0255,0.9885,-0.9,0.08,0.04,24240.0,18300.0,-33880.0
32.7588603,35.0228482,477.32,-0.06925,0.039,0.9995,0.76,-0.38,-0.02,24240.0,18320.0,-33880.0
32.7588603,35.0228482,477.32,-0.056,0.03125,1.0,0.5,-0.52,-0.04,24270.0,18280.0,-33880.0
32.7588603,35.0228482,477.32,-0.05725,0.03,0.99375,-0.82,-0.4,0.04,24270.0,18250.0,-33880.0
32.7588603,35.0228482,477.32,-0.06675,0.039,0.99425,-0.34,0.14,0.06,24250.0,18190.0,-33890.0
32.7588603,35.0228482,477.32,-0.068,0.02625,0.9975,0.54,0.56,-0.04,24240.0,18120.0,-33910.0
32.7588603,35.0228482,477.32,-0.0675,0.01175,0.996,-0.12,0.62,-0.02,24270.0,18100.0,-33910.0
32.7588603,35.0228482,477.32,-0.071,0.03525,0.998,-0.32,0.06,0.02,24270.0,18080.0,-33910.0
32.7588603,35.0228482,477.32,-0.06625,0.05,0.9985,0.56,-0.52,0.02,24320.0,18120.0,-33900.0
32.7588603,35.0228482,477.32,-0.05625,0.02275,0.9895,0.04,-0.6,-0.02,24310.0,18040.0,-33900.0
32.7588603,35.0228482,477.32,-0.05725,0.00925,0.9885,-0.9,-0.34,0.0,24270.0,18030.0,-33920.0
32.7588603,35.0228482,477.32,-0.066,0.036,1.00075,0.24,0.26,0.02,24260.0,18040.0,-33920.0
32.7588603,35.0228482,477.32,-0.0655,0.04575,1.00575,1.04,0.56,-0.02,24280.0,17980.0,-33920.0
32.7588603,35.0228482,477.32,-0.066,0.02275,0.9925,-0.44,0.54,-0.02,24320.0,18000.0,-33910.0
32.7588603,35.0228482,477.32,-0.0735,0.02225,0.98825,-0.92,0.16,0.04,24300.0,18080.0,-33900.0
32.7588603,35.0228482,477.32,-0.07125,0.03675,0.99675,0.62,-0.38,0.0,24290.0,18140.0,-33890.0
32.7588603,35.0228482,477.32,-0.0565,0.032,1.00075,0.76,-0.6,-0.02,24280.0,18140.0,-33890.0
32.7588603,35.0228482,477.32,-0.052,0.025,0.994,-0.56,-0.44,0.02,24290.0,18100.0,-33900.0
32.7588603,35.0228482,477.32,-0.062,0.0385,0.9925,-0.44,0.08,-0.04,24310.0,18120.0,-33890.0
32.7588603,35.0228482,477.32,-0.068,0.0355,0.99725,0.68,0.62,0.02,24330.0,18180.0,-33870.0
32.7588603,35.0228482,477.32,-0.068,0.0165,0.99675,0.06,0.72,-0.02,24300.0,18100.0,-33890.0
32.7588603,35.0228482,477.32,-0.07175,0.029,0.9985,-0.52,0.28,0.02,24300.0,18050.0,-33900.0
32.7588603,35.0228482,477.32,-0.07175,0.05275,1.00075,0.46,-0.36,-0.02,24330.0,18020.0,-33900.0
32.7588603,35.0228482,477.32,-0.0595,0.03825,0.99375,0.48,-0.7,-0.04,24310.0,18020.0,-33900.0
32.7588603,35.0228482,477.32,-0.056,0.015,0.9875,-0.78,-0.42,-0.02,24300.0,18000.0,-33910.0
32.7588603,35.0228482,477.32,-0.06325,0.03475,0.99675,-0.32,0.12,0.0,24290.0,18020.0,-33910.0
32.7588603,35.0228482,477.32,-0.066,0.05225,1.009,1.0,0.48,-0.04,24270.0,18050.0,-33920.0
32.7588603,35.0228482,477.32,-0.06525,0.0325,1.00025,0.04,0.58,-0.04,24260.0,18020.0,-33920.0
32.7588603,35.0228482,477.32,-0.0725,0.02125,0.9905,-1.12,0.28,0.0,24290.0,18110.0,-33910.0
32.7588603,35.0228482,477.32,-0.07575,0.03925,0.9945,0.12,-0.26,0.0,24240.0,18150.0,-33910.0
32.7588603,35.0228482,477.32,-0.06275,0.04225,1.0,0.98,-0.52,-0.04,24240.0,18100.0,-33920.0
32.7588603,35.0228482,477.32,-0.05275,0.0265,0.994,-0.28,-0.46,-0.04,24280.0,18070.0,-33920.0
32.7588603,35.0228482,477.32,-0.061,0.03425,0.99275,-0.94,-0.1,0.06,24280.0,18150.0,-33910.0
32.7588603,35.0228482,477.32,-0.06875,0.04025,0.9995,0.5,0.36,0.04,24210.0,18170.0,-33920.0
32.7588603,35.0228482,477.32,-0.067,0.02425,0.999,0.46,0.64,-0.04,24200.0,18200.0,-33910.0
32.7588603,35.0228482,477.32,-0.06875,0.023,0.99525,-0.64,0.32,-0.02,24230.0,18180.0,-33910.0
32.7588603,35.0228482,477.32,-0.07225,0.04825,0.99675,-0.02,-0.12,-0.04,24250.0,18170.0,-33910.0
32.7588603,35.0228482,477.32,-0.06275,0.04425,0.99525,0.68,-0.58,-0.02,24270.0,18200.0,-33910.0
32.7588603,35.0228482,477.32,-0.0555,0.0145,0.987,-0.46,-0.46,0.04,24280.0,18290.0,-33890.0
32.7588603,35.0228482,477.33,-0.05975,0.0225,0.99325,-0.76,-0.14,0.0,24290.0,18390.0,-33870.0
32.7588603,35.0228482,477.33,-0.06625,0.0475,1.00675,0.82,0.34,0.1,24330.0,18380.0,-33860.0
32.7588603,35.0228482,477.33,-0.06475,0.037,1.00225,0.6,0.6,0.0,24350.0,18390.0,-33850.0
32.7588603,35.0228482,477.33,-0.06825,0.014,0.98925,-1.02,0.3,-0.04,24330.0,18380.0,-33870.0
32.7588603,35.0228482,477.33,-0.0745,0.02725,0.9905,-0.52,-0.04,0.04,24320.0,18320.0,-33880.0
32.7588603,35.0228482,477.33,-0.0655,0.03925,0.99925,1.04,-0.46,-0.06,24440.0,18140.0,-33880.0
32.7588603,35.0228482,477.33,-0.05325,0.02425,0.9965,0.18,-0.5,0.0,24510.0,17970.0,-33890.0
32.7588603,35.0228482,477.33,-0.05775,0.02225,0.993,-0.96,-0.22,0.06,24560.0,17880.0,-33890.0
32.7588603,35.0228482,477.33,-0.06775,0.035,0.99675,0.06,0.3,0.0,24580.0,17830.0,-33900.0
32.7588603,35.0228482,477.33,-0.06725,0.02675,0.99975,0.92,0.64,0.04,24570.0,17790.0,-33900.0
32.7588603,35.0228482,477.33,-0.06675,0.013,0.9955,-0.3,0.52,0.0,24560.0,17740.0,-33910.0
32.7588603,35.0228482,477.33,-0.07175,0.03375,0.9955,-0.46,-0.02,0.0,24450.0,17900.0,-33910.0
32.7588603,35.0228482,477.33,-0.06725,0.04575,0.99825,0.66,-0.54,-0.02,24340.0,18060.0,-33910.0
32.7588603,35.0228482,477.33,-0.05725,0.02325,0.993,0.28,-0.52,0.02,24330.0,18070.0,-33910.0
32.7588603,35.0228482,477.33,-0.0585,0.01625,0.99225,-0.8,-0.14,0.0,24350.0,18090.0,-33900.0
32.7588603,35.0228482,477.33,-0.067,0.0425,1.0025,0.22,0.26,0.0,24330.0,18070.0,-33910.0
32.7588603,35.0228482,477.33,-0.066,0.046,1.00375,0.92,0.54,0.02,24330.0,18100.0,-33900.0
32.7588603,35.0228482,477.33,-0.06575,0.02175,0.993,-0.4,0.4,0.04,24350.0,18220.0,-33880.0
32.7588603,35.0228482,477.33,-0.073,0.02725,0.9915,-0.82,0.02,0.02,24350.0,18310.0,-33880.0
32.7588603,35.0228482,477.32,-0.0705,0.04625,1.00075,0.72,-0.42,0.08,24340.0,18340.0,-33870.0
32.7588603,35.0228482,477.32,-0.05725,0.03825,0.99975,0.72,-0.52,0.0,24330.0,18340.0,-33870.0
32.7588603,35.0228482,477.32,-0.05475,0.026,0.9915,-0.8,-0.36,0.06,24300.0,18250.0,-33890.0
32.7588603,35.0228482,477.32,-0.06475,0.03975,0.9935,-0.48,0.16,-0.04,24280.0,18210.0,-33900.0
32.7588603,35.0228482,477.32,-0.06775,0.041,1.00025,0.84,0.5,0.0,24320.0,18150.0,-33900.0
32.7588603,35.0228482,477.32,-0.066,0.0225,0.9975,0.08,0.54,0.0,24350.0,18110.0,-33900.0
32.7588603,35.0228482,477.32,-0.06975,0.03125,0.99575,-0.7,0.12,0.02,24330.0,18140.0,-33890.0
32.7588603,35.0228482,477.32,-0.071,0.0535,0.99825,0.32,-0.36,-0.02,24340.0,18150.0,-33890.0
32.7588603,35.0228482,477.32,-0.06025,0.04125,0.994,0.54,-0.48,-0.04,24300.0,18140.0,-33900.0
32.7588603,35.0228482,477.32,-0.05725,0.017,0.9875,-0.84,-0.2,0.02,24270.0,18130.0,-33910.0
32.7588603,35.0228482,477.32,-0.065,0.03525,0.995,-0.48,0.1,-0.06,24310.0,18180.0,-33890.0
32.7588603,35.0228482,477.32,-0.06825,0.05175,1.00625,0.96,0.4,-0.02,24300.0,18160.0,-33890.0
32.7588603,35.0228482,477.32,-0.0655,0.0315,0.999,0.12,0.42,-0.02,24230.0,18150.0,-33910.0
32.7588603,35.0228482,477.32,-0.0695,0.02075,0.99025,-1.14,0.18,0.14,24250.0,18140.0,-33910.0
32.7588603,35.0228482,477.32,-0.07275,0.037,0.99375,-0.08,-0.28,0.04,24280.0,18080.0,-33910.0
32.7588603,35.0228482,477.32,-0.06175,0.038,0.9985,0.94,-0.42,-0.02,24290.0,18080.0,-33910.0
32.7588603,35.0228482,477.32,-0.05325,0.02,0.994,-0.36,-0.36,-0.02,24330.0,18090.0,-33900.0
32.7588603,35.0228482,477.32,-0.062,0.0285,0.99425,-0.92,-0.04,0.0,24300.0,18100.0,-33900.0
32.7588603,35.0228482,477.32,-0.0695,0.03825,1.00075,0.44,0.3,-0.02,24250.0,18100.0,-33910.0
32.7588603,35.0228482,477.32,-0.06625,0.02075,0.99825,0.46,0.5,0.02,24260.0,18080.0,-33910.0
32.7588603,35.0228482,477.32,-0.067,0.0135,0.99325,-0.68,0.26,0.06,24320.0,18130.0,-33890.0
32.7588603,35.0228482,477.32,-0.07125,0.03825,0.9975,-0.1,-0.24,0.06,24320.0,18210.0,-33880.0
32.7588603,35.0228482,477.32,-0.06275,0.0415,0.9995,0.86,-0.56,-0.08,24300.0,18110.0,-33900.0
32.7588603,35.0228482,477.32,-0.05525,0.01475,0.9915,-0.3,-0.36,0.0,24260.0,18090.0,-33900.0
32.7588603,35.0228482,477.32,-0.06025,0.01875,0.9935,-0.76,0.04,0.02,24230.0,18100.0,-33910.0
32.7588603,35.0228482,477.32,-0.067,0.043,1.004,0.64,0.32,0.02,24280.0,18080.0,-33910.0
32.7588603,35.0228482,477.32,-0.06475,0.036,1.00175,0.78,0.4,-0.04,24290.0,18070.0,-33900.0
32.7588603,35.0228482,477.32,-0.067,0.01475,0.98975,-0.84,0.24,0.04,24260.0,18160.0,-33890.0
32.7588603,35.0228482,477.32,-0.074,0.0285,0.99175,-0.58,-0.06,0.02,24240.0,18230.0,-33880.0
32.7588603,35.0228482,477.32,-0.06775,0.0425,1.0005,0.94,-0.44,0.0,24330.0,18220.0,-33870.0
32.7588603,35.0228482,477.32,-0.055,0.02775,0.9965,0.24,-0.42,-0.02,24350.0,18250.0,-33860.0
32.7588603,35.0228482,477.32,-0.057,0.02475,0.99,-0.94,-0.18,0.08,24320.0,18300.0,-33860.0
32.7588603,35.0228482,477.32,-0.067,0.0405,0.9945,0.06,0.14,0.04,24300.0,18260.0,-33870.0
32.7588603,35.0228482,477.32,-0.06725,0.032,0.99775,0.78,0.42,-0.04,24280.0,18170.0,-33890.0
32.7588603,35.0228482,477.32,-0.06675,0.01675,0.99425,-0.3,0.42,-0.02,24260.0,18080.0,-33910.0
32.7588603,35.0228482,477.32,-0.07275,0.0385,0.99675,-0.44,0.0,0.02,24280.0,18040.0,-33910.0
32.7588603,35.0228482,477.32,-0.0685,0.05525,0.999,0.66,-0.38,-0.04,24300.0,18120.0,-33900.0
32.7588603,35.0228482,477.32,-0.05775,0.031,0.99,0.22,-0.46,-0.02,24250.0,18140.0,-33900.0
32.7588603,35.0228482,477.32,-0.05825,0.01675,0.9875,-0.96,-0.26,0.02,24250.0,18080.0,-33910.0
32.7588603,35.0228482,477.32,-0.067,0.04275,0.999,0.12,0.14,0.02,24260.0,18040.0,-33910.0
32.7588603,35.0228482,477.32,-0.06575,0.05375,1.00725,1.06,0.44,-0.02,24220.0,18150.0,-33900.0
32.7588603,35.0228482,477.32,-0.06475,0.02975,0.99675,-0.34,0.38,0.02,24230.0,18180.0,-33900.0
32.7588603,35.0228482,477.32,-0.07225,0.0275,0.99125,-1.2,0.04,0.02,24250.0,18140.0,-33900.0
32.7588603,35.0228482,477.32,-0.07175,0.04275,0.99775,0.36,-0.26,-0.04,24230.0,18160.0,-33910.0
32.7588603,35.0228482,477.32,-0.0585,0.03725,1.001,0.84,-0.48,0.0,24240.0,18120.0,-33910.0
32.7588603,35.0228482,477.32,-0.05375,0.02625,0.99625,-0.76,-0.34,-0.06,24220.0,18080.0,-33920.0
32.7588603,35.0228482,477.32,-0.06275,0.03975,0.99625,-0.72,0.0,0.06,24210.0,18050.0,-33920.0
32.7588603,35.0228482,477.32,-0.06725,0.04025,1.00025,0.66,0.36,0.0,24260.0,17990.0,-33920.0
32.7588603,35.0228482,477.32,-0.067,0.01775,0.9975,0.04,0.58,0.02,24310.0,17970.0,-33920.0
32.7588603,35.0228482,477.32,-0.06975,0.02125,0.99625,-0.8,0.2,0.04,24300.0,18010.0,-33920.0
32.7588603,35.0228482,477.32,-0.07225,0.04875,0.99975,0.24,-0.2,0.0,24260.0,18140.0,-33900.0
32.7588603,35.0228482,477.32,-0.06325,0.0415,0.99625,0.7,-0.46,0.02,24270.0,18120.0,-33910.0
32.7588603,35.0228482,477.32,-0.05675,0.01175,0.987,-0.78,-0.38,0.0,24270.0,18070.0,-33920.0
32.7588603,35.0228482,477.32,-0.06225,0.02275,0.99325,-0.8,-0.08,0.06,24300.0,18010.0,-33910.0
32.7588603,35.0228482,477.32,-0.06625,0.0455,1.0065,0.94,0.24,0.0,24300.0,18010.0,-33920.0
32.7588603,35.0228482,477.32,-0.0645,0.03125,1.0015,0.48,0.5,-0.04,24290.0,18040.0,-33920.0
32.7588603,35.0228482,477.32,-0.0695,0.01375,0.98975,-1.12,0.34,0.02,24240.0,18120.0,-33910.0
32.7588603,35.0228482,477.32,-0.075,0.0295,0.9895,-0.38,-0.12,0.06,24270.0,18190.0,-33900.0
32.7588603,35.0228482,477.32,-0.066,0.0385,0.99775,1.1,-0.42,-0.04,24280.0,18150.0,-33900.0
32.7588603,35.0228482,477.32,-0.05375,0.021,0.995,-0.04,-0.46,-0.02,24280.0,18170.0,-33910.0
32.7588603,35.0228482,477.33,-0.058,0.023,0.99225,-1.0,-0.22,0.04,24300.0,18220.0,-33890.0
32.7588603,35.0228482,477.33,-0.06775,0.03725,0.9965,0.22,0.08,0.02,24340.0,18240.0,-33880.0
32.7588603,35.0228482,477.33,-0.067,0.02775,0.99775,0.86,0.48,-0.02,24330.0,18150.0,-33900.0
32.7588603,35.0228482,477.33,-0.06625,0.013,0.994,-0.48,0.42,0.06,24340.0,18180.0,-33890.0
32.7588603,35.0228482,477.33,-0.07125,0.03525,0.997,-0.48,-0.04,0.0,24350.0,18310.0,-33870.0
32.7588603,35.0228482,477.33,-0.067,0.0485,0.9995,0.82,-0.48,0.02,24330.0,18400.0,-33860.0
32.7588603,35.0228482,477.33,-0.056,0.02425,0.9925,0.22,-0.52,-0.06,24330.0,18400.0,-33860.0
32.7588603,35.0228482,477.33,-0.05675,0.01625,0.991,-1.02,-0.14,0.0,24340.0,18410.0,-33850.0
32.7588603,35.0228482,477.33,-0.06525,0.044,1.0025,0.18,0.24,0.04,24310.0,18480.0,-33850.0
32.7588603,35.0228482,477.33,-0.065,0.05025,1.00575,1.16,0.44,-0.02,24340.0,18490.0,-33850.0
32.7588603,35.0228482,477.33,-0.06525,0.0235,0.9935,-0.44,0.5,0.02,24350.0,18480.0,-33850.0
32.7588603,35.0228482,477.33,-0.073,0.0245,0.9905,-1.0,0.08,0.06,24350.0,18480.0,-33840.0
32.7588603,35.0228482,477.33,-0.07175,0.04575,0.99975,0.72,-0.32,0.0,24390.0,18450.0,-33840.0
32.7588603,35.0228482,477.33,-0.059,0.04025,1.0025,0.8,-0.5,-0.02,24380.0,18450.0,-33850.0
32.7588603,35.0228482,477.33,-0.05325,0.02525,0.995,-0.78,-0.32,0.04,24350.0,18470.0,-33850.0
32.7588603,35.0228482,477.33,-0.063,0.03825,0.99375,-0.58,-0.02,0.04,24350.0,18450.0,-33850.0
32.7588603,35.0228482,477.33,-0.06675,0.04325,0.9985,0.88,0.42,-0.04,24390.0,18410.0,-33850.0
32.7588603,35.0228482,477.33,-0.06575,0.023,0.99625,0.26,0.5,0.0,24390.0,18390.0,-33850.0
32.7588603,35.0228482,477.33,-0.071,0.025,0.996,-0.86,0.3,0.08,24370.0,18430.0,-33850.0
32.7588603,35.0228482,477.33,-0.07375,0.05,0.99975,0.2,-0.28,0.04,24340.0,18430.0,-33850.0
32.7588603,35.0228482,477.33,-0.065,0.043,0.99775,0.76,-0.46,0.0,24330.0,18440.0,-33860.0
32.7588603,35.0228482,477.33,-0.05525,0.01625,0.988,-0.6,-0.28,0.04,24310.0,18480.0,-33850.0
32.7588603,35.0228482,477.33,-0.0595,0.02875,0.991,-0.78,-0.08,0.04,24330.0,18460.0,-33850.0
32.7588603,35.0228482,477.33,-0.06425,0.04975,1.003,0.86,0.18,0.08,24340.0,18480.0,-33840.0
32.7588603,35.0228482,477.33,-0.06475,0.03425,1.0,0.46,0.46,0.02,24250.0,18520.0,-33850.0
32.7588603,35.0228482,477.33,-0.071,0.016,0.9915,-1.12,0.38,0.02,24290.0,18450.0,-33850.0
32.7588603,35.0228482,477.33,-0.078,0.033,0.99275,-0.42,0.06,0.06,24350.0,18380.0,-33850.0
32.7588603,35.0228482,477.33,-0.069,0.043,0.998,1.06,-0.32,-0.06,24320.0,18390.0,-33860.0
32.7588603,35.0228482,477.33,-0.05475,0.02325,0.9915,-0.12,-0.48,0.0,24320.0,18370.0,-33860.0
32.7588603,35.0228482,477.33,-0.05625,0.02075,0.98875,-1.12,-0.38,0.02,24300.0,18320.0,-33870.0
32.7588603,35.0228482,477.33,-0.06475,0.03875,0.999,0.26,-0.1,0.0,24270.0,18310.0,-33880.0
32.7588603,35.0228482,477.33,-0.06525,0.03025,1.0035,0.84,0.34,-0.02,24270.0,18170.0,-33890.0
32.7588603,35.0228482,477.33,-0.06625,0.01325,0.996,-0.54,0.44,0.04,24350.0,17890.0,-33930.0
32.7588603,35.0228482,477.33,-0.07225,0.03225,0.9945,-0.5,0.04,0.0,24380.0,17760.0,-33940.0
32.7588603,35.0228482,477.33,-0.07025,0.0465,0.9975,0.8,-0.26,0.0,24460.0,17650.0,-33950.0
32.7588603,35.0228482,477.33,-0.05875,0.02375,0.99275,0.18,-0.48,-0.06,24490.0,17550.0,-33950.0
32.7588603,35.0228482,477.33,-0.05525,0.01375,0.99275,-0.94,-0.38,0.0,24480.0,17540.0,-33960.0
32.7588603,35.0228482,477.33,-0.063,0.03875,1.004,0.08,-0.1,0.0,24370.0,17710.0,-33950.0
32.7588603,35.0228482,477.33,-0.064,0.04475,1.0075,1.18,0.4,-0.02,24290.0,17910.0,-33930.0
32.7588603,35.0228482,477.33,-0.06375,0.02,0.994,-0.34,0.62,0.02,24310.0,18080.0,-33900.0
32.7588603,35.0228482,477.33,-0.07175,0.021,0.98825,-1.12,0.32,0.02,24310.0,18190.0,-33890.0
32.7588603,35.0228482,477.33,-0.07325,0.0395,0.99775,0.54,-0.1,0.04,24280.0,18210.0,-33880.0
32.7588603,35.0228482,477.33,-0.06125,0.03425,1.00125,0.84,-0.52,0.0,24240.0,18130.0,-33910.0
32.7588603,35.0228482,477.33,-0.0535,0.022,0.99575,-0.72,-0.5,0.02,24230.0,18110.0,-33910.0
32.7588603,35.0228482,477.33,-0.06175,0.03625,0.995,-0.6,-0.14,0.08,24290.0,18060.0,-33900.0
32.7588603,35.0228482,477.33,-0.066,0.03975,0.99825,0.86,0.32,-0.04,24320.0,18020.0,-33900.0
32.7588603,35.0228482,477.33,-0.06475,0.02125,0.99425,0.28,0.68,0.06,24260.0,18010.0,-33910.0
32.7588603,35.0228482,477.33,-0.0695,0.02375,0.99425,-0.8,0.4,0.02,24240.0,18040.0,-33910.0
32.7588603,35.0228482,477.33,-0.075,0.04925,1.0005,0.26,-0.1,0.02,24290.0,18060.0,-33900.0
32.7588603,35.0228482,477.33,-0.066,0.0445,0.99775,0.78,-0.4,-0.08,24310.0,18010.0,-33910.0
32.7588603,35.0228482,477.33,-0.0555,0.0185,0.98725,-0.62,-0.48,0.02,24320.0,18060.0,-33890.0
32.7588603,35.0228482,477.33,-0.061,0.031,0.9915,-0.62,-0.2,0.0,24300.0,18050.0,-33900.0
32.7588603,35.0228482,477.33,-0.0655,0.05125,1.0035,0.86,0.22,0.02,24260.0,18020.0,-33910.0
32.7588603,35.0228482,477.33,-0.06375,0.03625,1.00025,0.48,0.52,-0.04,24270.0,18000.0,-33910.0
32.7588603,35.0228482,477.33,-0.069,0.019,0.99175,-1.04,0.5,0.04,24290.0,17980.0,-33910.0
32.7588603,35.0228482,477.33,-0.0765,0.03675,0.99325,-0.24,0.04,0.08,24260.0,18080.0,-33910.0
32.7588603,35.0228482,477.33,-0.067,0.04575,0.99875,1.0,-0.38,-0.08,24250.0,18110.0,-33900.0
32.7588603,35.0228482,477.33,-0.05375,0.02475,0.993,-0.08,-0.5,0.0,24300.0,18080.0,-33890.0
32.7588603,35.0228482,477.33,-0.0575,0.025,0.99125,-1.14,-0.3,0.02,24300.0,18040.0,-33900.0
32.7588603,35.0228482,477.33,-0.0665,0.0415,1.0,0.3,0.1,0.02,24320.0,18040.0,-33900.0
32.7588603,35.0228482,477.33,-0.06475,0.03225,1.00225,0.74,0.62,0.02,24290.0,18110.0,-33890.0
32.7588603,35.0228482,477.33,-0.0655,0.01525,0.9965,-0.56,0.52,0.0,24290.0,18210.0,-33880.0
32.7588603,35.0228482,477.33,-0.07275,0.03575,0.99675,-0.5,0.04,0.02,24270.0,18120.0,-33900.0
32.7588603,35.0228482,477.33,-0.0685,0.0485,0.9995,0.8,-0.42,-0.02,24270.0,18110.0,-33900.0
32.7588603,35.0228482,477.33,-0.0575,0.0235,0.992,0.1,-0.44,-0.08,24260.0,18210.0,-33890.0
32.7588603,35.0228482,477.33,-0.0585,0.01625,0.992,-1.02,-0.2,0.04,24260.0,18260.0,-33880.0
32.7588603,35.0228482,477.33,-0.0665,0.04275,1.0035,0.26,0.14,0.0,24280.0,18290.0,-33870.0
32.7588603,35.0228482,477.33,-0.0655,0.04575,1.007,1.04,0.44,0.02,24260.0,18310.0,-33870.0
32.7588603,35.0228482,477.33,-0.06525,0.01825,0.993,-0.54,0.5,0.0,24290.0,18290.0,-33870.0
32.7588603,35.0228482,477.33,-0.073,0.022,0.98975,-1.0,0.1,0.04,24290.0,18240.0,-33880.0
32.7588603,35.0228482,477.33,-0.07225,0.042,0.99825,0.64,-0.24,-0.04,24290.0,18280.0,-33880.0
32.7588603,35.0228482,477.33,-0.0585,0.03425,0.999,0.74,-0.44,-0.02,24330.0,18310.0,-33870.0
32.7588603,35.0228482,477.33,-0.05575,0.02125,0.993,-0.78,-0.34,-0.02,24310.0,18200.0,-33890.0
32.7588603,35.0228482,477.33,-0.06625,0.035,0.9945,-0.6,0.04,0.02,24310.0,18200.0,-33890.0
32.7588603,35.0228482,477.33,-0.06825,0.03775,0.9985,0.82,0.4,-0.02,24240.0,18240.0,-33900.0
32.7588603,35.0228482,477.33,-0.0655,0.019,0.99375,0.14,0.5,-0.02,24250.0,18180.0,-33910.0
32.7588603,35.0228482,477.33,-0.07,0.02475,0.993,-0.8,0.2,0.08,24270.0,18220.0,-33900.0
32.7588603,35.0228482,477.33,-0.07225,0.0475,0.9985,0.36,-0.32,0.0,24260.0,18220.0,-33910.0
32.7588603,35.0228482,477.33,-0.062,0.03725,0.99575,0.66,-0.52,-0.04,24290.0,18210.0,-33900.0
32.7588603,35.0228482,477.33,-0.056,0.01375,0.988,-0.7,-0.3,-0.08,24270.0,18170.0,-33910.0
32.7588603,35.0228482,477.33,-0.0615,0.0305,0.99275,-0.52,0.0,0.06,24230.0,18280.0,-33900.0
32.7588603,35.0228482,477.33,-0.065,0.04975,1.00375,0.9,0.24,-0.06,24270.0,18340.0,-33880.0
32.7588603,35.0228482,477.33,-0.0635,0.03075,0.997,0.24,0.42,0.02,24310.0,18240.0,-33890.0
32.7588603,35.0228482,477.33,-0.0685,0.0155,0.991,-1.08,0.26,0.02,24320.0,18220.0,-33900.0
32.7588603,35.0228482,477.33,-0.075,0.036,0.9955,-0.06,-0.14,0.0,24320.0,18180.0,-33900.0
32.7588603,35.0228482,477.33,-0.0635,0.04325,1.0025,1.12,-0.42,-0.06,24320.0,18130.0,-33900.0
32.7588603,35.0228482,477.33,-0.052,0.0245,0.994,-0.16,-0.44,0.0,24320.0,18090.0,-33910.0
32.7588603,35.0228482,477.33,-0.05825,0.02725,0.99075,-1.04,-0.18,0.02,24330.0,18090.0,-33910.0
32.7588603,35.0228482,477.33,-0.06725,0.04025,0.9995,0.42,0.26,0.0,24340.0,18070.0,-33910.0
32.7588603,35.0228482,477.33,-0.06575,0.0285,1.0025,0.74,0.5,-0.02,24330.0,18100.0,-33910.0
32.7588603,35.0228482,477.33,-0.06725,0.017,0.9985,-0.58,0.5,-0.02,24340.0,18190.0,-33890.0
32.7588603,35.0228482,477.33,-0.073,0.04175,0.999,-0.3,-0.12,-0.02,24340.0,18150.0,-33900.0
32.7588603,35.0228482,477.33,-0.067,0.04925,0.99675,0.8,-0.48,-0.02,24340.0,18140.0,-33900.0
32.7588603,35.0228482,477.33,-0.0575,0.02075,0.9885,-0.04,-0.48,-0.06,24320.0,18120.0,-33900.0
32.7588603,35.0228482,477.33,-0.06075,0.0175,0.99175,-0.96,-0.22,0.02,24320.0,18120.0,-33900.0
32.7588603,35.0228482,477.33,-0.06875,0.04475,1.006,0.44,0.14,0.04,24350.0,18150.0,-33900.0
32.7588603,35.0228482,477.33,-0.067,0.0455,1.00575,0.94,0.4,0.0,24330.0,18210.0,-33890.0
32.7588603,35.0228482,477.33,-0.066,0.01975,0.99175,-0.62,0.34,-0.04,24330.0,18230.0,-33890.0
32.7588603,35.0228482,477.33,-0.073,0.026,0.9885,-0.88,-0.02,0.08,24340.0,18210.0,-33890.0
32.7588603,35.0228482,477.33,-0.06925,0.04225,0.997,0.74,-0.38,-0.02,24310.0,18180.0,-33900.0
32.7588603,35.0228482,477.34,-0.05675,0.03075,0.99725,0.64,-0.4,-0.04,24340.0,18220.0,-33890.0
32.7588603,35.0228482,477.34,-0.05675,0.02275,0.99225,-0.82,-0.32,0.04,24350.0,18290.0,-33880.0
32.7588603,35.0228482,477.34,-0.067,0.039,0.99525,-0.26,0.02,0.0,24290.0,18240.0,-33890.0
32.7588603,35.0228482,477.34,-0.0675,0.0385,0.99725,0.82,0.36,-0.02,24280.0,18220.0,-33900.0
32.7588603,35.0228482,477.34,-0.0645,0.017,0.99225,-0.06,0.38,-0.04,24290.0,18200.0,-33900.0
32.7588603,35.0228482,477.34,-0.06875,0.02625,0.9935,-0.78,-0.04,0.04,24300.0,18250.0,-33890.0
32.7588603,35.0228482,477.34,-0.06925,0.05025,1.00025,0.5,-0.32,0.04,24310.0,18310.0,-33880.0
32.7588603,35.0228482,477.34,-0.05875,0.0365,0.99625,0.66,-0.44,-0.02,24310.0,18320.0,-33880.0
32.7588603,35.0228482,477.34,-0.0555,0.01475,0.98925,-0.76,-0.18,-0.04,24280.0,18380.0,-33880.0
32.7588603,35.0228482,477.34,-0.0625,0.03425,0.996,-0.4,0.02,-0.02,24290.0,18300.0,-33880.0
32.7588603,35.0228482,477.34,-0.0645,0.05125,1.00475,1.04,0.24,0.02,24340.0,18250.0,-33880.0
32.7588603,35.0228482,477.34,-0.063,0.02925,0.9975,0.16,0.4,-0.02,24320.0,18190.0,-33900.0
32.7588603,35.0228482,477.34,-0.06975,0.01775,0.992,-1.16,0.26,0.04,24250.0,18170.0,-33910.0
32.7588603,35.0228482,477.34,-0.074,0.039,0.99775,0.08,-0.1,0.06,24240.0,18150.0,-33910.0
32.7588603,35.0228482,477.34,-0.06275,0.04325,1.00275,1.04,-0.3,-0.04,24260.0,18100.0,-33910.0
32.7588603,35.0228482,477.34,-0.05275,0.0235,0.9955,-0.34,-0.36,0.04,24310.0,18050.0,-33910.0
32.7588603,35.0228482,477.34,-0.059,0.02875,0.992,-1.04,-0.2,0.02,24330.0,18100.0,-33900.0
32.7588603,35.0228482,477.34,-0.0665,0.0405,0.999,0.46,0.18,0.0,24330.0,18110.0,-33900.0
32.7588603,35.0228482,477.34,-0.0655,0.02675,1.00125,0.64,0.5,0.02,24310.0,18080.0,-33910.0
32.7588603,35.0228482,477.34,-0.06775,0.01725,0.9985,-0.7,0.4,0.04,24280.0,18060.0,-33910.0
32.7588603,35.0228482,477.34,-0.074,0.04225,0.9995,-0.22,0.04,0.0,24300.0,18160.0,-33890.0
32.7588603,35.0228482,477.34,-0.0675,0.04675,0.99725,0.82,-0.32,-0.04,24280.0,18310.0,-33870.0
32.7588603,35.0228482,477.34,-0.05725,0.0175,0.98725,-0.2,-0.36,-0.04,24290.0,18330.0,-33870.0
32.7588603,35.0228482,477.34,-0.059,0.018,0.99,-0.96,-0.12,0.02,24320.0,18310.0,-33860.0
32.7588603,35.0228482,477.34,-0.06625,0.04575,1.004,0.54,0.1,0.02,24310.0,18270.0,-33870.0
32.7588603,35.0228482,477.34,-0.066,0.04375,1.00525,0.84,0.44,-0.02,24300.0,18160.0,-33890.0
32.7588603,35.0228482,477.34,-0.0675,0.01575,0.99175,-0.7,0.5,0.04,24280.0,18110.0,-33900.0
32.7588603,35.0228482,477.34,-0.07475,0.02375,0.9885,-0.78,0.2,0.06,24240.0,18100.0,-33910.0
32.7588603,35.0228482,477.34,-0.0715,0.0445,0.99575,0.88,-0.2,0.0,24240.0,18090.0,-33910.0
32.7588603,35.0228482,477.34,-0.057,0.033,0.99475,0.54,-0.46,-0.06,24270.0,18070.0,-33910.0
32.7588603,35.0228482,477.34,-0.05575,0.01975,0.99075,-1.0,-0.42,-0.02,24240.0,18140.0,-33900.0
32.7588603,35.0228482,477.34,-0.06625,0.036,0.99575,-0.38,-0.06,0.04,24250.0,18110.0,-33900.0
32.7588603,35.0228482,477.34,-0.068,0.0385,1.00125,0.98,0.36,0.04,24270.0,18020.0,-33910.0
32.7588603,35.0228482,477.34,-0.064,0.018,0.9965,0.04,0.46,-0.04,24300.0,18040.0,-33910.0
32.7588603,35.0228482,477.34,-0.06775,0.027,0.9945,-0.7,0.24,0.02,24290.0,18050.0,-33910.0
32.7588603,35.0228482,477.34,-0.069,0.05075,0.99825,0.5,-0.38,-0.02,24250.0,18050.0,-33920.0
32.7588603,35.0228482,477.34,-0.05975,0.0375,0.99475,0.62,-0.5,-0.06,24220.0,18050.0,-33930.0
32.7588603,35.0228482,477.34,-0.0555,0.01175,0.99025,-0.8,-0.28,-0.06,24300.0,17970.0,-33920.0
32.7588603,35.0228482,477.34,-0.06275,0.0315,0.999,-0.48,0.0,0.06,24410.0,17860.0,-33920.0
32.7588603,35.0228482,477.34,-0.0665,0.05425,1.00775,1.1,0.28,0.04,24430.0,17840.0,-33920.0
32.7588603,35.0228482,477.34,-0.064,0.03325,0.99725,0.32,0.46,0.04,24460.0,17840.0,-33920.0
32.7588603,35.0228482,477.34,-0.0675,0.01475,0.98775,-1.3,0.22,0.04,24490.0,17760.0,-33930.0
32.7588603,35.0228482,477.34,-0.07275,0.03525,0.9945,-0.06,-0.16,0.08,24470.0,17670.0,-33950.0
32.7588603,35.0228482,477.34,-0.06275,0.04525,1.0035,1.16,-0.4,-0.04,24410.0,17820.0,-33940.0
32.7588603,35.0228482,477.34,-0.053,0.025,0.99675,-0.2,-0.4,-0.02,24350.0,17970.0,-33920.0
32.7588603,35.0228482,477.34,-0.05975,0.02675,0.99125,-1.08,-0.14,0.1,24330.0,18070.0,-33910.0
32.7588603,35.0228482,477.34,-0.06925,0.0415,0.996,0.4,0.22,0.0,24320.0,18170.0,-33890.0
32.7588603,35.0228482,477.34,-0.067,0.03,0.99875,0.74,0.46,0.02,24320.0,18220.0,-33880.0
32.7588603,35.0228482,477.34,-0.06625,0.015,0.99625,-0.64,0.4,0.02,24340.0,18260.0,-33870.0
32.7588603,35.0228482,477.34,-0.07175,0.03875,0.99875,-0.4,-0.1,0.04,24320.0,18320.0,-33870.0
32.7588603,35.0228482,477.34,-0.06725,0.0515,0.99975,0.9,-0.46,-0.06,24310.0,18340.0,-33870.0
32.7588603,35.0228482,477.34,-0.0575,0.02375,0.98975,0.0,-0.38,-0.06,24310.0,18320.0,-33880.0
32.7588603,35.0228482,477.34,-0.059,0.0145,0.98825,-1.04,-0.04,0.0,24270.0,18220.0,-33900.0
32.7588603,35.0228482,477.34,-0.0675,0.04375,1.001,0.24,0.16,0.0,24320.0,18140.0,-33900.0
32.7588603,35.0228482,477.34,-0.06725,0.04875,1.00425,1.0,0.34,0.02,24320.0,18130.0,-33910.0
32.7588603,35.0228482,477.34,-0.06675,0.01925,0.992,-0.6,0.36,-0.02,24280.0,18250.0,-33910.0
32.7588603,35.0228482,477.34,-0.074,0.02175,0.98925,-1.1,0.02,0.1,24250.0,18280.0,-33900.0
32.7588603,35.0228482,477.34,-0.0715,0.04475,0.99875,0.74,-0.3,-0.02,24300.0,18210.0,-33900.0
32.7588603,35.0228482,477.34,-0.058,0.037,0.99925,0.76,-0.44,-0.06,24290.0,18180.0,-33910.0
32.7588603,35.0228482,477.34,-0.05425,0.0195,0.9915,-0.88,-0.28,0.0,24300.0,18200.0,-33910.0
32.7588603,35.0228481,477.35,-0.06425,0.033,0.99225,-0.62,-0.02,-0.02,24320.0,18280.0,-33890.0
32.7588603,35.0228481,477.35,-0.06825,0.0405,0.9995,0.92,0.32,-0.1,24290.0,18390.0,-33880.0
32.7588603,35.0228481,477.35,-0.06425,0.0205,0.99825,0.18,0.42,0.02,24290.0,18300.0,-33890.0
32.7588603,35.0228481,477.35,-0.06825,0.02175,0.997,-0.86,0.2,0.02,24310.0,18270.0,-33900.0
32.7588603,35.0228481,477.35,-0.07125,0.04675,0.99925,0.2,-0.28,0.0,24290.0,18250.0,-33900.0
32.7588603,35.0228481,477.35,-0.062,0.04,0.99575,0.82,-0.44,-0.04,24310.0,18170.0,-33910.0
32.7588603,35.0228481,477.35,-0.054,0.01325,0.9885,-0.58,-0.28,-0.08,24330.0,18150.0,-33910.0
32.7588603,35.0228481,477.35,-0.0595,0.027,0.9955,-0.66,-0.06,0.02,24340.0,18140.0,-33910.0
32.7588603,35.0228481,477.35,-0.0645,0.05025,1.00825,0.84,0.26,0.0,24290.0,18200.0,-33910.0
32.7588603,35.0228481,477.35,-0.06275,0.035,1.00175,0.46,0.4,-0.04,24310.0,18170.0,-33910.0
32.7588603,35.0228481,477.35,-0.068,0.0145,0.9895,-1.02,0.3,0.1,24360.0,18210.0,-33900.0
32.7588603,35.0228481,477.35,-0.075,0.03325,0.99275,-0.3,-0.04,0.08,24350.0,18310.0,-33880.0
32.7588603,35.0228481,477.35,-0.067,0.04675,1.001,1.12,-0.26,-0.04,24310.0,18260.0,-33900.0
32.7588603,35.0228481,477.35,-0.05475,0.027,0.9955,-0.04,-0.36,-0.02,24300.0,18210.0,-33910.0
32.7588603,35.0228481,477.35,-0.0575,0.024,0.99125,-1.1,-0.24,0.02,24280.0,18230.0,-33910.0
32.7588603,35.0228481,477.35,-0.067,0.04075,0.99725,0.24,0.14,0.02,24310.0,18170.0,-33910.0
32.7588603,35.0228481,477.35,-0.0665,0.03425,1.0005,0.86,0.42,-0.06,24320.0,18220.0,-33900.0
32.7588603,35.0228481,477.35,-0.0665,0.0155,0.9955,-0.48,0.38,0.02,24270.0,18220.0,-33910.0
32.7588603,35.0228481,477.35,-0.0735,0.036,0.996,-0.6,0.04,0.0,24280.0,18170.0,-33910.0
32.7588603,35.0228481,477.35,-0.0705,0.0525,0.999,0.9,-0.28,-0.08,24300.0,18160.0,-33910.0
32.7588603,35.0228482,477.35,-0.05975,0.0275,0.9895,0.2,-0.38,-0.06,24290.0,18250.0,-33900.0
32.7588603,35.0228482,477.35,-0.058,0.01275,0.9875,-1.06,-0.24,0.1,24300.0,18260.0,-33890.0
32.7588603,35.0228482,477.35,-0.0655,0.04,1.00125,0.06,-0.02,0.02,24300.0,18200.0,-33900.0
32.7588603,35.0228482,477.35,-0.06625,0.05075,1.00725,1.18,0.26,-0.04,24260.0,18210.0,-33910.0
32.7588603,35.0228482,477.35,-0.0655,0.0225,0.994,-0.34,0.5,-0.04,24240.0,18170.0,-33920.0
32.7588603,35.0228482,477.35,-0.072,0.0195,0.9875,-1.12,0.18,0.02,24280.0,18150.0,-33910.0
32.7588603,35.0228482,477.35,-0.07275,0.04175,0.99575,0.5,-0.2,-0.02,24250.0,18160.0,-33910.0
32.7588603,35.0228482,477.35,-0.06,0.038,1.0005,0.88,-0.44,0.04,24250.0,18220.0,-33900.0
32.7588603,35.0228482,477.35,-0.05375,0.0195,0.99475,-0.82,-0.42,0.02,24310.0,18250.0,-33880.0
32.7588603,35.0228482,477.35,-0.06175,0.032,0.99475,-0.76,-0.18,0.06,24340.0,18290.0,-33870.0
32.7588603,35.0228482,477.35,-0.06625,0.04375,0.99975,0.88,0.28,0.02,24320.0,18370.0,-33870.0
32.7588603,35.0228482,477.35,-0.0635,0.022,0.99675,0.36,0.52,-0.04,24280.0,18310.0,-33880.0
32.7588603,35.0228482,477.35,-0.066,0.01675,0.995,-1.0,0.3,0.0,24230.0,18220.0,-33900.0
32.7588603,35.0228482,477.35,-0.071,0.044,0.99925,0.12,-0.24,0.02,24230.0,18140.0,-33910.0
32.7588603,35.0228482,477.35,-0.06375,0.048,0.9985,1.0,-0.44,0.0,24250.0,18050.0,-33920.0
32.7588603,35.0228482,477.35,-0.05625,0.01825,0.98925,-0.5,-0.26,-0.04,24260.0,18060.0,-33920.0
32.7588603,35.0228482,477.35,-0.06075,0.0205,0.99125,-0.96,-0.06,0.1,24220.0,18110.0,-33910.0
32.7588603,35.0228482,477.35,-0.068,0.0475,1.004,0.78,0.28,0.04,24250.0,18120.0,-33910.0
32.7588603,35.0228482,477.35,-0.06525,0.04175,1.00325,0.78,0.4,0.0,24270.0,18080.0,-33910.0
32.7588603,35.0228482,477.35,-0.06575,0.016,0.99225,-0.94,0.3,0.04,24300.0,18040.0,-33910.0
32.7588603,35.0228482,477.35,-0.072,0.028,0.9915,-0.74,-0.04,0.0,24310.0,18090.0,-33900.0
32.7588603,35.0228482,477.35,-0.0675,0.047,1.0,1.0,-0.36,-0.08,24290.0,18150.0,-33890.0
32.7588603,35.0228482,477.35,-0.05525,0.02975,0.99775,0.38,-0.34,-0.06,24270.0,18050.0,-33910.0
32.7588603,35.0228482,477.35,-0.0565,0.0185,0.99175,-1.08,-0.14,0.02,24300.0,17990.0,-33910.0
32.7588603,35.0228482,477.35,-0.0675,0.0385,0.995,-0.14,0.1,0.04,24280.0,17980.0,-33920.0
32.7588603,35.0228482,477.35,-0.06925,0.04,0.99825,1.08,0.4,0.0,24250.0,17980.0,-33920.0
32.7588603,35.0228482,477.35,-0.06475,0.01575,0.9945,-0.2,0.42,-0.06,24250.0,17970.0,-33930.0
32.7588603,35.0228482,477.35,-0.0695,0.0235,0.9965,-0.96,0.0,0.02,24250.0,17950.0,-33930.0
32.7588603,35.0228482,477.35,-0.07075,0.05075,1.00125,0.66,-0.38,-0.02,24270.0,17990.0,-33920.0
32.7588603,35.0228482,477.35,-0.06075,0.039,0.995,0.7,-0.38,-0.06,24290.0,17940.0,-33920.0
32.7588603,35.0228482,477.35,-0.05625,0.012,0.987,-0.88,-0.1,-0.04,24300.0,18020.0,-33910.0
32.7588603,35.0228482,477.35,-0.06425,0.02975,0.995,-0.56,0.1,-0.02,24250.0,18050.0,-33910.0
32.7588603,35.0228482,477.35,-0.06775,0.05175,1.00725,1.1,0.28,-0.08,24250.0,18010.0,-33920.0
32.7588603,35.0228482,477.35,-0.0645,0.0315,0.9995,0.38,0.36,0.02,24300.0,17990.0,-33910.0
32.7588603,35.0228482,477.35,-0.0695,0.01525,0.9895,-1.34,0.12,0.0,24330.0,18000.0,-33910.0
32.7588603,35.0228482,477.35,-0.07425,0.0365,0.99275,-0.06,-0.14,0.0,24300.0,18010.0,-33920.0
32.7588603,35.0228482,477.35,-0.06525,0.045,1.0005,1.14,-0.36,-0.04,24270.0,18070.0,-33910.0
32.7588603,35.0228482,477.35,-0.05375,0.02375,0.9965,-0.26,-0.36,-0.08,24240.0,18100.0,-33910.0
32.7588603,35.0228482,477.35,-0.0585,0.025,0.9935,-1.1,-0.22,0.02,24250.0,18100.0,-33910.0
32.7588603,35.0228482,477.35,-0.06675,0.04275,0.99825,0.42,0.16,0.04,24260.0,18070.0,-33910.0
32.7588603,35.0228482,477.35,-0.064,0.0315,0.999,0.82,0.36,0.02,24280.0,18150.0,-33900.0
32.7588603,35.0228482,477.36,-0.065,0.01375,0.99475,-0.74,0.38,0.06,24280.0,18290.0,-33880.0
32.7588603,35.0228482,477.36,-0.0715,0.03725,0.99925,-0.42,0.0,0.04,24280.0,18340.0,-33870.0
32.7588603,35.0228482,477.36,-0.06825,0.05325,1.00125,0.96,-0.28,0.02,24310.0,18400.0,-33850.0
32.7588603,35.0228482,477.36,-0.05675,0.02575,0.99025,0.04,-0.28,-0.02,24310.0,18420.0,-33850.0
32.7588603,35.0228482,477.36,-0.05725,0.013,0.988,-1.1,-0.14,0.02,24300.0,18330.0,-33870.0
32.7588603,35.0228482,477.36,-0.06425,0.04275,1.0015,0.16,0.0,0.04,24290.0,18260.0,-33880.0
32.7588603,35.0228482,477.36,-0.064,0.0505,1.0075,1.1,0.26,-0.06,24250.0,18240.0,-33900.0
32.7588603,35.0228482,477.36,-0.06475,0.0205,0.99375,-0.48,0.4,0.0,24300.0,18260.0,-33880.0
32.7588603,35.0228482,477.36,-0.07275,0.02,0.98825,-1.18,0.3,0.04,24310.0,18310.0,-33870.0
32.7588603,35.0228482,477.36,-0.0735,0.0435,0.99675,0.72,-0.14,-0.04,24310.0,18390.0,-33870.0
32.7588603,35.0228482,477.36,-0.06025,0.0385,0.999,0.86,-0.36,-0.02,24330.0,18370.0,-33860.0
32.7588603,35.0228482,477.36,-0.05425,0.0195,0.99225,-0.86,-0.24,-0.04,24370.0,18310.0,-33860.0
32.7588603,35.0228482,477.36,-0.064,0.0325,0.99325,-0.76,-0.2,0.04,24310.0,18310.0,-33880.0
32.7588603,35.0228482,477.36,-0.06825,0.0415,0.999,0.88,0.26,-0.08,24260.0,18260.0,-33900.0
32.7588603,35.0228482,477.36,-0.06425,0.0215,0.99725,0.34,0.52,0.0,24280.0,18190.0,-33900.0
32.7588603,35.0228482,477.36,-0.06875,0.02,0.99475,-0.9,0.32,-0.06,24280.0,18150.0,-33910.0
32.7588603,35.0228482,477.36,-0.07325,0.046,0.99875,0.06,-0.22,-0.02,24290.0,18170.0,-33900.0
32.7588603,35.0228482,477.36,-0.06575,0.04325,0.9965,0.88,-0.4,-0.1,24310.0,18240.0,-33900.0
32.7588603,35.0228482,477.36,-0.0565,0.01425,0.98825,-0.48,-0.34,-0.04,24280.0,18350.0,-33890.0
32.7588602,35.0228482,477.36,-0.0615,0.02475,0.99375,-0.82,-0.12,0.08,24320.0,18350.0,-33870.0
32.7588602,35.0228482,477.36,-0.066,0.05125,1.007,0.86,0.16,-0.02,24350.0,18320.0,-33870.0
32.7588602,35.0228482,477.36,-0.06375,0.03875,1.001,0.6,0.38,-0.06,24350.0,18240.0,-33880.0
32.7588602,35.0228482,477.36,-0.0675,0.01325,0.98875,-1.04,0.3,0.0,24370.0,18070.0,-33910.0
32.7588602,35.0228482,477.36,-0.07475,0.02925,0.9915,-0.52,0.02,0.04,24460.0,17940.0,-33910.0
32.7588602,35.0228482,477.36,-0.06875,0.0475,1.00325,1.18,-0.22,-0.08,24520.0,17760.0,-33930.0
32.7588602,35.0228482,477.36,-0.055,0.029,0.9985,0.14,-0.4,-0.04,24560.0,17680.0,-33930.0
32.7588602,35.0228482,477.36,-0.056,0.02125,0.991,-1.16,-0.32,0.0,24550.0,17620.0,-33940.0
32.7588602,35.0228482,477.36,-0.065,0.0385,0.995,0.06,0.0,0.02,24540.0,17690.0,-33940.0
32.7588602,35.0228482,477.36,-0.0645,0.03575,0.99975,0.94,0.34,-0.04,24440.0,17850.0,-33930.0
32.7588602,35.0228482,477.36,-0.063,0.01525,0.996,-0.38,0.48,0.0,24400.0,18090.0,-33900.0
32.7588602,35.0228482,477.36,-0.07075,0.03075,0.997,-0.7,0.1,0.06,24370.0,18150.0,-33890.0
32.7588602,35.0228482,477.36,-0.071,0.051,1.0,0.72,-0.18,-0.04,24300.0,18180.0,-33910.0
32.7588602,35.0228482,477.36,-0.0605,0.03075,0.9925,0.44,-0.34,-0.1,24300.0,18180.0,-33910.0
32.7588602,35.0228482,477.36,-0.0555,0.012,0.989,-0.96,-0.2,0.02,24320.0,18140.0,-33910.0
32.7588602,35.0228482,477.36,-0.0625,0.03725,0.9995,-0.12,0.0,-0.04,24330.0,18220.0,-33890.0
32.7588602,35.0228482,477.36,-0.06375,0.0525,1.0065,1.12,0.18,-0.02,24360.0,18200.0,-33890.0
32.7588602,35.0228482,477.36,-0.064,0.02575,0.995,-0.1,0.48,0.02,24350.0,18220.0,-33890.0
32.7588602,35.0228482,477.36,-0.0725,0.016,0.98825,-1.16,0.36,-0.04,24310.0,18190.0,-33900.0
32.7588602,35.0228482,477.36,-0.0765,0.0395,0.99625,0.24,0.0,0.04,24300.0,18160.0,-33900.0
32.7588603,35.0228482,477.37,-0.06525,0.0425,1.001,1.14,-0.26,-0.08,24300.0,18230.0,-33890.0
32.7588603,35.0228482,477.37,-0.05425,0.0215,0.99375,-0.56,-0.4,0.02,24300.0,18290.0,-33880.0
32.7588603,35.0228482,477.37,-0.06025,0.02875,0.99125,-0.96,-0.28,0.02,24300.0,18200.0,-33890.0
32.7588603,35.0228482,477.37,-0.066,0.0425,0.99775,0.76,0.08,-0.06,24330.0,18110.0,-33900.0
32.7588603,35.0228482,477.37,-0.065,0.02675,0.99825,0.66,0.46,-0.06,24340.0,18100.0,-33900.0
32.7588603,35.0228482,477.37,-0.0685,0.015,0.996,-0.82,0.48,0.1,24370.0,18110.0,-33900.0
32.7588603,35.0228482,477.37,-0.07525,0.04075,0.9985,-0.08,0.02,-0.02,24330.0,18100.0,-33900.0
32.7588603,35.0228482,477.37,-0.07,0.05025,0.9985,1.02,-0.32,-0.04,24300.0,18110.0,-33910.0
32.7588603,35.0228482,477.37,-0.05725,0.02075,0.98875,-0.2,-0.36,0.0,24260.0,18210.0,-33900.0
32.7588603,35.0228482,477.37,-0.0575,0.01675,0.9905,-1.08,-0.26,0.02,24300.0,18270.0,-33880.0
32.7588603,35.0228482,477.37,-0.0635,0.04625,1.00475,0.56,-0.06,0.02,24310.0,18330.0,-33870.0
32.7588603,35.0228482,477.37,-0.063,0.047,1.00675,1.08,0.3,0.04,24290.0,18390.0,-33860.0
32.7588603,35.0228482,477.37,-0.06525,0.01725,0.9925,-0.78,0.52,0.02,24290.0,18350.0,-33870.0
32.7588603,35.0228482,477.37,-0.0735,0.024,0.98925,-1.02,0.26,0.0,24300.0,18320.0,-33870.0
32.7588603,35.0228482,477.37,-0.07175,0.04725,0.9995,0.94,-0.14,-0.02,24300.0,18250.0,-33880.0
32.7588603,35.0228482,477.37,-0.05775,0.0355,0.99925,0.66,-0.42,-0.02,24300.0,18170.0,-33890.0
32.7588603,35.0228482,477.37,-0.05325,0.019,0.99275,-1.06,-0.42,0.04,24300.0,18180.0,-33890.0
32.7588603,35.0228482,477.37,-0.0625,0.036,0.995,-0.54,-0.2,-0.02,24270.0,18170.0,-33900.0
32.7588603,35.0228482,477.37,-0.0655,0.04425,1.00075,1.08,0.22,-0.02,24250.0,18140.0,-33910.0
32.7588603,35.0228482,477.37,-0.063,0.021,0.99675,0.08,0.56,-0.02,24250.0,18060.0,-33910.0
32.7588602,35.0228482,477.37,-0.06925,0.02075,0.9945,-1.04,0.34,0.04,24260.0,18160.0,-33900.0
32.7588602,35.0228482,477.37,-0.07375,0.0475,0.99825,0.34,-0.14,-0.02,24290.0,18210.0,-33890.0
32.7588602,35.0228482,477.37,-0.064,0.0425,0.99575,0.9,-0.36,-0.04,24280.0,18120.0,-33900.0
32.7588602,35.0228482,477.37,-0.056,0.01325,0.988,-0.74,-0.36,0.04,24260.0,18140.0,-33910.0
32.7588602,35.0228482,477.37,-0.061,0.02675,0.99425,-0.86,-0.06,0.04,24240.0,18080.0,-33920.0
32.7588602,35.0228482,477.37,-0.066,0.051,1.00625,0.92,0.18,-0.06,24260.0,18030.0,-33920.0
32.7588602,35.0228482,477.37,-0.06425,0.035,1.0,0.48,0.4,-0.04,24240.0,17990.0,-33930.0
32.7588602,35.0228482,477.37,-0.069,0.0125,0.988,-1.14,0.48,0.06,24260.0,18000.0,-33920.0
32.7588602,35.0228482,477.37,-0.07625,0.031,0.99075,-0.36,0.1,0.06,24260.0,18000.0,-33920.0
32.7588602,35.0228482,477.37,-0.0695,0.04675,1.001,1.14,-0.34,-0.06,24260.0,18020.0,-33920.0
32.7588602,35.0228482,477.37,-0.0555,0.02625,0.9965,0.02,-0.36,-0.06,24280.0,18080.0,-33910.0
32.7588602,35.0228482,477.37,-0.058,0.02075,0.991,-1.18,-0.36,0.04,24280.0,18050.0,-33910.0
32.7588602,35.0228482,477.37,-0.067,0.04025,0.99625,0.2,0.02,0.02,24260.0,18050.0,-33920.0
32.7588602,35.0228482,477.37,-0.0655,0.0355,0.9995,0.98,0.36,-0.06,24220.0,18030.0,-33930.0
32.7588602,35.0228482,477.37,-0.0645,0.0145,0.99625,-0.5,0.5,0.04,24240.0,18040.0,-33920.0
32.7588602,35.0228482,477.37,-0.072,0.03125,0.99825,-0.72,0.1,0.02,24270.0,18070.0,-33920.0
32.7588602,35.0228482,477.37,-0.07,0.052,1.00125,0.86,-0.3,-0.02,24280.0,18110.0,-33910.0
32.7588602,35.0228482,477.37,-0.058,0.02975,0.99225,0.4,-0.44,-0.04,24280.0,18160.0,-33900.0
32.7588602,35.0228482,477.37,-0.05575,0.0115,0.988,-1.1,-0.3,0.0,24300.0,18160.0,-33900.0
32.7588602,35.0228482,477.37,-0.06375,0.03775,0.99975,-0.18,0.04,0.0,24280.0,18140.0,-33910.0
32.7588602,35.0228482,477.38,-0.06475,0.05175,1.0085,1.14,0.28,-0.02,24280.0,18190.0,-33900.0
32.7588602,35.0228482,477.38,-0.06375,0.0255,0.9965,-0.14,0.5,0.0,24300.0,18230.0,-33890.0
32.7588602,35.0228482,477.38,-0.07075,0.01725,0.98875,-1.24,0.24,0.12,24300.0,18170.0,-33900.0
32.7588602,35.0228482,477.38,-0.0735,0.0395,0.99675,0.32,-0.12,-0.04,24310.0,18120.0,-33900.0
32.7588602,35.0228482,477.38,-0.0605,0.03975,1.001,1.06,-0.34,-0.04,24280.0,18110.0,-33910.0
32.7588602,35.0228482,477.38,-0.053,0.0205,0.99375,-0.58,-0.36,0.02,24270.0,18100.0,-33920.0
32.7588602,35.0228482,477.38,-0.06125,0.03125,0.99175,-0.88,-0.14,0.04,24300.0,18070.0,-33920.0
32.7588602,35.0228482,477.38,-0.0675,0.042,0.9975,0.72,0.3,0.0,24330.0,18050.0,-33910.0
32.7588602,35.0228482,477.38,-0.06475,0.023,0.99675,0.5,0.52,0.0,24290.0,18070.0,-33920.0
32.7588602,35.0228482,477.38,-0.068,0.01575,0.99625,-0.8,0.34,-0.04,24280.0,18080.0,-33920.0
32.7588602,35.0228482,477.38,-0.073,0.045,1.00025,0.02,-0.12,0.1,24330.0,18210.0,-33890.0
32.7588602,35.0228482,477.38,-0.065,0.0495,0.99775,0.96,-0.4,-0.04,24340.0,18270.0,-33880.0
32.7588602,35.0228482,477.38,-0.05575,0.018,0.9865,-0.32,-0.42,-0.06,24350.0,18280.0,-33870.0
32.7588602,35.0228482,477.38,-0.05975,0.019,0.98925,-1.02,-0.06,0.04,24350.0,18260.0,-33880.0
32.7588602,35.0228482,477.38,-0.06675,0.048,1.006,0.64,0.12,0.0,24280.0,18230.0,-33900.0
32.7588602,35.0228482,477.38,-0.066,0.04375,1.00575,0.9,0.5,0.04,24260.0,18140.0,-33910.0
32.7588602,35.0228482,477.38,-0.068,0.01575,0.99025,-0.88,0.46,0.04,24280.0,18170.0,-33910.0
32.7588602,35.0228482,477.38,-0.0755,0.0265,0.98825,-0.78,0.06,0.08,24280.0,18180.0,-33910.0
32.7588602,35.0228482,477.38,-0.0705,0.046,0.9985,1.04,-0.24,-0.04,24280.0,18220.0,-33900.0
32.7588602,35.0228482,477.38,-0.056,0.03075,0.998,0.44,-0.42,-0.04,24310.0,18190.0,-33900.0
32.7588602,35.0228482,477.38,-0.05575,0.02,0.9925,-1.0,-0.34,0.0,24360.0,18240.0,-33890.0
32.7588602,35.0228482,477.38,-0.06575,0.03775,0.9965,-0.2,-0.02,0.06,24360.0,18380.0,-33870.0
32.7588602,35.0228482,477.38,-0.06725,0.039,1.0015,0.96,0.44,0.0,24370.0,18400.0,-33850.0
32.7588602,35.0228482,477.38,-0.064,0.0175,0.99725,-0.2,0.5,0.0,24370.0,18390.0,-33860.0
32.7588602,35.0228482,477.38,-0.069,0.02725,0.9965,-0.78,0.1,0.08,24360.0,18280.0,-33880.0
32.7588602,35.0228482,477.38,-0.0695,0.05125,1.0005,0.6,-0.32,0.04,24360.0,18180.0,-33890.0
32.7588602,35.0228482,477.38,-0.05925,0.03575,0.9945,0.58,-0.44,-0.04,24340.0,18170.0,-33890.0
32.7588602,35.0228482,477.38,-0.05475,0.011,0.989,-0.96,-0.18,0.06,24320.0,18120.0,-33900.0
32.7588602,35.0228482,477.38,-0.0625,0.03325,0.9985,-0.42,0.06,0.06,24340.0,18150.0,-33900.0
32.7588602,35.0228482,477.38,-0.06525,0.055,1.00825,1.12,0.36,0.0,24320.0,18130.0,-33910.0
32.7588602,35.0228482,477.38,-0.06375,0.0315,0.99625,0.16,0.46,0.02,24280.0,18220.0,-33900.0
32.7588602,35.0228482,477.38,-0.07,0.0145,0.986,-1.3,0.32,0.0,24260.0,18260.0,-33890.0
32.7588602,35.0228482,477.38,-0.0745,0.03625,0.9935,-0.02,-0.12,0.04,24260.0,18190.0,-33910.0
32.7588602,35.0228482,477.38,-0.0645,0.04625,1.00375,1.24,-0.3,-0.06,24250.0,18210.0,-33910.0
32.7588602,35.0228482,477.38,-0.05375,0.02475,0.9965,-0.3,-0.34,-0.08,24230.0,18220.0,-33910.0
32.7588602,35.0228482,477.38,-0.059,0.02625,0.98975,-1.1,-0.16,0.0,24280.0,18150.0,-33910.0
32.7588602,35.0228482,477.38,-0.06775,0.0425,0.99425,0.52,0.18,0.04,24290.0,18130.0,-33910.0
32.7588602,35.0228482,477.38,-0.06625,0.02975,0.9975,0.76,0.48,-0.06,24280.0,18160.0,-33900.0
32.7588602,35.0228482,477.38,-0.06675,0.01325,0.99575,-0.7,0.4,0.06,24280.0,18220.0,-33890.0
32.7588602,35.0228482,477.38,-0.07375,0.0375,0.9995,-0.42,0.02,0.06,24270.0,18320.0,-33880.0
32.7588602,35.0228482,477.39,-0.06875,0.05175,0.99975,0.98,-0.4,0.02,24280.0,18350.0,-33870.0
32.7588602,35.0228482,477.39,-0.057,0.0235,0.98875,0.02,-0.4,0.0,24300.0,18330.0,-33870.0
32.7588602,35.0228482,477.39,-0.0575,0.0135,0.98675,-1.16,-0.16,0.08,24290.0,18230.0,-33890.0
32.7588602,35.0228482,477.39,-0.0655,0.04125,1.0015,0.24,0.06,0.06,24290.0,18150.0,-33900.0
32.7588602,35.0228482,477.39,-0.0655,0.047,1.00775,1.14,0.34,0.0,24290.0,18120.0,-33900.0
32.7588602,35.0228482,477.39,-0.066,0.01975,0.995,-0.52,0.4,0.04,24310.0,18100.0,-33900.0
32.7588602,35.0228482,477.39,-0.0735,0.02225,0.98975,-1.08,0.22,0.06,24280.0,18110.0,-33910.0
32.7588602,35.0228482,477.39,-0.07175,0.045,0.9975,0.74,-0.18,0.06,24270.0,18080.0,-33910.0
32.7588602,35.0228482,477.39,-0.058,0.0355,0.998,0.68,-0.44,-0.02,24280.0,18030.0,-33920.0
32.7588602,35.0228482,477.39,-0.053,0.0175,0.993,-0.88,-0.36,0.02,24340.0,17840.0,-33940.0
32.7588602,35.0228482,477.39,-0.063,0.03425,0.996,-0.54,-0.1,0.06,24410.0,17790.0,-33930.0
32.7588602,35.0228482,477.39,-0.067,0.0445,1.00225,0.92,0.3,0.0,24460.0,17790.0,-33920.0
32.7588602,35.0228482,477.39,-0.06425,0.02225,0.997,0.14,0.54,0.0,24460.0,17790.0,-33920.0
32.7588602,35.0228482,477.39,-0.069,0.0185,0.99375,-0.98,0.3,0.0,24530.0,17780.0,-33910.0
32.7588602,35.0228482,477.39,-0.0725,0.0465,0.998,0.22,-0.22,-0.02,24520.0,17820.0,-33900.0
32.7588602,35.0228482,477.39,-0.0635,0.0445,0.997,0.96,-0.38,-0.04,24390.0,17970.0,-33910.0
32.7588602,35.0228482,477.39,-0.0555,0.01475,0.98875,-0.64,-0.28,0.0,24280.0,18110.0,-33900.0
32.7588602,35.0228482,477.39,-0.0605,0.02375,0.99325,-0.86,-0.06,0.04,24280.0,18110.0,-33900.0
32.7588602,35.0228482,477.39,-0.066,0.05025,1.0065,0.94,0.22,-0.02,24260.0,18060.0,-33910.0
32.7588602,35.0228482,477.39,-0.064,0.03825,1.001,0.66,0.4,-0.06,24260.0,18030.0,-33920.0
32.7588602,35.0228482,477.4,-0.06775,0.0135,0.988,-1.04,0.36,0.06,24290.0,18130.0,-33900.0
32.7588602,35.0228482,477.4,-0.075,0.03125,0.99025,-0.48,0.04,0.0,24240.0,18180.0,-33900.0
32.7588602,35.0228482,477.4,-0.06825,0.04775,1.00175,1.16,-0.28,-0.02,24240.0,18060.0,-33910.0
32.7588602,35.0228482,477.4,-0.0545,0.02825,0.9985,0.12,-0.32,-0.02,24290.0,17970.0,-33920.0
32.7588602,35.0228482,477.4,-0.05625,0.021,0.9925,-1.12,-0.34,-0.02,24270.0,17990.0,-33920.0
32.7588602,35.0228482,477.4,-0.0655,0.03975,0.99525,0.12,-0.06,0.04,24200.0,18040.0,-33930.0
32.7588602,35.0228482,477.4,-0.066,0.0375,0.99825,1.02,0.46,-0.04,24200.0,18020.0,-33920.0
32.7588602,35.0228482,477.4,-0.06525,0.0155,0.99475,-0.46,0.54,0.02,24230.0,17950.0,-33930.0
32.7588602,35.0228482,477.4,-0.0725,0.03025,0.9975,-0.76,0.14,0.04,24280.0,17970.0,-33920.0
32.7588602,35.0228482,477.4,-0.072,0.0515,1.00225,0.8,-0.3,-0.02,24290.0,17970.0,-33910.0
32.7588602,35.0228482,477.4,-0.06025,0.033,0.993,0.54,-0.4,-0.04,24280.0,18080.0,-33910.0
32.7588602,35.0228482,477.4,-0.0555,0.01175,0.9865,-0.96,-0.26,-0.06,24230.0,18200.0,-33900.0
32.7588602,35.0228482,477.4,-0.0635,0.036,0.9975,-0.24,-0.02,0.0,24230.0,18090.0,-33910.0
32.7588602,35.0228482,477.4,-0.06575,0.052,1.0075,1.16,0.24,-0.02,24260.0,18030.0,-33920.0
32.7588602,35.0228482,477.4,-0.0645,0.02625,0.99775,-0.02,0.42,-0.04,24220.0,18020.0,-33930.0
32.7588602,35.0228482,477.4,-0.07175,0.01725,0.9895,-1.2,0.32,0.04,24220.0,18010.0,-33930.0
32.7588602,35.0228482,477.4,-0.075,0.04,0.996,0.28,-0.1,0.02,24260.0,18130.0,-33900.0
32.7588602,35.0228482,477.4,-0.06275,0.0415,1.00075,1.12,-0.42,-0.04,24250.0,18150.0,-33910.0
32.7588602,35.0228482,477.4,-0.05325,0.02075,0.99325,-0.48,-0.4,0.02,24270.0,18110.0,-33910.0
32.7588602,35.0228482,477.4,-0.0595,0.0295,0.99325,-0.88,-0.24,0.0,24280.0,18060.0,-33920.0
32.7588602,35.0228482,477.4,-0.06625,0.0435,1.0005,0.66,0.16,0.0,24320.0,18140.0,-33900.0
32.7588602,35.0228482,477.4,-0.0635,0.02525,0.99825,0.54,0.52,0.02,24330.0,18180.0,-33890.0
32.7588602,35.0228482,477.4,-0.0665,0.01425,0.9945,-0.86,0.38,0.04,24300.0,18110.0,-33900.0
32.7588602,35.0228482,477.4,-0.0725,0.04175,0.9985,-0.1,-0.16,0.04,24230.0,18100.0,-33920.0
32.7588602,35.0228482,477.4,-0.06575,0.04925,0.99925,0.96,-0.28,-0.06,24210.0,18060.0,-33930.0
32.7588602,35.0228482,477.4,-0.05575,0.0185,0.9875,-0.3,-0.36,0.0,24240.0,18020.0,-33930.0
32.7588602,35.0228482,477.4,-0.05875,0.018,0.98925,-1.0,-0.12,0.0,24230.0,18060.0,-33930.0
32.7588602,35.0228482,477.4,-0.06575,0.04625,1.0045,0.52,0.12,-0.04,24210.0,18030.0,-33940.0
32.7588602,35.0228482,477.4,-0.06425,0.04275,1.00475,0.94,0.4,0.02,24210.0,18050.0,-33940.0
32.7588602,35.0228482,477.4,-0.0675,0.0165,0.99,-0.86,0.4,-0.02,24220.0,18130.0,-33920.0
32.7588602,35.0228482,477.4,-0.0755,0.0275,0.9885,-0.76,0.12,0.1,24260.0,18190.0,-33900.0
32.7588602,35.0228482,477.4,-0.0715,0.046,0.9995,0.92,-0.2,0.0,24270.0,18180.0,-33900.0
32.7588602,35.0228482,477.4,-0.05675,0.0315,0.9985,0.42,-0.42,0.02,24280.0,18260.0,-33890.0
32.7588602,35.0228482,477.4,-0.055,0.02125,0.99225,-1.02,-0.4,0.04,24280.0,18290.0,-33890.0
32.7588602,35.0228482,477.4,-0.06475,0.03825,0.9955,-0.2,-0.1,-0.02,24280.0,18300.0,-33890.0
32.7588602,35.0228482,477.4,-0.0665,0.03775,0.99975,0.9,0.36,-0.02,24290.0,18230.0,-33900.0
32.7588602,35.0228482,477.4,-0.065,0.01625,0.99525,-0.22,0.52,0.04,24270.0,18210.0,-33900.0
32.7588602,35.0228482,477.4,-0.07225,0.02775,0.99675,-0.82,0.28,-0.02,24290.0,18150.0,-33910.0
32.7588602,35.0228482,477.4,-0.07225,0.051,1.001,0.64,-0.28,-0.08,24290.0,18140.0,-33920.0
32.7588602,35.0228482,477.4,-0.06075,0.03425,0.99375,0.46,-0.42,-0.06,24220.0,18150.0,-33920.0
32.7588602,35.0228482,477.41,-0.0555,0.01125,0.987,-0.88,-0.3,0.0,24290.0,18190.0,-33900.0
32.7588602,35.0228482,477.41,-0.06225,0.033,0.9975,-0.32,0.0,0.06,24330.0,18170.0,-33890.0
32.7588602,35.0228482,477.41,-0.0645,0.05225,1.00925,1.14,0.26,-0.04,24290.0,18120.0,-33910.0
32.7588602,35.0228482,477.41,-0.06375,0.029,0.99825,-0.02,0.5,0.02,24290.0,18080.0,-33920.0
32.7588602,35.0228482,477.41,-0.07075,0.01575,0.988,-1.16,0.4,0.08,24290.0,18080.0,-33920.0
32.7588602,35.0228482,477.41,-0.0755,0.03775,0.99475,0.1,-0.02,-0.04,24260.0,18090.0,-33930.0
32.7588602,35.0228482,477.41,-0.06325,0.0435,1.0015,1.1,-0.38,0.0,24270.0,18040.0,-33930.0
32.7588602,35.0228482,477.41,-0.05275,0.02325,0.99475,-0.38,-0.48,0.0,24280.0,18040.0,-33930.0
32.7588602,35.0228482,477.41,-0.05975,0.0285,0.992,-1.02,-0.24,0.1,24260.0,18090.0,-33930.0
32.7588602,35.0228482,477.41,-0.067,0.0415,0.9985,0.56,0.2,0.02,24290.0,18030.0,-33930.0
32.7588602,35.0228482,477.41,-0.06475,0.02625,0.9985,0.6,0.54,0.04,24330.0,18090.0,-33910.0
32.7588602,35.0228482,477.41,-0.06675,0.0165,0.99475,-0.7,0.46,0.0,24310.0,18080.0,-33920.0
32.7588602,35.0228482,477.41,-0.072,0.0425,0.99775,-0.22,-0.12,-0.02,24300.0,18070.0,-33920.0
32.7588602,35.0228482,477.41,-0.06575,0.04825,0.998,0.84,-0.5,-0.02,24290.0,18050.0,-33930.0
32.7588602,35.0228482,477.41,-0.05675,0.019,0.9885,-0.26,-0.38,-0.04,24280.0,18060.0,-33930.0
32.7588602,35.0228482,477.41,-0.059,0.01875,0.99125,-0.94,-0.08,0.1,24330.0,18070.0,-33910.0
32.7588602,35.0228482,477.41,-0.0665,0.04775,1.00525,0.52,0.16,-0.02,24320.0,18110.0,-33910.0
32.7588602,35.0228482,477.41,-0.06475,0.0445,1.00375,0.9,0.48,0.02,24290.0,18100.0,-33920.0
32.7588602,35.0228482,477.41,-0.06625,0.01625,0.99025,-0.7,0.4,0.04,24280.0,18090.0,-33920.0
32.7588602,35.0228482,477.41,-0.07375,0.02525,0.98975,-0.8,0.0,0.04,24290.0,18070.0,-33920.0
32.7588602,35.0228482,477.41,-0.06975,0.04625,1.00225,0.94,-0.24,0.02,24310.0,18170.0,-33900.0
32.7588602,35.0228482,477.41,-0.0565,0.03325,0.9995,0.5,-0.42,-0.06,24280.0,18340.0,-33880.0
32.7588602,35.0228482,477.41,-0.056,0.02025,0.99175,-1.02,-0.28,0.06,24310.0,18380.0,-33870.0
32.7588602,35.0228482,477.41,-0.066,0.03675,0.99375,-0.24,0.08,0.06,24320.0,18350.0,-33870.0
32.7588602,35.0228482,477.41,-0.06825,0.038,0.99975,0.88,0.38,0.02,24300.0,18270.0,-33880.0
32.7588602,35.0228482,477.41,-0.0655,0.01675,0.99625,-0.18,0.42,-0.06,24270.0,18150.0,-33910.0
32.7588602,35.0228482,477.41,-0.07025,0.0265,0.99575,-0.82,0.08,0.04,24270.0,18120.0,-33920.0
32.7588602,35.0228482,477.41,-0.0715,0.0505,1.0,0.5,-0.28,-0.04,24220.0,18140.0,-33920.0
32.7588602,35.0228482,477.41,-0.06175,0.0365,0.9945,0.56,-0.38,-0.02,24270.0,18120.0,-33910.0
32.7588602,35.0228482,477.41,-0.056,0.012,0.98725,-0.84,-0.22,0.02,24310.0,18030.0,-33920.0
32.7588602,35.0228482,477.41,-0.063,0.03325,0.9965,-0.34,-0.04,0.08,24270.0,18160.0,-33910.0
32.7588602,35.0228482,477.41,-0.06475,0.05275,1.00775,1.1,0.26,-0.04,24230.0,18130.0,-33910.0
32.7588602,35.0228482,477.41,-0.063,0.029,0.99875,0.08,0.36,-0.06,24250.0,18110.0,-33910.0
32.7588602,35.0228482,477.41,-0.069,0.016,0.9895,-1.18,0.28,0.02,24280.0,18180.0,-33890.0
32.7588602,35.0228482,477.41,-0.07375,0.0375,0.99525,0.12,-0.12,0.02,24330.0,18210.0,-33880.0
32.7588602,35.0228482,477.41,-0.06275,0.04425,1.00225,1.14,-0.34,-0.02,24330.0,18240.0,-33880.0
32.7588602,35.0228482,477.41,-0.05225,0.02225,0.9945,-0.42,-0.38,-0.02,24270.0,18210.0,-33890.0
32.7588602,35.0228482,477.41,-0.059,0.02575,0.99125,-0.96,-0.16,0.02,24260.0,18200.0,-33900.0
32.7588602,35.0228482,477.41,-0.0675,0.04175,0.9995,0.52,0.16,-0.04,24300.0,18200.0,-33890.0
32.7588602,35.0228482,477.41,-0.06525,0.02925,1.0,0.64,0.52,-0.02,24300.0,18190.0,-33890.0
32.7588602,35.0228482,477.42,-0.06625,0.015,0.99425,-0.76,0.42,0.04,24290.0,18200.0,-33890.0
32.7588602,35.0228482,477.42,-0.07275,0.038,0.99725,-0.24,-0.02,0.02,24290.0,18200.0,-33880.0
32.7588602,35.0228482,477.42,-0.068,0.04825,0.99875,0.96,-0.3,0.0,24300.0,18090.0,-33900.0
32.7588602,35.0228482,477.42,-0.05675,0.02075,0.99,0.02,-0.32,-0.02,24300.0,18060.0,-33900.0
32.7588602,35.0228482,477.42,-0.058,0.017,0.98975,-1.08,-0.16,0.04,24310.0,18060.0,-33910.0
32.7588602,35.0228482,477.42,-0.06625,0.04625,1.002,0.46,0.14,0.02,24280.0,18070.0,-33910.0
32.7588602,35.0228482,477.42,-0.0655,0.0465,1.0035,0.98,0.36,-0.06,24300.0,18050.0,-33910.0
32.7588602,35.0228482,477.42,-0.06725,0.01675,0.99,-0.7,0.46,0.08,24320.0,18010.0,-33910.0
32.7588602,35.0228482,477.42,-0.0745,0.02275,0.98975,-0.94,0.12,0.04,24300.0,18030.0,-33910.0
32.7588602,35.0228482,477.42,-0.073,0.04625,1.00125,0.82,-0.22,-0.04,24300.0,18010.0,-33910.0
32.7588602,35.0228482,477.42,-0.058,0.0365,0.99875,0.7,-0.46,-0.04,24310.0,18080.0,-33900.0
32.7588602,35.0228482,477.42,-0.0535,0.0215,0.98975,-1.0,-0.36,0.04,24300.0,18100.0,-33900.0
32.7588602,35.0228482,477.42,-0.064,0.03575,0.99275,-0.46,-0.04,0.04,24270.0,18080.0,-33910.0
32.7588602,35.0228482,477.42,-0.067,0.03925,1.00025,0.92,0.3,-0.06,24300.0,18020.0,-33910.0
32.7588602,35.0228482,477.42,-0.0645,0.019,0.99775,0.04,0.5,0.02,24360.0,17880.0,-33920.0
32.7588602,35.0228482,477.42,-0.07075,0.02575,0.99675,-0.82,0.28,0.02,24390.0,17750.0,-33940.0
32.7588602,35.0228482,477.42,-0.07225,0.05125,1.00025,0.38,-0.24,0.08,24400.0,17680.0,-33940.0
32.7588602,35.0228482,477.42,-0.062,0.0395,0.99425,0.64,-0.4,-0.02,24460.0,17650.0,-33940.0
32.7588602,35.0228482,477.42,-0.05425,0.01175,0.98725,-0.8,-0.34,0.04,24470.0,17610.0,-33950.0
32.7588602,35.0228482,477.42,-0.06075,0.02925,0.99625,-0.54,-0.06,0.0,24490.0,17610.0,-33950.0
32.7588602,35.0228482,477.43,-0.06425,0.05375,1.00975,1.04,0.24,0.04,24430.0,17830.0,-33920.0
32.7588602,35.0228482,477.43,-0.0635,0.03525,1.00075,0.36,0.52,-0.04,24340.0,18020.0,-33910.0
32.7588602,35.0228482,477.43,-0.07025,0.015,0.9875,-1.24,0.38,0.08,24300.0,18030.0,-33920.0
32.7588602,35.0228482,477.43,-0.076,0.0335,0.99325,-0.2,-0.02,0.02,24290.0,18050.0,-33920.0
32.7588602,35.0228482,477.43,-0.0665,0.04375,1.0025,1.2,-0.34,-0.02,24280.0,18060.0,-33920.0
32.7588602,35.0228482,477.43,-0.0525,0.0245,0.9965,-0.16,-0.5,0.02,24240.0,18100.0,-33920.0
32.7588602,35.0228482,477.43,-0.057,0.0265,0.99225,-1.02,-0.3,0.0,24260.0,18110.0,-33910.0
32.7588602,35.0228482,477.43,-0.0655,0.0415,0.99725,0.32,0.1,0.02,24290.0,18080.0,-33910.0
32.7588602,35.0228482,477.43,-0.06525,0.029,0.9985,0.7,0.5,0.06,24320.0,18110.0,-33900.0
32.7588602,35.0228482,477.43,-0.06725,0.013,0.99425,-0.58,0.54,0.02,24310.0,18080.0,-33910.0
32.7588602,35.0228482,477.43,-0.07475,0.0375,0.99675,-0.34,0.08,0.04,24310.0,18200.0,-33900.0
32.7588602,35.0228482,477.43,-0.0705,0.051,0.998,0.92,-0.34,-0.04,24290.0,18270.0,-33890.0
32.7588602,35.0228482,477.43,-0.05825,0.02325,0.9885,-0.06,-0.4,0.0,24290.0,18170.0,-33910.0
32.7588602,35.0228482,477.43,-0.05675,0.01425,0.98975,-1.08,-0.3,-0.06,24290.0,18150.0,-33910.0
32.7588602,35.0228482,477.43,-0.06375,0.04275,1.00325,0.24,0.0,0.02,24280.0,18250.0,-33890.0
32.7588602,35.0228482,477.43,-0.064,0.0485,1.00575,1.14,0.42,0.0,24300.0,18310.0,-33880.0
32.7588602,35.0228482,477.43,-0.066,0.019,0.9915,-0.56,0.6,0.02,24310.0,18330.0,-33880.0
32.7588602,35.0228482,477.43,-0.0755,0.02075,0.98775,-1.06,0.36,0.0,24280.0,18390.0,-33870.0
32.7588602,35.0228482,477.43,-0.07525,0.04325,0.9985,0.7,-0.18,0.02,24300.0,18280.0,-33890.0
32.7588602,35.0228482,477.43,-0.06,0.03675,1.0005,0.74,-0.56,-0.06,24280.0,18190.0,-33910.0
32.7588602,35.0228482,477.44,-0.05325,0.0205,0.99225,-0.88,-0.48,0.04,24270.0,18270.0,-33900.0
32.7588602,35.0228482,477.44,-0.062,0.03425,0.99375,-0.64,-0.22,0.04,24290.0,18280.0,-33890.0
32.7588602,35.0228482,477.44,-0.06675,0.0405,0.99975,0.92,0.36,-0.02,24290.0,18190.0,-33900.0
32.7588602,35.0228482,477.44,-0.06425,0.02025,0.998,0.14,0.64,0.08,24250.0,18210.0,-33910.0
32.7588602,35.0228482,477.44,-0.06925,0.02275,0.997,-0.74,0.4,-0.02,24200.0,18210.0,-33920.0
32.7588602,35.0228482,477.44,-0.073,0.0485,1.00025,0.28,-0.18,0.02,24230.0,18130.0,-33920.0
32.7588602,35.0228482,477.44,-0.0635,0.04225,0.9955,0.8,-0.48,-0.02,24260.0,18100.0,-33920.0
32.7588602,35.0228482,477.44,-0.0545,0.01325,0.9885,-0.62,-0.48,0.04,24290.0,18040.0,-33930.0
32.7588602,35.0228482,477.44,-0.06,0.02775,0.9955,-0.66,-0.1,0.0,24280.0,18080.0,-33920.0
32.7588602,35.0228482,477.44,-0.06475,0.05275,1.0085,0.94,0.18,0.02,24270.0,18090.0,-33920.0
32.7588602,35.0228482,477.44,-0.06325,0.03725,1.0015,0.5,0.52,0.02,24310.0,18140.0,-33900.0
32.7588602,35.0228482,477.44,-0.06775,0.015,0.98875,-1.14,0.38,-0.06,24310.0,18110.0,-33910.0
32.7588602,35.0228482,477.44,-0.0745,0.03225,0.99125,-0.32,-0.06,0.02,24280.0,18080.0,-33920.0
32.7588602,35.0228482,477.44,-0.0665,0.047,1.0005,1.1,-0.34,0.0,24250.0,18070.0,-33930.0
32.7588602,35.0228482,477.44,-0.05425,0.02775,0.99625,0.04,-0.46,-0.02,24270.0,18050.0,-33930.0
32.7588602,35.0228482,477.44,-0.058,0.02375,0.99175,-1.08,-0.22,0.02,24300.0,18090.0,-33920.0
32.7588602,35.0228482,477.44,-0.068,0.04,0.99575,0.14,0.14,0.0,24330.0,18150.0,-33900.0
32.7588602,35.0228482,477.44,-0.06625,0.033,0.99875,0.84,0.42,0.06,24340.0,18190.0,-33890.0
32.7588602,35.0228482,477.44,-0.06475,0.014,0.99425,-0.48,0.46,-0.04,24300.0,18140.0,-33900.0
32.7588602,35.0228482,477.44,-0.07125,0.033,0.9965,-0.64,0.02,0.06,24240.0,18110.0,-33920.0
32.7588602,35.0228483,477.45,-0.06925,0.05075,1.00025,0.86,-0.36,0.0,24270.0,18170.0,-33910.0
32.7588602,35.0228483,477.45,-0.05875,0.026,0.99175,0.26,-0.36,-0.04,24320.0,18200.0,-33890.0
32.7588602,35.0228483,477.45,-0.05825,0.01175,0.988,-1.0,-0.12,0.06,24290.0,18120.0,-33900.0
32.7588602,35.0228483,477.45,-0.066,0.04025,0.99975,0.04,0.16,0.04,24280.0,18100.0,-33910.0
32.7588602,35.0228483,477.45,-0.06625,0.051,1.00525,1.12,0.3,-0.02,24290.0,18110.0,-33910.0
32.7588602,35.0228483,477.45,-0.06575,0.0225,0.99325,-0.4,0.38,0.0,24230.0,18120.0,-33920.0
32.7588602,35.0228483,477.45,-0.07275,0.01825,0.989,-1.14,0.16,0.0,24240.0,18080.0,-33920.0
32.7588602,35.0228483,477.45,-0.074,0.0425,0.999,0.54,-0.24,0.08,24250.0,18040.0,-33920.0
32.7588602,35.0228483,477.45,-0.0605,0.04,1.0015,0.98,-0.38,-0.02,24220.0,18060.0,-33930.0
32.7588602,35.0228483,477.45,-0.0535,0.019,0.9925,-0.8,-0.36,0.0,24230.0,18030.0,-33930.0
32.7588602,35.0228483,477.45,-0.0625,0.02975,0.99175,-0.82,-0.16,-0.02,24240.0,18100.0,-33910.0
32.7588602,35.0228483,477.45,-0.06775,0.042,0.9995,0.88,0.28,0.04,24230.0,18070.0,-33920.0
32.7588602,35.0228483,477.45,-0.06425,0.02375,0.99825,0.38,0.48,-0.02,24230.0,18030.0,-33920.0
32.7588602,35.0228483,477.45,-0.068,0.01775,0.99575,-0.9,0.32,0.0,24250.0,18000.0,-33920.0
32.7588602,35.0228483,477.45,-0.073,0.04375,0.99925,0.0,-0.24,0.02,24240.0,18060.0,-33920.0
32.7588602,35.0228483,477.45,-0.06425,0.04375,0.99825,0.92,-0.44,-0.04,24280.0,18080.0,-33900.0
32.7588602,35.0228483,477.45,-0.05425,0.016,0.989,-0.4,-0.42,0.02,24300.0,18170.0,-33880.0
32.7588602,35.0228483,477.45,-0.05725,0.02375,0.99225,-0.84,-0.14,0.0,24280.0,18250.0,-33880.0
32.7588602,35.0228483,477.45,-0.0635,0.051,1.00625,0.78,0.16,-0.06,24280.0,18220.0,-33880.0
32.7588602,35.0228483,477.45,-0.06375,0.0405,1.00225,0.72,0.4,0.0,24340.0,18170.0,-33870.0
32.7588602,35.0228483,477.45,-0.067,0.01375,0.99025,-0.96,0.42,0.0,24370.0,18200.0,-33870.0
32.7588602,35.0228483,477.46,-0.07575,0.02975,0.9925,-0.56,0.08,0.0,24310.0,18300.0,-33860.0
32.7588602,35.0228483,477.46,-0.0695,0.0495,1.001,1.08,-0.22,0.0,24320.0,18320.0,-33860.0
32.7588602,35.0228483,477.46,-0.055,0.0315,0.995,0.24,-0.44,-0.04,24310.0,18240.0,-33870.0
32.7588602,35.0228483,477.46,-0.05575,0.02075,0.98925,-1.14,-0.28,0.06,24290.0,18180.0,-33880.0
32.7588602,35.0228483,477.46,-0.065,0.03725,0.99625,-0.04,0.06,0.0,24280.0,18090.0,-33900.0
32.7588602,35.0228483,477.46,-0.06625,0.0365,1.00225,0.98,0.44,-0.06,24280.0,18070.0,-33910.0
32.7588602,35.0228483,477.46,-0.0645,0.0165,0.99675,-0.32,0.52,0.04,24220.0,18050.0,-33920.0
32.7588602,35.0228483,477.46,-0.07075,0.03075,0.99525,-0.68,0.18,0.02,24260.0,18070.0,-33900.0
32.7588602,35.0228483,477.46,-0.07125,0.0515,0.99775,0.64,-0.34,-0.06,24310.0,18030.0,-33900.0
32.7588602,35.0228483,477.46,-0.0605,0.03125,0.9915,0.46,-0.48,-0.04,24270.0,18140.0,-33900.0
32.7588602,35.0228483,477.46,-0.05675,0.01125,0.98875,-0.94,-0.18,0.0,24210.0,18130.0,-33910.0
32.7588602,35.0228483,477.46,-0.065,0.0365,1.00025,-0.26,-0.06,0.0,24230.0,18020.0,-33920.0
32.7588602,35.0228483,477.46,-0.06625,0.053,1.008,1.16,0.3,0.06,24260.0,18020.0,-33910.0
32.7588602,35.0228483,477.46,-0.0645,0.02825,0.99575,0.0,0.52,-0.02,24310.0,17970.0,-33910.0
32.7588602,35.0228483,477.46,-0.07075,0.01725,0.9875,-1.18,0.22,0.06,24300.0,17990.0,-33910.0
32.7588602,35.0228483,477.46,-0.07425,0.039,0.9965,0.2,-0.18,0.04,24270.0,18010.0,-33910.0
32.7588602,35.0228483,477.46,-0.0625,0.041,1.00275,1.08,-0.42,-0.04,24270.0,18060.0,-33910.0
32.7588602,35.0228483,477.46,-0.0535,0.02175,0.996,-0.54,-0.36,-0.02,24290.0,18160.0,-33890.0
32.7588602,35.0228483,477.46,-0.0605,0.0305,0.99325,-0.88,-0.16,0.12,24270.0,18220.0,-33890.0
32.7588602,35.0228483,477.47,-0.06675,0.043,0.9985,0.62,0.24,0.04,24270.0,18290.0,-33880.0
32.7588602,35.0228483,477.47,-0.0645,0.02575,0.997,0.48,0.5,0.04,24270.0,18260.0,-33880.0
32.7588602,35.0228483,477.47,-0.0665,0.0145,0.99425,-0.76,0.32,0.04,24250.0,18160.0,-33900.0
32.7588602,35.0228483,477.47,-0.0735,0.04225,0.99975,-0.06,-0.06,0.04,24260.0,18100.0,-33910.0
32.7588602,35.0228483,477.47,-0.0665,0.04925,1.0005,0.94,-0.32,-0.06,24250.0,18110.0,-33910.0
32.7588602,35.0228483,477.47,-0.0555,0.01975,0.9885,-0.22,-0.3,-0.04,24250.0,18090.0,-33920.0
32.7588602,35.0228483,477.47,-0.0575,0.019,0.98875,-1.0,-0.2,0.02,24240.0,18120.0,-33910.0
32.7588602,35.0228483,477.47,-0.0645,0.047,1.00325,0.58,0.04,0.08,24250.0,18080.0,-33910.0
32.7588602,35.0228483,477.47,-0.06375,0.043,1.004,0.9,0.3,0.0,24280.0,18090.0,-33910.0
32.7588602,35.0228483,477.47,-0.06675,0.016,0.9915,-0.88,0.42,0.04,24240.0,18170.0,-33910.0
32.7588602,35.0228483,477.47,-0.07525,0.02725,0.99075,-0.76,0.22,0.0,24270.0,18250.0,-33900.0
32.7588602,35.0228483,477.47,-0.07075,0.047,0.99975,0.94,-0.24,0.0,24320.0,18180.0,-33890.0
32.7588602,35.0228483,477.47,-0.05625,0.03125,0.99575,0.4,-0.46,0.02,24280.0,18150.0,-33910.0
32.7588602,35.0228483,477.47,-0.05425,0.01875,0.989,-1.06,-0.46,-0.04,24260.0,18160.0,-33910.0
32.7588602,35.0228483,477.47,-0.06525,0.036,0.99575,-0.28,-0.14,-0.02,24250.0,18170.0,-33910.0
32.7588602,35.0228483,477.47,-0.067,0.0385,1.00225,0.98,0.44,-0.06,24240.0,18230.0,-33910.0
32.7588602,35.0228483,477.47,-0.0645,0.0175,0.9975,-0.16,0.58,0.0,24290.0,18280.0,-33880.0
32.7588602,35.0228483,477.47,-0.07125,0.02725,0.9965,-0.86,0.16,0.06,24320.0,18350.0,-33870.0
32.7588602,35.0228483,477.47,-0.072,0.04875,1.0,0.56,-0.28,0.04,24290.0,18420.0,-33870.0
32.7588602,35.0228483,477.47,-0.06075,0.03325,0.99375,0.6,-0.46,-0.04,24300.0,18420.0,-33870.0
32.7588602,35.0228483,477.48,-0.05625,0.0115,0.9885,-0.88,-0.3,-0.04,24390.0,18250.0,-33870.0
32.7588602,35.0228483,477.48,-0.0635,0.03375,0.99875,-0.38,-0.02,0.02,24470.0,18010.0,-33900.0
32.7588602,35.0228483,477.48,-0.06625,0.052,1.0085,1.0,0.36,0.04,24510.0,17770.0,-33920.0
32.7588602,35.0228483,477.48,-0.06475,0.028,0.99675,0.08,0.5,-0.06,24510.0,17700.0,-33940.0
32.7588602,35.0228483,477.48,-0.07025,0.014,0.987,-1.18,0.22,0.12,24510.0,17700.0,-33940.0
32.7588602,35.0228483,477.48,-0.075,0.03675,0.99425,0.18,-0.14,0.08,24520.0,17630.0,-33950.0
32.7588602,35.0228483,477.48,-0.06325,0.0435,1.00075,1.14,-0.44,-0.02,24430.0,17750.0,-33940.0
32.7588602,35.0228483,477.48,-0.05375,0.023,0.99425,-0.4,-0.44,0.02,24390.0,17850.0,-33930.0
32.7588602,35.0228483,477.48,-0.06075,0.0265,0.99175,-1.02,-0.2,0.02,24350.0,18000.0,-33920.0
32.7588602,35.0228483,477.48,-0.0685,0.04025,0.998,0.58,0.28,0.06,24320.0,18080.0,-33910.0
32.7588602,35.0228483,477.48,-0.06475,0.028,0.998,0.7,0.48,-0.04,24300.0,18200.0,-33900.0
32.7588602,35.0228483,477.48,-0.0655,0.018,0.9935,-0.66,0.36,-0.02,24320.0,18280.0,-33880.0
32.7588602,35.0228483,477.48,-0.07175,0.04325,0.99775,-0.22,-0.2,0.04,24330.0,18200.0,-33890.0
32.7588602,35.0228483,477.48,-0.06625,0.0495,0.99925,0.82,-0.4,-0.02,24330.0,18190.0,-33900.0
32.7588602,35.0228483,477.48,-0.05625,0.02175,0.99,-0.14,-0.38,0.02,24280.0,18150.0,-33910.0
32.7588602,35.0228483,477.48,-0.0585,0.0205,0.99075,-0.92,-0.14,0.0,24300.0,18090.0,-33920.0
32.7588602,35.0228483,477.48,-0.066,0.04825,1.00425,0.48,0.14,-0.02,24300.0,18130.0,-33910.0
32.7588602,35.0228483,477.48,-0.06375,0.0465,1.0035,0.88,0.4,0.02,24280.0,18130.0,-33910.0
32.7588602,35.0228483,477.48,-0.065,0.01875,0.99125,-0.82,0.36,-0.02,24310.0,18160.0,-33900.0
32.7588602,35.0228483,477.48,-0.07325,0.02725,0.993,-0.88,0.1,0.06,24310.0,18120.0,-33910.0
32.7588601,35.0228483,477.48,-0.0695,0.0455,1.00325,0.84,-0.24,-0.08,24300.0,18200.0,-33890.0
32.7588601,35.0228483,477.48,-0.0555,0.0315,0.9985,0.44,-0.36,-0.04,24300.0,18250.0,-33890.0
32.7588601,35.0228483,477.48,-0.0545,0.02075,0.9905,-1.02,-0.28,0.02,24280.0,18170.0,-33900.0
32.7588601,35.0228483,477.48,-0.0655,0.037,0.99475,-0.24,0.0,0.04,24240.0,18200.0,-33910.0
32.7588601,35.0228483,477.48,-0.067,0.03725,1.00075,0.92,0.4,0.0,24180.0,18170.0,-33920.0
32.7588601,35.0228483,477.48,-0.066,0.0155,0.996,-0.16,0.48,-0.02,24200.0,18150.0,-33920.0
32.7588601,35.0228483,477.48,-0.07225,0.02675,0.99625,-0.76,0.18,0.02,24220.0,18150.0,-33910.0
32.7588601,35.0228483,477.48,-0.073,0.04875,1.00025,0.6,-0.3,0.06,24250.0,18060.0,-33920.0
32.7588601,35.0228483,477.48,-0.0615,0.0335,0.994,0.56,-0.44,0.0,24270.0,18060.0,-33920.0
32.7588601,35.0228483,477.48,-0.056,0.0125,0.9875,-0.8,-0.26,0.04,24270.0,18070.0,-33920.0
32.7588601,35.0228483,477.48,-0.063,0.03475,0.99725,-0.3,-0.06,0.0,24260.0,18130.0,-33900.0
32.7588601,35.0228483,477.48,-0.065,0.051,1.00725,1.06,0.26,0.0,24240.0,18100.0,-33910.0
32.7588601,35.0228483,477.48,-0.06475,0.026,0.99675,-0.06,0.46,0.0,24230.0,18040.0,-33920.0
32.7588601,35.0228483,477.48,-0.07275,0.016,0.9885,-1.08,0.26,0.02,24240.0,18040.0,-33920.0
32.7588601,35.0228483,477.48,-0.0765,0.03875,0.996,0.26,-0.08,-0.02,24270.0,18020.0,-33920.0
32.7588601,35.0228483,477.48,-0.0635,0.042,0.99975,1.06,-0.42,-0.02,24290.0,17990.0,-33920.0
32.7588601,35.0228483,477.48,-0.05225,0.023,0.99125,-0.46,-0.48,-0.04,24300.0,18050.0,-33900.0
32.7588601,35.0228483,477.48,-0.05875,0.029,0.991,-0.92,-0.3,0.02,24320.0,18140.0,-33890.0
32.7588601,35.0228483,477.48,-0.065,0.03875,1.0005,0.62,0.16,0.0,24310.0,18210.0,-33880.0
32.7588601,35.0228483,477.48,-0.0635,0.02325,1.00125,0.54,0.48,0.02,24300.0,18220.0,-33870.0
32.7588601,35.0228483,477.49,-0.067,0.01925,0.997,-0.56,0.44,0.02,24330.0,18240.0,-33870.0
32.7588601,35.0228483,477.49,-0.07275,0.04575,0.99725,-0.06,0.0,0.02,24320.0,18270.0,-33860.0
32.7588601,35.0228483,477.49,-0.06475,0.04675,0.9955,0.78,-0.46,0.0,24300.0,18270.0,-33870.0
32.7588601,35.0228483,477.49,-0.0555,0.0155,0.98675,-0.34,-0.4,0.0,24310.0,18170.0,-33890.0
32.7588601,35.0228483,477.49,-0.0595,0.01975,0.9935,-0.82,-0.16,0.06,24300.0,18090.0,-33890.0
32.7588601,35.0228483,477.49,-0.0655,0.049,1.00875,0.68,0.22,0.04,24280.0,18040.0,-33900.0
32.7588601,35.0228483,477.49,-0.06425,0.04375,1.00475,0.78,0.48,0.06,24300.0,17980.0,-33910.0
32.7588601,35.0228483,477.49,-0.0675,0.01775,0.98925,-0.92,0.44,-0.02,24280.0,17980.0,-33910.0
32.7588601,35.0228483,477.49,-0.0745,0.02775,0.98825,-0.68,0.14,0.04,24250.0,18040.0,-33910.0
32.7588601,35.0228483,477.49,-0.0685,0.044,0.99975,1.02,-0.34,-0.06,24280.0,17980.0,-33920.0
32.7588601,35.0228483,477.49,-0.0555,0.031,0.998,0.38,-0.54,0.0,24300.0,18050.0,-33900.0
32.7588601,35.0228483,477.49,-0.05725,0.02525,0.9925,-1.02,-0.38,0.06,24290.0,18030.0,-33910.0
32.7588601,35.0228483,477.49,-0.0685,0.04025,0.99625,-0.02,0.1,0.08,24280.0,18020.0,-33910.0
32.7588601,35.0228483,477.49,-0.06925,0.0345,0.99925,0.78,0.48,-0.02,24250.0,18010.0,-33920.0
32.7588601,35.0228483,477.49,-0.066,0.0155,0.99425,-0.26,0.5,0.04,24240.0,18080.0,-33910.0
32.7588601,35.0228483,477.49,-0.0705,0.03225,0.99575,-0.6,-0.04,0.04,24250.0,18060.0,-33910.0
32.7588601,35.0228483,477.49,-0.068,0.05075,1.0,0.66,-0.52,-0.02,24280.0,18110.0,-33900.0
32.7588601,35.0228483,477.49,-0.058,0.03025,0.993,0.3,-0.48,-0.02,24270.0,18130.0,-33900.0
32.7588601,35.0228483,477.49,-0.0575,0.0125,0.9895,-0.98,-0.22,-0.04,24250.0,18130.0,-33900.0
32.7588601,35.0228483,477.49,-0.0665,0.03775,0.9995,-0.1,0.26,-0.02,24250.0,18130.0,-33900.0
32.7588601,35.0228483,477.49,-0.067,0.051,1.006,1.06,0.44,0.0,24280.0,18170.0,-33890.0
32.7588601,35.0228483,477.49,-0.0655,0.025,0.9915,-0.28,0.42,0.02,24280.0,18290.0,-33880.0
32.7588601,35.0228483,477.5,-0.07175,0.018,0.9875,-1.14,0.06,0.04,24280.0,18350.0,-33870.0
32.7588601,35.0228483,477.5,-0.0725,0.0395,0.99975,0.38,-0.32,-0.04,24300.0,18400.0,-33860.0
32.7588601,35.0228483,477.5,-0.05875,0.039,1.00425,0.86,-0.4,-0.06,24250.0,18370.0,-33870.0
32.7588601,35.0228483,477.5,-0.05075,0.02275,0.994,-0.64,-0.3,0.0,24250.0,18250.0,-33890.0
32.7588601,35.0228483,477.5,-0.06025,0.03325,0.99,-0.7,0.02,0.02,24250.0,18170.0,-33900.0
32.7588601,35.0228483,477.5,-0.067,0.04,0.99625,0.58,0.36,0.02,24280.0,18180.0,-33900.0
32.7588601,35.0228483,477.5,-0.06625,0.02,0.9975,0.24,0.58,-0.04,24330.0,18140.0,-33900.0
32.7588601,35.0228483,477.5,-0.06975,0.01875,0.998,-0.76,0.28,0.04,24350.0,18170.0,-33890.0
32.7588601,35.0228483,477.5,-0.07275,0.048,1.00275,0.18,-0.26,0.0,24320.0,18250.0,-33890.0
32.7588601,35.0228483,477.5,-0.063,0.04625,0.99825,0.88,-0.52,0.02,24290.0,18270.0,-33890.0
32.7588601,35.0228483,477.5,-0.0545,0.01525,0.98525,-0.56,-0.26,-0.02,24280.0,18180.0,-33890.0
32.7588601,35.0228483,477.5,-0.05825,0.02175,0.9905,-0.9,-0.04,0.06,24290.0,18210.0,-33890.0
32.7588601,35.0228483,477.5,-0.0655,0.0485,1.0075,0.84,0.3,-0.02,24300.0,18150.0,-33900.0
32.7588601,35.0228483,477.5,-0.0645,0.0395,1.00525,0.62,0.5,-0.02,24310.0,18120.0,-33900.0
32.7588601,35.0228483,477.5,-0.07,0.017,0.99075,-1.02,0.38,0.04,24260.0,18160.0,-33910.0
32.7588601,35.0228483,477.5,-0.07675,0.031,0.99025,-0.52,0.0,0.04,24320.0,18170.0,-33900.0
32.7588601,35.0228483,477.5,-0.069,0.044,0.9985,1.02,-0.24,-0.06,24370.0,18260.0,-33870.0
32.7588601,35.0228483,477.5,-0.0545,0.0265,0.9945,0.14,-0.52,-0.1,24350.0,18370.0,-33860.0
32.7588601,35.0228483,477.5,-0.05575,0.0235,0.99125,-1.06,-0.4,0.04,24340.0,18430.0,-33860.0
32.7588601,35.0228483,477.5,-0.0665,0.0395,0.998,0.08,0.04,0.02,24360.0,18430.0,-33850.0
