SampleTimeFine,Acc_X,Acc_Y,Acc_Z,Gyr_X,Gyr_Y,Gyr_Z
2822671747.0,0.0,0.0,0.0,0.0,0.0,0.0
2822680080.0,-0.5371019244194031,0.0821134969592094,9.795778274536133,2.8264286518096924,0.7529048919677734,0.1650837659835815
2822688413.0,-0.6161836385726929,0.2393782436847686,9.873058319091797,2.788365602493286,0.9594836235046388,0.1166728511452674
2822696746.0,-0.6102824211120605,0.1006871685385704,10.0144681930542,2.593595027923584,0.8816164135932922,0.0940810963511467
2822705079.0,-0.6057486534118652,-0.0945398658514022,9.977095603942873,2.6479742527008057,0.7785959243774414,0.0990502536296844
2822713412.0,-0.6425999402999878,-0.0514370501041412,9.867176055908203,2.671513557434082,0.8374574780464172,0.0531239286065101
2822721745.0,-0.6477249264717102,0.2068979442119598,9.859530448913574,2.9151816368103027,0.4625162482261657,0.0317360386252403
2822730078.0,-0.5414553880691528,0.2985200583934784,9.887299537658691,3.016101837158203,0.3064487278461456,-0.0405601412057876
2822738411.0,-0.4405153095722198,0.1134092584252357,9.918338775634766,2.7294015884399414,0.1998934745788574,0.1106278747320175
2822746744.0,-0.454099029302597,-0.0425986088812351,9.862648963928224,2.489140272140503,0.6995503306388855,0.0704647600650787
2822755077.0,-0.5878413915634155,0.0654793605208396,9.762805938720703,2.461066484451294,1.0883232355117798,0.1002028882503509
2822763410.0,-0.6462765336036682,0.2056504040956497,9.806509971618652,2.7267892360687256,0.993524968624115,0.1978956013917923
2822771743.0,-0.6323843002319336,0.0963200181722641,9.925652503967283,2.910417556762696,0.7614599466323853,0.1662876158952713
2822780076.0,-0.6162405610084534,0.0242489092051982,9.983153343200684,2.8490970134735107,0.5945320129394531,0.0598604716360569
2822788409.0,-0.659589409828186,0.1302566230297088,9.977882385253906,2.65381383895874,0.6481425762176514,0.0438259541988372
2822796742.0,-0.6563200950622559,0.2336306571960449,9.9016752243042,2.5848350524902344,0.4702005386352539,0.0452091246843338
2822805075.0,-0.5112817883491516,0.1131052076816558,9.856562614440918,2.5948758125305176,0.3087283968925476,0.0057119741104543
2822813408.0,-0.4242309629917145,-0.0576744228601455,9.80215835571289,2.736778736114502,0.2201799601316452,0.1307862848043441
2822821741.0,-0.4726002216339111,0.015825854614377,9.788613319396973,2.79620361328125,0.609721302986145,0.1216676160693168
2822830074.0,-0.593070924282074,0.1995854526758194,9.838793754577637,2.887390375137329,0.9014418721199036,0.0245384387671947
2822838407.0,-0.6227039098739624,0.187145322561264,9.945695877075195,2.714212417602539,0.9750827550888062,-0.0369741506874561
2822846740.0,-0.608230471611023,-0.0209793262183666,9.98879051208496,2.5181355476379395,0.8119711875915527,0.0303784813731908
2822855073.0,-0.653561532497406,-0.0508979186415672,9.908269882202148,2.727301359176636,0.7607172131538391,0.0275353044271469
2822863406.0,-0.6990780234336853,0.1909658759832382,9.886578559875488,2.883317708969116,0.5440720319747925,0.0940554812550544
2822871739.0,-0.5783617496490479,0.3539851307868957,9.884011268615724,3.001962661743164,0.2674126029014587,-0.0602318756282329
2822880072.0,-0.4552699625492096,0.1898363083600998,9.95108127593994,2.8593170642852783,0.2428229451179504,0.001357554574497
2822888405.0,-0.4396555423736572,-0.0006095806602388,9.880033493041992,2.5837082862854004,0.4097253084182739,0.1003309562802314
2822896738.0,-0.542547345161438,0.0986683517694473,9.775016784667969,2.4513845443725586,0.866042971611023,0.0919807180762291
2822905071.0,-0.628254771232605,0.2453015595674514,9.782476425170898,2.6206181049346924,1.0547940731048584,0.0812739729881286
2822913404.0,-0.6257979273796082,0.212762102484703,9.904471397399902,2.7069125175476074,0.8404030203819275,-0.0205810386687517
2822921737.0,-0.6298720836639404,0.0783956423401832,9.98149585723877,2.715313673019409,0.624090850353241,0.0035859928466379
2822930070.0,-0.6794332265853882,0.0910059809684753,9.980668067932127,2.5683906078338623,0.7803633213043213,0.0593481883406639
2822938403.0,-0.6567108631134033,0.20008485019207,9.985581398010254,2.4616048336029053,0.6882033348083496,0.0474887900054454
2822946736.0,-0.5589741468429565,0.1107267513871193,9.917648315429688,2.58398962020874,0.2995584607124328,0.0285086426883935
2822955069.0,-0.450663298368454,-0.1130394116044044,9.870830535888672,2.6521236896514893,0.3515297472476959,0.0026638805866241
2822963402.0,-0.4487364292144775,-0.1163083538413047,9.837058067321776,2.8763251304626465,0.676472008228302,0.059758011251688
2822971735.0,-0.543415367603302,0.0709939375519752,9.909760475158691,2.971533298492432,0.9442688822746276,0.1460267603397369
2822980068.0,-0.610885739326477,0.1624275147914886,9.975519180297852,2.9565744400024414,1.0695736408233645,0.0364234410226345
2822988401.0,-0.5973937511444092,-0.0294776502996683,10.050148010253906,2.8848800659179688,0.8895823359489441,0.0821448490023613
2822996734.0,-0.6375857591629028,-0.110707476735115,9.956076622009276,2.8405418395996094,0.8695776462554932,0.1332708597183227
2823005067.0,-0.7030184268951416,0.0947554782032966,9.91624641418457,2.931779861450196,0.6805446147918701,0.094439685344696
2823013400.0,-0.6435216069221497,0.2808138132095337,9.923285484313965,3.085926055908203,0.4452522099018097,0.1932337582111358
2823021733.0,-0.5299939513206482,0.2189325094223022,9.921985626220703,2.9902055263519287,0.1323743611574173,0.0828108116984367
2823030066.0,-0.4770511388778686,-0.0005259866593405,9.926133155822754,2.78375506401062,0.4325987994670868,0.1424663811922073
2823038399.0,-0.528282642364502,0.0022102547809481,9.810802459716797,2.624076128005981,0.7785446047782898,0.1137528121471405
2823046732.0,-0.6178819537162781,0.1123920902609825,9.804694175720217,2.6493828296661377,1.1839412450790403,0.1346284300088882
2823055065.0,-0.6269841194152832,0.121467225253582,9.858872413635254,2.825915813446045,0.9092798233032228,0.1113963201642036
2823063398.0,-0.6244725584983826,-0.0475593619048595,9.980971336364746,2.9562923908233643,0.71284419298172,0.1183889880776405
2823071731.0,-0.6565263867378235,-0.0643446370959281,9.999429702758787,2.95583176612854,0.6787773370742798,0.1928239911794662
2823080064.0,-0.6648746132850647,0.0148506630212068,10.02415657043457,2.6822969913482666,0.6288807392120361,0.1147517710924148
2823088397.0,-0.6093915104866028,-0.0179724786430597,9.943621635437012,2.9557549953460693,0.5373867154121399,0.1566566675901413
2823096730.0,-0.4758045077323913,-0.1924508512020111,9.912580490112305,3.0887954235076904,0.3791419267654419,0.0859101489186286
2823105063.0,-0.4501511454582214,-0.2248871624469757,9.891746520996094,3.182620048522949,0.5416386723518372,0.2047858089208603
2823113396.0,-0.5414349436759949,-0.0403951965272426,9.882912635803224,3.3889172077178955,0.8287229537963867,0.1098338291049003
2823121729.0,-0.6233922243118286,-0.0178736597299575,9.97083568572998,3.590731143951416,1.055921196937561,0.1085018888115882
2823130062.0,-0.6389504671096802,-0.1353835016489029,10.060144424438477,3.3672220706939697,1.0612235069274902,0.1215907782316207
2823138395.0,-0.6758877635002136,-0.1989431083202362,10.015924453735352,3.4521076679229736,0.8485484719276428,0.1742280423641204
2823146728.0,-0.7084234952926636,-0.0036245572846382,9.946736335754396,3.691061973571777,0.7215785384178162,0.2585756778717041
2823155061.0,-0.6773373484611511,0.2065836936235427,9.999037742614746,3.745210886001587,0.5885381698608398,0.1633931994438171
2823163394.0,-0.5676466822624207,0.1726005971431732,9.980831146240234,3.6579432487487793,0.3861601948738098,0.0324788503348827
2823171727.0,-0.4701098799705505,0.0091661177575588,9.980271339416504,3.3826162815093994,0.2882882356643677,0.194898709654808
2823180060.0,-0.546089231967926,0.0125966528430581,9.82943630218506,3.315967798233032,0.7038024067878723,0.1865997016429901
2823188393.0,-0.6541805863380432,0.1379935890436172,9.755949020385742,3.418193817138672,1.207608699798584,0.1362677216529846
2823196726.0,-0.6978885531425476,0.2326381057500839,9.87775707244873,3.5280020236968994,0.9642221927642822,0.1904674470424652
2823205059.0,-0.6821539998054504,0.2092614322900772,9.962913513183594,3.5452921390533447,0.6829524636268616,0.213494673371315
2823213392.0,-0.7173954248428345,0.2242629677057266,9.899614334106444,3.368707656860352,0.6508321762084961,0.1837053149938583
2823221725.0,-0.7185407876968384,0.3069396317005157,9.907180786132812,3.1247828006744385,0.6749094724655151,0.1553503274917602
2823230058.0,-0.6446084380149841,0.3125387728214264,9.87065887451172,3.0143086910247803,0.6130510568618774,0.2044784277677536
2823238391.0,-0.5066426396369934,0.2029122412204742,9.794483184814451,3.077576160430908,0.2146729081869125,0.1353968530893325
2823246724.0,-0.4477448165416717,0.2332649827003479,9.701423645019531,3.023683786392212,0.1820660084486007,0.0961302295327186
2823255057.0,-0.4903189241886139,0.3364157080650329,9.694129943847656,3.118865966796875,0.7004980444908142,0.2433352321386337
2823263390.0,-0.5178625583648682,0.3729525208473205,9.787457466125488,3.0863616466522217,0.942398965358734,0.1681318432092666
2823271723.0,-0.5316116213798523,0.2424594759941101,9.8785982131958,2.8197174072265625,0.8683481812477112,0.0530983097851276
2823280056.0,-0.5475594401359558,0.1646050810813903,9.86195945739746,2.745718002319336,0.9543096423149108,0.0928259864449501
2823288389.0,-0.6288520097732544,0.1982049942016601,9.790020942687988,2.946277141571045,0.8309770226478577,0.0397020615637302
2823296722.0,-0.6039235591888428,0.2989777028560638,9.857074737548828,3.072145938873291,0.8684251308441162,-0.0038805566728115
2823305055.0,-0.5052905082702637,0.2534092366695404,9.962298393249512,3.089460611343384,0.3711502254009247,-0.0600013434886932
2823313388.0,-0.3926334083080292,0.1278217732906341,9.93392848968506,3.05593204498291,0.4097765684127807,0.0705416053533554
2823321721.0,-0.3787561655044555,0.0715806260704994,9.815130233764648,2.852016925811768,0.6620767712593079,0.0249738804996013
2823330054.0,-0.4425159990787506,0.1278114318847656,9.774576187133787,3.001706600189209,1.1018987894058228,-0.0357190482318401
2823338387.0,-0.517500638961792,0.2045904546976089,9.890594482421877,3.144582748413086,1.2025883197784424,0.0986404120922088
2823346720.0,-0.5228164792060852,0.2421538829803466,9.975822448730469,3.297858715057373,0.989990234375,0.104301169514656
2823355053.0,-0.589037299156189,0.2477962523698806,9.973516464233398,3.1057517528533936,0.8771594166755676,0.0485902056097984
2823363386.0,-0.6474416851997375,0.2672489881515503,9.97999382019043,2.857344627380371,0.9914757013320924,0.1307862848043441
2823371719.0,-0.6425788998603821,0.2154380232095718,9.994572639465332,2.8209469318389893,0.8550031185150146,0.0683131590485572
2823380052.0,-0.5517324805259705,0.1731730103492736,9.948914527893066,2.813723564147949,0.546069860458374,0.1060941591858863
2823388385.0,-0.4888997972011566,0.1428529471158981,9.842711448669434,2.825326919555664,0.4001712501049042,0.1851909160614013
2823396718.0,-0.4827926456928253,0.1732629686594009,9.811182022094728,2.955037832260132,0.5900495648384094,0.1372410804033279
2823405051.0,-0.5531808733940125,0.2243794798851013,9.940887451171877,2.8800647258758545,1.0125306844711304,0.1269697695970535
2823413384.0,-0.5965086221694946,0.1436554938554763,10.021615982055664,2.793078660964966,1.1033587455749512,0.187163233757019
2823421717.0,-0.6255021095275879,-0.0489885881543159,10.003921508789062,2.576279878616333,0.8645573258399963,0.108886107802391
2823430050.0,-0.6574634313583374,-0.0877627208828926,9.91228199005127,2.782397508621216,0.929335594177246,0.1914151906967163
2823438383.0,-0.7044798731803894,0.0594048202037811,9.960905075073242,3.1332359313964844,0.966911792755127,0.0990502536296844
2823446716.0,-0.6518152952194214,0.1602157801389694,10.024744987487791,3.1767799854278564,0.639741063117981,0.1023544818162918
2823455049.0,-0.5818850994110107,0.0674160495400428,9.984973907470703,3.056008815765381,0.3946129381656647,0.2058359980583191
2823463382.0,-0.5042959451675415,-0.0989843681454658,9.940013885498049,2.859342575073242,0.4386437535285949,0.1656984984874725
2823471715.0,-0.5960082411766052,-0.0817361921072006,9.811325073242188,2.898967742919922,0.971138060092926,0.1599608957767486
2823480048.0,-0.695867121219635,0.0009561917977407,9.843585014343262,3.1311357021331787,1.269057273864746,0.0454140417277812
2823488381.0,-0.6977047920227051,0.0294747427105903,9.948304176330566,3.3960635662078857,0.9293870329856871,0.1342954486608505
2823496714.0,-0.7072688937187195,0.0322947949171066,9.960627555847168,3.473700523376465,0.782386839389801,0.0452859699726104
2823505047.0,-0.7478227615356445,0.100947268307209,9.919000625610352,3.251753091812134,0.8251370191574097,0.1473843306303024
2823513380.0,-0.7583692669868469,0.1036359667778015,9.943513870239258,3.069354057312012,0.7106413245201111,0.0680058002471923
2823521713.0,-0.6664911508560181,0.0117094302549958,9.936491012573242,2.985313415527344,0.5996036529541016,0.1266367882490158
2823530046.0,-0.5650604367256165,-0.0529761314392089,9.849723815917969,3.163895845413208,0.4243254065513611,0.0598092377185821
2823538379.0,-0.5691948533058167,0.0346638038754463,9.75070571899414,3.2768805027008057,0.6650992035865784,0.2453843653202057
2823546712.0,-0.6210300326347351,0.1425986289978027,9.780207633972168,3.259181022644043,0.7644825577735901,0.2183613628149032
2823555045.0,-0.6756640076637268,0.1288662850856781,9.946885108947754,3.1945817470550537,1.0039242506027222,0.0776623636484146
2823563378.0,-0.6588609218597412,-0.0096353497356176,9.996188163757324,3.0550098419189453,0.891426682472229,0.0980512946844101
2823571711.0,-0.6954297423362732,-0.0196703020483255,9.86312770843506,3.048529148101806,0.8230622410774231,0.0939273983240127
2823580044.0,-0.7351861596107483,0.0849785804748535,9.792089462280272,3.207926750183105,0.695503294467926,0.0485902018845081
2823588377.0,-0.6810568571090698,0.2071912586688995,9.931347846984863,3.530461072921753,0.4649238884449005,-0.0723217949271202
2823596710.0,-0.5557535290718079,0.1349666565656662,9.99866771697998,3.52359676361084,0.2704351246356964,-0.0489616133272647
2823605043.0,-0.4334746301174164,0.0494870916008949,9.976449966430664,3.210180759429932,0.2241501659154892,0.0351427309215068
2823613376.0,-0.4731874763965606,-0.0008512032218277,9.822495460510254,3.159336805343628,0.6956313252449036,0.0922624692320823
2823621709.0,-0.5707541108131409,0.0750416740775108,9.799604415893556,3.395371913909912,1.0889636278152466,0.1086555942893028
2823630042.0,-0.5953741669654846,0.1205770596861839,9.946537971496582,3.5467517375946045,1.0614794492721558,0.1371898353099823
2823638375.0,-0.5857764482498169,0.1719724088907241,9.935283660888672,3.756378650665283,0.8359461426734924,0.0769963935017585
2823646708.0,-0.6061005592346191,0.2218731045722961,9.973711967468262,3.5543079376220703,0.7265477180480957,0.1731778234243393
2823655041.0,-0.6504753828048706,0.2666180729866028,9.969130516052246,3.39675521850586,0.7638933658599854,0.1655448079109192
2823663374.0,-0.6106165647506714,0.2367049157619476,9.964900970458984,3.293862581253052,0.5780108571052551,0.0181604921817779
2823671707.0,-0.5047160387039185,0.1570475995540619,9.873993873596191,3.2774434089660645,0.4757331311702728,0.194309577345848
2823680040.0,-0.4546547830104828,0.1956505179405212,9.7875337600708,3.381565570831299,0.337237000465393,0.3283232450485229
2823688373.0,-0.4894464612007141,0.3500821590423584,9.745040893554688,3.537198066711426,0.736511766910553,0.26751509308815
2823696706.0,-0.5663981437683105,0.4555987417697906,9.864096641540527,3.3580007553100586,0.9734179973602296,0.3051680326461792
2823705039.0,-0.5633589029312134,0.3633372187614441,9.944866180419922,3.0044474601745605,0.905616819858551,0.2454612404108047
2823713372.0,-0.587207019329071,0.2155623435974121,9.874826431274414,2.833292961120605,0.8382001519203186,0.2462808489799499
2823721705.0,-0.6440936923027039,0.275785893201828,9.76231861114502,2.9478654861450195,0.859229564666748,0.2753017842769623
2823730038.0,-0.6596196889877319,0.4499094188213348,9.801583290100098,3.11868667602539,0.7384840250015259,0.1487162560224533
2823738371.0,-0.5674889087677002,0.4717350006103515,9.906455993652344,3.095300912857056,0.3767597675323486,0.0782770961523056
2823746704.0,-0.4723090827465057,0.3950713276863098,9.878788948059082,2.866668462753296,0.1785056143999099,0.1009200885891914
2823755037.0,-0.435695469379425,0.2973944544792175,9.745806694030762,2.6612935066223145,0.4390536248683929,0.1577581018209457
2823763370.0,-0.5440798997879028,0.3079041540622711,9.68948459625244,2.577406406402588,0.9966241717338562,0.160524383187294
2823771703.0,-0.6120315194129944,0.3391092419624328,9.76207447052002,2.781193733215332,0.98199862241745,0.0851417183876037
2823780036.0,-0.6214795708656311,0.3263799846172333,9.8519926071167,2.743208169937134,0.7220908999443054,-0.0066468943841755
2823788369.0,-0.6092052459716797,0.3202975690364837,9.84675407409668,2.7216408252716064,0.5603882670402527,0.0978207662701606
2823796702.0,-0.6576241850852966,0.3538404107093811,9.81686019897461,2.570030212402344,0.5105429887771606,-0.0102841164916753
2823805035.0,-0.6328245401382446,0.3366723954677582,9.887931823730469,2.355766534805298,0.5445330142974854,0.0071463724598288
2823813368.0,-0.5351760983467102,0.2667790055274963,9.773921966552734,2.3015925884246826,0.3271706104278564,-0.066532976925373
2823821701.0,-0.4501884579658508,0.1859447658061981,9.707432746887209,2.404510736465454,0.320690244436264,-0.0537258610129356
2823830034.0,-0.4693321585655212,0.2379165440797805,9.698883056640623,2.4380910396575928,0.3696902692317962,0.0029200229328125
2823838367.0,-0.557839035987854,0.2950823009014129,9.76489543914795,2.439448595046997,0.8358181118965149,-0.060385562479496
2823846700.0,-0.5723897218704224,0.2256850302219391,9.881336212158203,2.436067581176758,0.9669374227523804,0.0042519634589552
2823855033.0,-0.5642669200897217,0.1073668897151947,9.913531303405762,2.1835877895355225,0.80116206407547,0.0234882533550262
2823863366.0,-0.5914259552955627,0.0575514100492,9.81877613067627,2.296316146850586,0.6481938362121582,0.0075049707666039
2823871699.0,-0.6639893054962158,0.1411604881286621,9.808308601379396,2.354819059371948,0.5838508605957031,0.0074025145731866
2823880032.0,-0.6092890501022339,0.2234412580728531,9.92050552368164,2.599947214126587,0.458955854177475,0.0213366579264402
2823888365.0,-0.471934974193573,0.1431865692138672,9.955519676208496,2.539625883102417,0.2006619274616241,-0.0159704759716987
2823896698.0,-0.4001626074314117,0.0018532038666307,9.900492668151855,2.2805376052856445,0.2372134327888488,0.0906487703323364
2823905031.0,-0.4787430763244629,-0.0178568307310342,9.714468002319336,2.349132537841797,0.8166330456733704,0.0582211539149284
2823913364.0,-0.5600989460945129,0.0693708211183548,9.804447174072266,2.531454801559448,0.9953179359436036,0.1119598224759101
2823921697.0,-0.5630763173103333,0.1310920417308807,9.964009284973145,2.7108314037323,0.9140695929527284,0.0803006291389465
2823930030.0,-0.5562614798545837,0.0684634521603584,9.957895278930664,2.786495923995972,0.6769585609436035,0.082349769771099
2823938363.0,-0.6253795623779297,0.0704052597284317,9.938506126403809,2.657118558883667,0.6891766786575317,0.1244595721364021
2823946696.0,-0.6927219033241272,0.1109536066651344,9.972955703735352,2.473361730575561,0.68080073595047,0.173331543803215
2823955029.0,-0.6278668642044067,0.0824130997061729,9.94670295715332,2.5461318492889404,0.5584671497344971,0.1256890594959259
2823963362.0,-0.5279870629310608,0.0093733370304107,9.86735725402832,2.6572976112365723,0.3309871256351471,0.1597047597169876
2823971695.0,-0.4759590327739715,-0.0211340393871068,9.788226127624512,2.7683098316192627,0.3371857702732086,0.1901088505983352
2823980028.0,-0.5149725079536438,0.109985627233982,9.816330909729004,2.8251988887786865,0.7430433630943298,0.1432091891765594
2823988361.0,-0.594681441783905,0.2110839784145355,9.911569595336914,2.839363574981689,0.8881992101669312,0.1664669215679168
2823996694.0,-0.6101254224777222,0.0923483744263649,9.947348594665527,2.512858867645264,0.9272352457046508,0.1532243490219116
2824005027.0,-0.6423313617706299,-0.0603695586323738,9.942248344421388,2.4393718242645264,0.8563864231109619,0.1396744400262832
2824013360.0,-0.6979280114173889,2.91172182187e-05,9.851452827453612,2.680760145187378,0.8540297746658325,0.224611222743988
2824021693.0,-0.7171797752380371,0.2073125690221786,9.880488395690918,2.9066264629364014,0.6358733773231506,0.0940554738044738
2824030026.0,-0.6358728408813477,0.2385037690401077,9.949883460998535,2.928731679916382,0.3550645112991333,0.1544282138347625
2824038359.0,-0.5307886600494385,0.0724879577755928,9.984122276306152,2.7879557609558105,0.2003801763057708,0.0039958204142749
2824046692.0,-0.4910680055618286,-0.0452097505331039,9.839107513427734,2.532402515411377,0.4649496078491211,0.0413926057517528
2824055025.0,-0.581601083278656,0.0656196027994155,9.776297569274902,2.643260955810547,0.969857394695282,0.048359677195549
2824063358.0,-0.6715971231460571,0.2017059326171875,9.844562530517578,2.849916934967041,1.167522430419922,0.1248693987727165
2824071691.0,-0.6500916481018066,0.1789083182811737,9.900256156921388,3.0984771251678467,0.6428404450416565,0.0243847519159317
2824080024.0,-0.599779486656189,0.0817645266652107,9.962690353393556,2.9464306831359863,0.5846192240715027,0.0462849177420139
2824088357.0,-0.674831211566925,0.1399594098329544,9.951801300048828,2.766849994659424,0.6646126508712769,0.1677988618612289
2824096690.0,-0.7159333229064941,0.2417754977941513,9.920836448669434,2.568723678588867,0.6785210967063904,-0.0689663290977478
2824105023.0,-0.583991527557373,0.1854777932167053,9.859752655029297,2.739135265350342,0.4602622389793396,0.0160857401788234
2824113356.0,-0.4656697511672973,0.0517950765788555,9.842849731445312,2.779503345489502,0.2448720782995224,-0.034207809716463
2824121689.0,-0.4803616106510162,0.1143268421292305,9.773237228393556,2.907932996749878,0.6126412153244019,-0.0436850786209106
2824130022.0,-0.6055112481117249,0.3264402449131012,9.818593978881836,2.854834794998169,0.8552336692810059,0.026920560747385
2824138355.0,-0.636705219745636,0.2909632921218872,9.92817211151123,2.732654571533203,0.8735991716384888,0.0359623841941356
2824146688.0,-0.5991964936256409,0.0783600360155105,9.97969913482666,2.681580066680908,0.6916100382804871,0.1218725368380546
2824155021.0,-0.6031296849250793,0.0469943434000015,9.905348777770996,2.630453586578369,0.7424029111862183,0.1104997992515564
2824163354.0,-0.7095197439193726,0.2878284454345703,9.82661247253418,2.843282699584961,0.7651228308677673,0.0645991042256355
2824171687.0,-0.6388323307037354,0.4594045281410217,9.89211368560791,3.000809907913208,0.4101095199584961,0.0028944083023816
2824180020.0,-0.4946212768554687,0.2950899004936218,9.978681564331056,2.765159368515014,0.1787873655557632,0.0039189783856272
2824188353.0,-0.4261156320571899,0.0975039228796958,9.917149543762209,2.5613467693328857,0.3170530200004577,0.1121647432446479
2824196686.0,-0.532279372215271,0.1061034128069877,9.781472206115724,2.50619912147522,0.8073862791061401,0.102021500468254
2824205019.0,-0.6200185418128967,0.2831002175807953,9.756163597106934,2.676636219024658,1.1243624687194824,0.0622425936162471
2824213352.0,-0.6086009740829468,0.2932541966438293,9.905928611755373,2.8970983028411865,0.8610481023788452,0.1504067927598953
2824221685.0,-0.5701698660850525,0.2017360776662826,10.00515079498291,2.914156913757324,0.6765743494033813,0.094695821404457
2824230018.0,-0.6315392851829529,0.2011639475822448,9.975849151611328,2.5776889324188232,0.7218860387802124,0.1706932783126831
2824238351.0,-0.6966190338134766,0.271957665681839,9.957314491271973,2.4721579551696777,0.7207334041595459,0.1366007179021835
2824246684.0,-0.6106328964233398,0.2596926689147949,9.889276504516602,2.4814047813415527,0.4193050563335418,0.0910073816776275
2824255017.0,-0.4772953391075134,0.0936088860034942,9.883238792419434,2.614573240280152,0.2944612503051758,0.0252300221472978
2824263350.0,-0.4585556089878082,0.0766963362693786,9.77039909362793,2.7969465255737305,0.3746594488620758,0.1640079617500305
2824271683.0,-0.56130450963974,0.2453937232494354,9.852250099182127,2.8572678565979004,0.9493147730827332,0.0771244540810585
2824280016.0,-0.6282907128334045,0.2850152254104614,9.913588523864746,2.575178384780884,0.907358705997467,0.0798908025026321
2824288349.0,-0.5882462859153748,0.0844992324709892,9.9678955078125,2.3807921409606934,0.7467831373214722,-0.0037268712185323
2824296682.0,-0.628746747970581,-0.0593929924070835,9.912775039672852,2.466266632080078,0.7587705850601196,0.1107559576630592
2824305015.0,-0.6899938583374023,0.08128372579813,9.84197998046875,2.608067274093628,0.7479357123374939,0.0093748103827238
2824313348.0,-0.6813338398933411,0.322987824678421,9.882262229919434,2.83928656578064,0.5567253828048706,0.0330935902893543
2824321681.0,-0.5690328478813171,0.2357227504253387,9.967164039611816,2.7721264362335205,0.3330363035202026,0.0097077954560518
2824330014.0,-0.4567808508872986,0.0052889450453221,9.988858222961426,2.530609607696533,0.2841643393039703,0.0935431942343711
2824338347.0,-0.5015621781349182,-0.0825495272874832,9.766303062438965,2.4069180488586426,0.7456047534942627,0.1161349341273307
2824346680.0,-0.635967493057251,0.0768773034214973,9.75867748260498,2.539062261581421,1.0589181184768677,0.0673398301005363
2824355013.0,-0.6749929785728455,0.1814171373844146,9.836030006408691,2.843538522720337,1.002413034439087,0.062626801431179
2824363346.0,-0.6174114346504211,0.0697405859827995,9.962686538696287,2.952936887741089,0.5611822605133057,-0.0101816589012742
2824371679.0,-0.6327192783355713,0.0427084490656852,9.98451042175293,2.666672468185425,0.6457093358039856,0.059578713029623
2824380012.0,-0.6842339634895325,0.1609955579042434,9.95521068572998,2.5426740646362305,0.6969377994537354,0.0831438079476356
2824388345.0,-0.6410630941390991,0.168922483921051,9.891124725341797,2.4669580459594727,0.5485032796859741,0.0665457770228385
2824396678.0,-0.5157108902931213,0.0293065290898084,9.845468521118164,2.652994394302368,0.2228694558143615,0.0126022035256028
2824405011.0,-0.4356346130371094,-0.0364731550216674,9.826141357421877,2.915822029113769,0.3267608284950256,-0.0584132596850395
2824413344.0,-0.5275824069976807,0.1180226877331733,9.783214569091797,2.9161806106567383,0.6938640475273132,0.0713868737220764
2824421677.0,-0.6151069402694702,0.2401151657104492,9.875967025756836,2.7775819301605225,0.8287742733955383,0.0355781763792037
2824430010.0,-0.6263055801391602,0.1411177664995193,10.014583587646484,2.6860110759735107,0.8846900463104248,0.0645734816789627
2824438343.0,-0.6275625228881836,-0.0698149427771568,9.970271110534668,2.586422920227051,0.827980101108551,0.0945165306329727
2824446676.0,-0.6644951105117798,0.0267253592610359,9.841052055358888,2.7795543670654297,0.7772127389907837,0.14784537255764
2824455009.0,-0.6864962577819824,0.310708224773407,9.898530960083008,2.935544967651367,0.5285497307777405,0.0200815610587596
2824463342.0,-0.5688280463218689,0.3603987395763397,9.909916877746582,3.0440216064453125,0.3128010928630829,0.0420073494315147
2824471675.0,-0.4434141814708709,0.1275912374258041,9.958291053771973,2.838697671890259,0.2926170527935028,0.141339361667633
2824480008.0,-0.4458857476711273,0.0255736038088798,9.85390281677246,2.5830674171447754,0.5151022672653198,0.0851160883903503
2824488341.0,-0.5782493352890015,0.145196259021759,9.729058265686035,2.48043155670166,0.9324862360954284,0.0722833797335624
2824496674.0,-0.6486047506332397,0.2961974143981933,9.814167976379396,2.782423257827759,1.1145011186599731,0.1123696491122245
2824505007.0,-0.6355863809585571,0.242922767996788,9.930838584899902,2.964873075485229,0.7455791234970093,-0.0319281443953514
2824513340.0,-0.6151455640792847,0.1500161290168762,9.982373237609863,2.811546564102173,0.6916611790657043,0.0342206172645092
2824521673.0,-0.6735976934432983,0.2151923477649688,10.007553100585938,2.637523412704468,0.631160318851471,0.0835792422294616
2824530006.0,-0.6741638779640198,0.3000062704086303,9.934521675109863,2.4858617782592773,0.5002972483634949,0.0365259014070034
2824538339.0,-0.5541141033172607,0.2062300443649292,9.870189666748049,2.6901350021362305,0.3492757081985473,0.0916221141815185
2824546672.0,-0.4534009993076324,0.0759562030434608,9.802348136901855,2.810701370239258,0.1782494634389877,0.1296080350875854
2824555005.0,-0.4813686311244964,0.15070740878582,9.77074146270752,2.8517866134643555,0.6296747922897339,0.0538667403161525
2824563338.0,-0.5986586213111877,0.3387587666511535,9.85261344909668,2.7427725791931152,0.8743163347244263,0.1142907291650772
2824571671.0,-0.6359878182411194,0.2945858836174011,9.96059799194336,2.764749526977539,0.9836123585700988,0.2002777159214019
2824580004.0,-0.6465905904769897,0.052106387913227,9.954684257507324,2.4009506702423096,0.8611762523651123,0.1129844039678573
2824588337.0,-0.6521080136299133,0.0003500137245282,9.880891799926758,2.6434147357940674,0.6798273324966431,0.0111165773123502
2824596670.0,-0.7074084281921387,0.2817521393299103,9.877313613891602,2.870023965835572,0.8014182448387146,0.0557621903717517
2824605003.0,-0.6448982954025269,0.426684021949768,9.888904571533203,2.914361953735352,0.317667692899704,0.1794277131557464
2824613336.0,-0.4999000430107116,0.2366530448198318,9.95465087890625,2.745999574661255,0.1524046957492828,0.0993063822388649
2824621669.0,-0.4493951797485351,-0.0034518986940383,9.933448791503906,2.5037660598754883,0.4130551517009735,0.0572478100657463
2824630002.0,-0.5508474707603455,0.0671474188566207,9.786311149597168,2.388169050216675,0.7371264696121216,0.1069138273596763
2824638335.0,-0.647283673286438,0.2234592288732528,9.749159812927246,2.6203620433807373,1.0737742185592651,0.1798887550830841
2824646668.0,-0.6482670903205872,0.2390738427639007,9.87916660308838,2.8093180656433105,0.7090787887573242,0.0624218881130218
2824655001.0,-0.6181772947311401,0.125832125544548,9.94166660308838,2.887953519821167,0.6298796534538269,0.0623194351792335
2824663334.0,-0.6745962500572205,0.1201153695583343,9.95874309539795,2.645361423492432,0.8028269410133362,0.1523534804582595
2824671667.0,-0.684237539768219,0.2515150308609009,9.94541358947754,2.4483110904693604,0.7696821689605713,0.0268437173217535
2824680000.0,-0.6217713952064514,0.1743977963924408,9.877583503723145,2.444084882736206,0.5497327446937561,0.051049169152975
2824688333.0,-0.4735436737537384,-0.0164235699921846,9.846552848815918,2.5662646293640137,0.3517090380191803,0.0725651234388351
2824696666.0,-0.4605806469917297,0.007585434243083,9.76992893218994,2.7738423347473145,0.4566249251365661,0.135089486837387
2824704999.0,-0.5448147058486938,0.2190112471580505,9.814497947692873,2.913439989089966,0.7702713012695312,0.17755788564682
2824713332.0,-0.6127437949180603,0.2796566188335418,9.924509048461914,2.665109872817993,0.9313335418701172,0.0349634326994419
2824721665.0,-0.5937092900276184,0.0585450083017349,9.99101734161377,2.5305838584899902,0.8829482793807983,0.0781746432185173
2824729998.0,-0.6259825229644775,-0.0812960341572761,9.935708999633787,2.4736948013305664,0.8423241972923279,0.0766634121537208
2824738331.0,-0.674759566783905,0.0957223996520042,9.857511520385742,2.652712821960449,0.8431949615478516,0.0109372790902853
2824746664.0,-0.6549262404441833,0.3140029311180115,9.908329963684082,2.8999669551849365,0.5250405669212341,-0.0073897060938179
2824754997.0,-0.5284568667411804,0.2318425625562667,9.95022964477539,2.9158477783203125,0.2221522778272628,-0.0175585579127073
2824763330.0,-0.4483103454113006,0.0027049649506807,9.951179504394531,2.6881375312805176,0.1890074461698532,0.0606545135378837
2824771663.0,-0.4786204099655151,-0.003666887525469,9.824817657470703,2.4245924949646,0.6801604628562927,0.0871908590197563
2824779996.0,-0.6238390803337097,0.1540403217077255,9.73484706878662,2.5737695693969727,1.1942894458770752,0.0953105762600898
2824788329.0,-0.6408385634422302,0.2159441709518432,9.83192539215088,2.85188889503479,0.8538248538970947,0.1006383374333381
2824796662.0,-0.6101174354553223,0.1180363893508911,9.976357460021973,2.902528524398804,0.703827977180481,0.003816520795226
2824804995.0,-0.6287042498588562,0.0849379822611808,9.98995876312256,2.742234230041504,0.6512675285339355,0.1463341116905212
2824813328.0,-0.6939725875854492,0.1948673129081726,9.959561347961426,2.6324005126953125,0.7569006681442261,0.0254093203693628
2824821661.0,-0.6313691735267639,0.226577803492546,9.89995574951172,2.661472797393799,0.4422042071819305,0.0788918510079383
2824829994.0,-0.5082550644874573,0.0604308769106864,9.816764831542969,2.7000479698181152,0.3215611279010772,0.1032509803771972
2824838327.0,-0.4516819715499878,0.0061142579652369,9.774136543273926,2.8881585597991943,0.3048349916934967,0.1217444539070129
2824846660.0,-0.5380869507789612,0.186970829963684,9.80915355682373,2.8870060443878174,0.675805926322937,0.1142651066184043
2824854993.0,-0.6022495031356812,0.3384713530540466,9.88363265991211,2.7837038040161133,0.936533272266388,0.1191318109631538
2824863326.0,-0.6117827296257019,0.1620752960443496,9.987919807434082,2.5715155601501465,0.848983883857727,0.1081945374608039
2824871659.0,-0.6332688927650452,-0.0191766563802957,9.946337699890137,2.5008201599121094,0.7524950504302979,0.011987461708486
2824879992.0,-0.6643196940422058,0.0734788402915,9.856314659118652,2.6611907482147217,0.7780066728591919,0.1463085114955902
2824888325.0,-0.7059623599052429,0.3436086475849151,9.870854377746582,2.9625940322875977,0.5379757881164551,0.074767954647541
2824896658.0,-0.5727295279502869,0.3523717224597931,9.90958309173584,2.9582390785217285,0.3731225430965423,0.0920319408178329
2824904991.0,-0.4470146298408508,0.137623518705368,9.956911087036133,2.7372400760650635,0.1956415325403213,0.1121647432446479
2824913324.0,-0.4693163335323334,0.0540364608168602,9.839564323425291,2.6425435543060303,0.55126953125,0.0941066965460777
2824921657.0,-0.5878756046295166,0.1926135420799255,9.766173362731934,2.49897575378418,1.053308606147766,0.1475123614072799
2824929990.0,-0.6512730121612549,0.2745629251003265,9.813447952270508,2.7997384071350098,0.986173689365387,-0.0195820834487676
2824938323.0,-0.6251137852668762,0.170238047838211,9.935528755187988,2.8188209533691406,0.7724740505218506,0.0679289549589157
2824946656.0,-0.6322597861289978,0.1073966324329376,9.971600532531738,2.808549404144287,0.6042141318321228,0.0313262045383453
2824954989.0,-0.7173018455505371,0.2397772371768951,9.989992141723633,2.58501410484314,0.6603862047195435,0.0162394251674413
2824963322.0,-0.6550417542457581,0.2931475341320038,9.929390907287598,2.5118601322174072,0.4250170290470123,0.1327842026948928
2824971655.0,-0.531366765499115,0.1579238474369049,9.87302303314209,2.574256181716919,0.20785953104496,0.0865505039691925
2824979988.0,-0.4449000656604767,0.0240664854645729,9.827431678771973,2.703275203704834,0.2494570612907409,0.0259216073900461
2824988321.0,-0.5097644925117493,0.14423468708992,9.74729061126709,2.678711175918579,0.6604887247085571,0.0487438924610614
2824996654.0,-0.6032909750938416,0.3142910599708557,9.850956916809082,2.838953733444214,0.8474726676940918,0.0362185277044773
2825004987.0,-0.6273745894432068,0.2139678299427032,9.95909595489502,2.635039091110229,0.8169404864311218,0.1527889221906662
2825013320.0,-0.6221456527709961,-0.0087673822417855,9.945626258850098,2.4614765644073486,0.8261102437973022,0.0642917230725288
2825021653.0,-0.6817540526390076,0.0222057253122329,9.851068496704102,2.5588622093200684,0.7927092909812927,0.0492561720311641
2825029986.0,-0.6795917749404907,0.2615882456302643,9.85161018371582,2.7637505531311035,0.5477091670036316,-0.0466819480061531
2825038319.0,-0.5854169726371765,0.3497627675533294,9.894413948059082,2.839158535003662,0.2287351191043853,0.0095284953713417
2825046652.0,-0.4875032603740692,0.0991676300764083,9.972691535949709,2.72791600227356,0.1083738282322883,0.1446692049503326
2825054985.0,-0.4510857462882995,-0.0368353016674518,9.894600868225098,2.612652063369751,0.4313181340694427,0.1152640581130981
2825063318.0,-0.5682758688926697,0.0988606587052345,9.77094554901123,2.5210554599761963,0.9959582686424256,0.1477172970771789
2825071651.0,-0.6340939998626709,0.2580072581768036,9.806944847106934,2.710626602172852,1.0533342361450195,0.1319133192300796
2825079984.0,-0.6259584426879883,0.179185077548027,9.909997940063477,2.937773466110229,0.7149189114570618,-0.0061346092261374
2825088317.0,-0.6128101348876953,0.0571950674057006,9.96271800994873,2.834548234939575,0.6739105582237244,-0.0094132311642169
2825096650.0,-0.6729286313056946,0.1391427367925644,9.958661079406738,2.676584959030152,0.8004192113876343,0.0260496772825717
2825104983.0,-0.691028356552124,0.270999938249588,9.937911987304688,2.3596091270446777,0.6975013017654419,0.1600633710622787
2825113316.0,-0.5726938247680664,0.1417147517204284,9.86130714416504,2.6223597526550293,0.314594030380249,0.1625479459762573
2825121649.0,-0.4446442425251007,-0.005972527898848,9.838282585144045,2.684218168258667,0.1834747642278671,-0.0034451144747436
2825129982.0,-0.4548756182193756,0.050609640777111,9.771856307983398,2.7970235347747803,0.5625911355018616,0.0278682895004749
2825138315.0,-0.5542848110198975,0.2665863633155823,9.822894096374512,2.843743801116944,0.8003168702125549,0.1353968530893325
2825146648.0,-0.5915852785110474,0.237553521990776,9.920312881469728,2.708013772964477,0.8787475824356079,0.1183633804321289
2825154981.0,-0.6077942252159119,0.0092071052640676,9.947219848632812,2.633348226547241,0.9737763404846193,-0.0374095886945724
2825163314.0,-0.633045494556427,-0.0469727702438831,9.921486854553224,2.5737950801849365,0.6111556887626648,-0.0148178339004516
2825171647.0,-0.6928883790969849,0.1821681857109069,9.888585090637209,2.806142091751098,0.7104876637458801,0.0590920411050319
2825179980.0,-0.643657386302948,0.3453647792339325,9.89690399169922,3.0266804695129395,0.5372074246406555,0.0534569136798381
2825188313.0,-0.4995364248752594,0.1939658969640731,9.95834732055664,2.8921804428100586,0.1981261074542999,-0.0109500857070088
2825196646.0,-0.446684330701828,0.0042076399549841,9.898757934570312,2.6560170650482178,0.4276809096336365,0.0544558688998222
2825204979.0,-0.5355014204978943,0.0787112638354301,9.745442390441896,2.5852956771850586,0.777929961681366,0.0513821579515934
2825213312.0,-0.6356945633888245,0.243177905678749,9.759987831115724,2.6332714557647705,1.1103001832962036,0.015855211764574
2825221645.0,-0.6328703761100769,0.2315608561038971,9.889758110046388,2.886801481246948,0.7550308108329773,-0.0196845401078462
2825229978.0,-0.6093635559082031,0.1191009655594825,9.979516983032228,2.8592915534973145,0.697398841381073,0.1050695851445198
2825238311.0,-0.6585914492607117,0.147503063082695,9.97511386871338,2.683833837509156,0.752802312374115,0.1400074064731598
2825246644.0,-0.6944239139556885,0.2880899012088775,9.944018363952637,2.513960123062134,0.6721431016921997,-0.0336699113249778
2825254977.0,-0.5897705554962158,0.2663440108299255,9.879345893859863,2.5896246433258057,0.3363661468029022,0.1158275604248046
2825263310.0,-0.505432665348053,0.0680256485939025,9.832287788391112,2.772202968597412,0.2741235494613647,0.1290701329708099
2825271643.0,-0.4813077449798584,0.0761778280138969,9.799271583557127,2.766414165496826,0.4773212671279907,-0.0202480535954237
2825279976.0,-0.5830698609352112,0.2453221082687378,9.85189151763916,2.831935405731201,0.8611249327659607,0.0403168015182018
2825288309.0,-0.6206203699111938,0.3072669804096222,9.918941497802734,2.6730761528015137,0.8718061447143555,0.0441845580935478
2825296642.0,-0.6163905262947083,0.0909995511174202,9.969528198242188,2.589855432510376,0.786357045173645,0.0844245180487632
2825304975.0,-0.6310493350028992,-0.014001939445734,9.9447021484375,2.6390087604522705,0.7314656972885132,-0.0079019907861948
2825313308.0,-0.6966542601585388,0.1789121776819229,9.86645793914795,2.738417863845825,0.7311071753501892,0.0088369119912385
2825321641.0,-0.6685791611671448,0.3709104061126709,9.90200138092041,2.977116823196411,0.3637221455574035,0.0912122875452041
2825329974.0,-0.547756016254425,0.3104863166809082,9.930922508239746,2.874992847442627,0.2639546990394592,0.1038144901394844
2825338307.0,-0.429981380701065,0.0548400655388832,9.954590797424316,2.568902969360352,0.1909028887748718,0.0781234204769134
2825346640.0,-0.5018506050109863,0.0232954155653715,9.787041664123535,2.452230215072632,0.7796973586082458,0.0438259541988372
2825354973.0,-0.6412314772605896,0.2012273073196411,9.780729293823242,2.637216091156006,1.0943938493728638,0.0740763694047927
2825363306.0,-0.6562433242797852,0.2960633635520935,9.866164207458496,2.871022939682007,0.9650420546531676,0.1860105842351913
2825371639.0,-0.6065300107002258,0.1421796232461929,9.983155250549316,2.843538761138916,0.620760977268219,0.0685693100094795
2825379972.0,-0.6384435892105103,0.1243354901671409,9.950029373168944,2.7345757484436035,0.7051599025726318,0.0615253895521163
2825388305.0,-0.6936855316162109,0.2363817393779754,9.96453857421875,2.4757184982299805,0.6876141428947449,0.0291233863681554
2825396638.0,-0.6300118565559387,0.2454364746809005,9.90722942352295,2.452178716659546,0.4802412688732147,0.0505624935030937
2825404971.0,-0.5173559784889221,0.0713173300027847,9.86484432220459,2.6070683002471924,0.2766337692737579,0.0302247982472181
2825413304.0,-0.4332952797412872,0.0003595036687329,9.794794082641602,2.7948973178863525,0.3631842732429504,-0.0465538762509822
2825421637.0,-0.5158400535583496,0.1750418394804,9.786667823791504,2.82706880569458,0.6720407009124756,0.1271746754646301
2825429970.0,-0.5971580147743225,0.2874495089054107,9.89232063293457,2.8171560764312744,0.8830764293670654,0.0897010564804077
2825438303.0,-0.5985966324806213,0.1648905575275421,9.940940856933594,2.567955493927002,0.8405055999755859,0.0280732046812772
2825446636.0,-0.6288323998451233,-0.0499594174325466,9.94605541229248,2.529841184616089,0.8286205530166626,0.0025358092971146
2825454969.0,-0.6526634693145752,0.0282382201403379,9.825753211975098,2.65655517578125,0.6879215836524963,0.1054537966847419
2825463302.0,-0.7021628022193909,0.2964282631874084,9.85700798034668,2.8537075519561768,0.6579015851020813,0.0221819262951612
2825471635.0,-0.5762689709663391,0.3041310310363769,9.87951374053955,2.890284538269043,0.3018893599510193,0.0924673825502395
2825479968.0,-0.4667816758155823,0.0643445923924446,9.944982528686523,2.720283031463623,0.1722300946712494,0.0115776341408491
2825488301.0,-0.4533072113990783,-0.0425956547260284,9.836085319519045,2.5284581184387207,0.6045472025871277,0.0358855426311492
2825496634.0,-0.5986076593399048,0.0991089344024658,9.756022453308104,2.524282932281494,1.0304349660873413,0.1645458489656448
2825504967.0,-0.639185905456543,0.240262821316719,9.820534706115724,2.7513532638549805,1.0338417291641235,0.1167753040790557
2825513300.0,-0.628048837184906,0.1730446815490722,9.92841911315918,2.9513490200042725,0.6983720660209656,0.0989477857947349
2825521633.0,-0.6223118305206299,0.0618589296936988,9.998411178588867,2.87729811668396,0.5153327584266663,0.0601934492588043
2825529966.0,-0.6611856818199158,0.1630933433771133,9.930987358093262,2.618697166442871,0.6960668563842773,0.0930821299552917
2825538299.0,-0.6746503710746765,0.2441006749868393,9.887475967407228,2.5114245414733887,0.6323385834693909,0.0811202749609947
2825546632.0,-0.5571774244308472,0.1574252694845199,9.837616920471191,2.6422877311706543,0.4750928580760956,0.115187220275402
2825554965.0,-0.4631527066230774,0.0075136781670153,9.8081636428833,2.726917266845703,0.251787930727005,0.0482316017150878
2825563298.0,-0.5002171993255615,0.1263896524906158,9.792850494384766,2.8687684535980225,0.6033945083618164,0.0659822672605514
2825571631.0,-0.6053887605667114,0.3064124286174774,9.876480102539062,2.815849781036377,0.8588966131210327,0.1700016856193542
2825579964.0,-0.6529884934425354,0.282556802034378,9.937946319580078,2.6494593620300293,0.9260826110839844,0.0677240341901779
2825588297.0,-0.6252285838127136,0.0172741655260324,9.984773635864258,2.465959072113037,0.7407892346382141,0.1021239534020423
2825596630.0,-0.6678568124771118,-0.0074117677286267,9.889266967773438,2.644003629684448,0.6913025379180908,0.0614485442638397
2825604963.0,-0.6859971880912781,0.2444068640470504,9.880849838256836,2.7867519855499268,0.760179340839386,0.0270486325025558
2825613296.0,-0.6347955465316772,0.4247556626796722,9.902698516845703,3.0454554557800293,0.3845208585262298,0.0004098277131561
2825621629.0,-0.4903949797153473,0.2162133902311325,9.935769081115724,2.850019216537476,0.2224852591753006,0.0307626985013484
2825629962.0,-0.4238440096378326,-0.0022256369702517,9.933606147766112,2.548564910888672,0.4762966930866241,0.0200047176331281
2825638295.0,-0.57667475938797,0.0565739460289478,9.75100803375244,2.442035436630249,0.9429623484611512,0.0867041796445846
2825646628.0,-0.6687712669372559,0.2283810824155807,9.75187873840332,2.73093843460083,1.1091989278793335,0.0894961357116699
2825654961.0,-0.6602951288223267,0.2240221202373504,9.91247844696045,2.942486524581909,0.7429921627044678,0.0993320047855377
2825663294.0,-0.6175627708435059,0.1296394765377044,10.007000923156738,2.921149730682373,0.6165602207183838,0.0968730300664901
2825671627.0,-0.650718629360199,0.1426582485437393,9.981653213500977,2.6722307205200195,0.7311070561408997,0.0426733158528804
2825679960.0,-0.7097309827804565,0.2492342144250869,9.93722438812256,2.508811712265014,0.5404090881347656,0.0399838164448738
2825688293.0,-0.5895901918411255,0.1949869841337204,9.851305961608888,2.475820779800415,0.4060368835926056,0.0117569351568818
2825696626.0,-0.4727142453193664,0.0545873455703258,9.87368392944336,2.5748965740203857,0.1962818801403045,0.0717198625206947
2825704959.0,-0.4529744386672973,0.0494765006005764,9.803613662719728,2.7478697299957275,0.3552694320678711,0.1332964748144149
2825713292.0,-0.5623980760574341,0.2410709708929062,9.833702087402344,2.8445119857788086,0.7639188766479492,0.099255159497261
2825721625.0,-0.6176773309707642,0.2923424839973449,9.900542259216309,2.629403829574585,0.996906042098999,0.1243571117520332
2825729958.0,-0.6174610257148743,0.0794500708580017,9.966882705688477,2.573103189468384,0.8019047975540161,0.1134710535407066
2825738291.0,-0.6324945092201233,-0.0468451268970966,9.942126274108888,2.521977424621582,0.6785467267036438,0.1072212010622024
2825746624.0,-0.6611382365226746,0.0955572873353958,9.850752830505373,2.726097345352173,0.6417646408081055,0.0487951152026653
2825754957.0,-0.6462083458900452,0.3676061928272247,9.899392127990724,3.024119138717652,0.4283212125301361,0.0458238646388053
2825763290.0,-0.5182459354400635,0.3007091283798218,9.926217079162598,2.8685126304626465,0.1935155540704727,0.0799420326948165
2825771623.0,-0.4385872483253479,0.0184746924787759,9.92446517944336,2.5591695308685303,0.3580870330333709,-0.0187368132174015
2825779956.0,-0.5119564533233643,-0.0307390093803405,9.785879135131836,2.379280805587769,0.6874092817306519,0.0106042940169572
2825788289.0,-0.6273393630981445,0.1670757234096527,9.735655784606934,2.611294269561768,1.0736205577850342,0.1040962561964988
2825796622.0,-0.6776419878005981,0.2799533009529114,9.829877853393556,2.86728310585022,0.9860455989837646,0.0844501405954361
2825804955.0,-0.6450827717781067,0.191980704665184,9.97059154510498,2.954140901565552,0.5917657017707825,-0.0076458500698208
2825813288.0,-0.6293612718582153,0.0796724557876586,9.999223709106444,2.826633214950561,0.5456088185310364,0.1286346912384033
2825821621.0,-0.690139889717102,0.2110123038291931,9.992106437683104,2.4798424243927,0.7336941957473755,0.0449273735284805
2825829954.0,-0.6613538265228271,0.2449448257684707,9.858201026916504,2.4883716106414795,0.5831080079078674,0.0585541389882564
2825838287.0,-0.5048708319664001,0.089710809290409,9.831683158874512,2.65955138206482,0.2570900917053222,0.0522274225950241
2825846620.0,-0.439886599779129,-0.0215843971818685,9.825435638427734,2.85491156578064,0.2798611223697662,0.0468484386801719
2825854953.0,-0.5056657195091248,0.1517048329114914,9.802213668823242,3.0102875232696533,0.7600768804550171,0.0787125453352928
2825863286.0,-0.6299506425857544,0.3287813365459442,9.86317539215088,2.7683866024017334,0.8916059732437134,0.033657107502222
2825871619.0,-0.6331537365913391,0.1855778694152832,9.979994773864746,2.505712509155273,0.8749310374259949,0.0998186767101287
2825879952.0,-0.633822500705719,-0.0515051409602165,9.951019287109377,2.444802045822144,0.7908651828765869,0.0719503909349441
2825888285.0,-0.6659612655639648,-0.011508647352457,9.870299339294434,2.7948203086853027,0.7477051615715027,0.1335013806819915
2825896618.0,-0.6726769208908081,0.2883143424987793,9.853262901306152,2.858522891998291,0.7004725337028503,0.0037909070961177
2825904951.0,-0.5938135981559753,0.3644163608551025,9.94190788269043,3.0258097648620605,0.2017889320850372,0.0359623841941356
2825913284.0,-0.4618789851665497,0.1537449061870575,9.971721649169922,2.8229193687438965,0.2229975461959839,0.0824778378009796
2825921617.0,-0.4454044699668884,-0.0078873448073863,9.89136028289795,2.478279829025269,0.5154608488082886,0.056274477392435
2825929950.0,-0.5662519931793213,0.1061613783240318,9.73901653289795,2.5206456184387207,0.8934757113456726,0.0660335049033165
2825938283.0,-0.6350053548812866,0.2655133605003357,9.799070358276367,2.7356772422790527,1.0045135021209717,0.0409827753901481
2825946616.0,-0.6270455121994019,0.2146267145872116,9.92039966583252,2.94299864768982,0.8350241184234619,0.1481783390045166
2825954949.0,-0.5913609862327576,0.1051738262176513,10.003789901733398,2.8119564056396484,0.6373077630996704,-0.0210677068680524
2825963282.0,-0.6560925245285034,0.1645914763212204,10.00022029876709,2.62097692489624,0.6353099346160889,0.142799362540245
2825971615.0,-0.645187497138977,0.2843244671821594,9.93435287475586,2.436195611953736,0.7460145950317383,0.0809153616428375
2825979948.0,-0.5693806409835815,0.2145293354988098,9.864362716674805,2.535220146179199,0.2910545468330383,0.1107047200202941
2825988281.0,-0.451619029045105,0.036989226937294,9.813508987426758,2.615469694137573,0.2379818856716156,0.0146513432264328
2825996614.0,-0.4576761722564697,0.0825853794813156,9.786694526672363,2.886596441268921,0.5750651955604553,0.1134710535407066
2826004947.0,-0.5821887850761414,0.2778390049934387,9.84316349029541,2.8182318210601807,0.8643267154693604,0.109039805829525
2826013280.0,-0.6586286425590515,0.2779651582241058,9.940305709838867,2.614394187927246,0.9466254115104676,0.1383681148290634
2826021613.0,-0.6225340962409973,0.0531721673905849,9.97901725769043,2.50466251373291,0.7715264558792114,0.0978463813662529
2826029946.0,-0.6388077139854431,-0.043691486120224,9.88912868499756,2.5568642616271973,0.7556711435317993,-0.0125893969088792
2826038279.0,-0.6848816275596619,0.1998214572668075,9.863018989562988,2.755528211593628,0.5998854041099548,0.0373967848718166
2826046612.0,-0.6392309069633484,0.3882085084915161,9.903539657592772,2.941922903060913,0.5396662950515747,0.0152404680848121
2826054945.0,-0.5090864896774292,0.2328004091978073,9.905460357666016,2.8319356441497803,0.2647231221199035,-0.027266351506114
2826063278.0,-0.4474071264266968,-0.0089770415797829,9.939074516296388,2.593928098678589,0.3808837234973907,0.0207475312054157
2826071611.0,-0.5360152125358582,0.0246454551815986,9.752009391784668,2.451948404312134,0.9453702569007874,0.0987941101193428
2826079944.0,-0.6567094326019287,0.2183211147785186,9.735590934753418,2.625049114227295,1.1545361280441284,0.1288395971059799
2826088277.0,-0.653680145740509,0.2585393786430359,9.847978591918944,2.9034249782562256,0.926671862602234,0.0356550142168998
2826096610.0,-0.6288377642631531,0.1300750970840454,9.982596397399902,2.993612289428711,0.6420207619667053,-0.0265235397964715
2826104943.0,-0.6486634016036987,0.1076039895415306,9.960908889770508,2.7123937606811523,0.7513423562049866,0.0274328477680683
2826113276.0,-0.67703777551651,0.2153605967760086,9.93568515777588,2.359660148620605,0.6317238211631775,0.0992807745933532
2826121609.0,-0.6335578560829163,0.204496681690216,9.870433807373049,2.434863567352295,0.4269637167453766,0.0920575708150863
2826129942.0,-0.4869441390037536,0.0393159240484237,9.81203269958496,2.52351450920105,0.3107006847858429,0.0268437173217535
2826138275.0,-0.4644053280353546,-0.0113406674936413,9.800369262695312,2.848431348800659,0.3367760181427002,0.0791992247104644
2826146608.0,-0.5158014893531799,0.1850547939538955,9.772095680236816,2.9051921367645264,0.7477306723594666,0.1635981053113937
2826154941.0,-0.6398437023162842,0.3250885307788849,9.889914512634276,2.8096768856048584,1.0059223175048828,0.1502787321805954
2826163274.0,-0.6454715132713318,0.1619798243045807,9.980932235717772,2.598231077194214,0.8835117816925049,0.1067088991403579
2826171607.0,-0.633441686630249,-0.0704601109027862,9.945903778076172,2.4708774089813232,0.7072858810424805,0.049537930637598
2826179940.0,-0.6859738230705261,0.0500734932720661,9.870553970336914,2.623948097229004,0.5226841568946838,0.0477193221449852
2826188273.0,-0.6955013275146484,0.2838445603847503,9.896648406982422,2.930166006088257,0.390360951423645,0.0974877774715423
2826196606.0,-0.5640729665756226,0.3075627088546753,9.93541431427002,2.8417716026306152,0.2412092536687851,-0.0437106974422931
2826204939.0,-0.4414942860603332,0.093346357345581,9.958693504333496,2.704555988311768,0.1663644611835479,0.0231040380895137
2826213272.0,-0.4614222347736358,0.001155259553343,9.831985473632812,2.4691355228424072,0.6468106508255005,0.0030480939894914
2826221605.0,-0.5859026908874512,0.1288890391588211,9.747865676879885,2.543339967727661,1.079306960105896,0.0655212104320526
2826229938.0,-0.6446332931518555,0.2696419656276703,9.819009780883787,2.6747922897338867,1.0542051792144775,0.0340413190424442
2826238271.0,-0.6187464594841003,0.1652319282293319,9.954413414001465,2.942000150680542,0.7291604280471802,-0.0135115096345543
2826246604.0,-0.6049664616584778,0.0889744460582733,10.00263214111328,2.940181255340576,0.6928650736808777,-0.0338236019015312
2826254937.0,-0.6651151776313782,0.1759082525968551,9.93909740447998,2.636908769607544,0.6508065462112427,0.061499785631895
2826263270.0,-0.6555193662643433,0.2911591827869415,9.889394760131836,2.620208263397217,0.4694065153598785,-0.0240133479237556
2826271603.0,-0.5310555696487427,0.1766406148672104,9.855439186096191,2.520824670791626,0.3808580636978149,0.0568379871547222
2826279936.0,-0.4462000429630279,-0.0106526836752891,9.826333999633787,2.7279672622680664,0.3189484775066376,0.059758011251688
2826288269.0,-0.5024420022964478,0.0902338027954101,9.758697509765623,2.6673898696899414,0.4831613302230835,0.0772781521081924
2826296602.0,-0.6019847393035889,0.286221981048584,9.834894180297852,2.783575773239136,0.9534643292427064,-0.0251403748989105
2826304935.0,-0.6386257410049438,0.2596776187419891,9.960899353027344,2.696000576019287,0.8898128867149353,0.0853722393512725
2826313268.0,-0.6086487770080566,0.0172339081764221,9.97457790374756,2.5813002586364746,0.6704525947570801,-0.0058272392489016
2826321601.0,-0.6263646483421326,0.0038153240457177,9.89409351348877,2.705196142196656,0.8108698129653931,0.0321202501654624
2826329934.0,-0.6727396845817566,0.2541324496269226,9.837822914123535,2.83147406578064,0.629341721534729,0.0466691330075264
2826338267.0,-0.594715416431427,0.3855904936790466,9.892239570617676,2.884265184402466,0.5319308042526245,0.0325556918978691
2826346600.0,-0.4770150184631347,0.2419042736291885,9.93298625946045,2.894049882888794,0.2969458401203155,0.0198510307818651
2826354933.0,-0.4444527626037597,0.012849404476583,9.906550407409668,2.492495536804199,0.4224812090396881,0.0115776341408491
2826363266.0,-0.5585227608680725,0.0637096911668777,9.765198707580566,2.4295358657836914,0.9506211280822754,0.0819911658763885
2826371599.0,-0.6618905663490295,0.2175171971321106,9.795952796936035,2.604199409484864,1.1042298078536987,0.0664945617318153
2826379932.0,-0.6480083465576172,0.2335429191589355,9.924209594726562,2.893230438232422,0.8311820030212402,0.1644177883863449
2826388265.0,-0.607103168964386,0.096878744661808,10.026312828063965,2.940821647644043,0.5385649800300598,0.1726911813020706
2826396598.0,-0.6396198868751526,0.1029368266463279,9.971592903137209,2.649818181991577,0.5770887136459351,0.0549937672913074
2826404931.0,-0.6937789916992188,0.2232391238212585,9.941413879394531,2.5131664276123047,0.565126895904541,0.0199022591114044
2826413264.0,-0.6211144924163818,0.2108795195817947,9.85234832763672,2.5100412368774414,0.3859809041023254,0.0657517462968826
2826421597.0,-0.4827292263507843,-0.0083651067689061,9.854129791259766,2.6080667972564697,0.4434592425823211,0.0829644948244094
2826429930.0,-0.4780094623565674,-0.0258191302418708,9.797378540039062,2.763929605484009,0.4306777417659759,0.0312237497419118
2826438263.0,-0.5868546962738037,0.2025488168001175,9.80222988128662,2.820178508758545,0.9473169445991516,0.0736921578645706
2826446596.0,-0.6518102884292603,0.2967154085636139,9.89549732208252,2.814056873321533,0.8936807513237,0.1886744648218155
2826454929.0,-0.6337530016899109,0.1091881617903709,9.976245880126951,2.6095266342163086,0.9181166291236876,0.0204657725989818
2826463262.0,-0.6351807117462158,-0.0600601211190223,9.940962791442873,2.5790462493896484,0.7342321276664734,0.0065572448074817
2826471595.0,-0.6832709312438965,0.0952771231532096,9.834543228149414,2.7157750129699707,0.6261656284332275,0.0414950624108314
2826479928.0,-0.6655920147895813,0.3184486627578735,9.877758026123049,2.981778621673584,0.5714791417121887,0.0847062766551971
2826488261.0,-0.5463777780532837,0.2931971848011017,9.939034461975098,2.977834224700928,0.2373158931732177,0.0485902056097984
2826496594.0,-0.4329498708248138,0.0301799103617668,9.95710277557373,2.693669557571411,0.3542960882186889,0.050229512155056
2826504927.0,-0.4965664744377136,-0.0193891692906618,9.83639430999756,2.478074789047241,0.5909204483032227,0.096360757946968
2826513260.0,-0.656653106212616,0.1642543971538543,9.761853218078612,2.722741842269897,0.9431928992271424,0.1790435016155243
2826521593.0,-0.66289883852005,0.288043349981308,9.871827125549316,2.8183090686798096,0.9183472394943236,-0.0089777903631329
2826529926.0,-0.6180267930030823,0.1745979487895965,9.948963165283203,2.976425647735596,0.5309575200080872,0.0910330042243003
2826538259.0,-0.656870424747467,0.1048340946435928,9.971293449401855,2.828554630279541,0.6406376361846924,0.0465154573321342
2826546592.0,-0.6885258555412292,0.2192911803722381,9.96654987335205,2.516777992248535,0.7655839323997498,0.0567099191248416
2826554925.0,-0.6487585306167603,0.2715610861778259,9.890708923339844,2.5798654556274414,0.6313396692276001,0.1065039858222007
2826563258.0,-0.5182320475578308,0.1031355634331703,9.876728057861328,2.6202850341796875,0.3229442536830902,0.0233857966959476
2826571591.0,-0.4456631243228912,0.0186824202537536,9.793768882751465,2.840311050415039,0.3916416764259338,0.0032786219380795
2826579924.0,-0.5177527666091919,0.1620535552501678,9.79507064819336,2.8289897441864014,0.7937339544296265,0.0027663372457027
2826588257.0,-0.6248562335968018,0.2899025380611419,9.840913772583008,2.81026577949524,0.9714966416358948,0.0406497903168201
2826596590.0,-0.6218759417533875,0.1758500933647155,9.95305633544922,2.5906238555908203,0.8332566618919373,0.0415206775069236
2826604923.0,-0.6065564751625061,-0.0285749062895774,9.978663444519045,2.595592498779297,0.8060286641120911,0.0754595249891281
2826613256.0,-0.6483898162841797,0.0353006795048713,9.865107536315918,2.67620062828064,0.7194013595581055,0.1067345142364502
2826621589.0,-0.6740928292274475,0.2944976389408111,9.891907691955566,2.819435834884644,0.5739126205444336,0.0197229627519845
2826629922.0,-0.5825036764144897,0.3394203186035156,9.89229679107666,3.065486192703247,0.3572417497634887,-0.0387927591800689
2826638255.0,-0.4531852006912231,0.129323199391365,9.948111534118652,2.6884701251983643,0.2602918148040771,-0.0165852177888155
2826646588.0,-0.4652697741985321,0.02101481705904,9.854458808898926,2.5504608154296875,0.647963285446167,0.0024333524052053
2826654921.0,-0.5738217234611511,0.1408706456422805,9.795001983642578,2.514216184616089,0.9686790108680724,-0.0020363314542919
2826663254.0,-0.6408617496490479,0.2966232895851135,9.810787200927734,2.785292148590088,1.051746129989624,0.0024589670356363
2826671587.0,-0.6165910363197327,0.1833032667636871,9.9456205368042,2.834010124206543,0.5967348217964172,0.1565798223018646
2826679920.0,-0.6239803433418274,0.0735382661223411,9.97018051147461,2.71311092376709,0.6602069139480591,0.081017829477787
2826688253.0,-0.6955382227897644,0.1707386076450348,9.982831954956056,2.5203893184661865,0.6744995713233948,0.1108584105968475
2826696586.0,-0.7101864814758301,0.2576684355735779,9.900463104248049,2.448362350463867,0.5396662950515747,0.1214114725589752
2826704919.0,-0.5818061828613281,0.1313433796167373,9.856325149536133,2.612754344940185,0.398941695690155,0.0728725045919418
2826713252.0,-0.4578932821750641,-0.0351674705743789,9.819913864135742,2.7202062606811523,0.3552694320678711,0.0203633178025484
2826721585.0,-0.4942502081394195,0.0799178034067154,9.742545127868652,2.905499219894409,0.614203691482544,0.142568826675415
2826729918.0,-0.5814579725265503,0.2694130539894104,9.854743957519531,2.877016544342041,0.8215510845184326,0.0437235012650489
2826738251.0,-0.610953152179718,0.2294313758611679,9.956976890563965,2.722306489944458,0.912993848323822,0.0660078898072242
2826746584.0,-0.5910513401031494,-0.0293208695948123,9.948513984680176,2.5331456661224365,0.8628668189048767,0.0609874948859214
2826754917.0,-0.6591925621032715,-0.0286414325237274,9.883624076843262,2.668952226638794,0.7961416244506836,-0.0083630485460162
2826763250.0,-0.7059817910194397,0.2126393765211105,9.871729850769045,2.8723034858703613,0.5319821238517761,0.0206706915050745
2826771583.0,-0.6514958143234253,0.340281993150711,9.897132873535156,2.91782021522522,0.426553875207901,0.1089629605412483
2826779916.0,-0.5382534861564636,0.1608363091945648,9.97134780883789,2.8668477535247803,0.2656196355819702,0.0177250504493713
2826788249.0,-0.4570385217666626,-0.0319662131369113,9.89822006225586,2.620413303375244,0.3843415975570678,0.0755107700824737
2826796582.0,-0.5374770760536194,0.0885139107704162,9.761046409606934,2.576049327850342,0.9201914668083192,0.0337339490652084
2826804915.0,-0.6280755996704102,0.2546977400779724,9.810009002685549,2.7077579498291016,0.9523373246192932,0.0596555583178997
2826813248.0,-0.6303615570068359,0.2381002157926559,9.910649299621582,2.8316283226013184,0.7259586453437805,0.0213110446929931
2826821581.0,-0.5987637042999268,0.117377683520317,9.978134155273438,2.84502387046814,0.7666340470314026,0.0388567931950092
2826829914.0,-0.6615833640098572,0.1459078192710876,9.977532386779783,2.629352569580078,0.6912000775337219,0.0609106533229351
2826838247.0,-0.6958106160163879,0.2562333941459656,9.95608615875244,2.595592975616455,0.63251793384552,0.0301991812884807
2826846580.0,-0.6031379103660583,0.2000955641269683,9.874985694885254,2.508939743041992,0.5202507376670837,0.1483832597732544
2826854913.0,-0.486125499010086,0.0338478572666645,9.86229133605957,2.6817336082458496,0.3579845726490021,0.115187220275402
2826863246.0,-0.4644603133201599,0.1033338010311126,9.792262077331545,2.747203826904297,0.3114691078662872,0.1562980562448501
2826871579.0,-0.578667938709259,0.2784637212753296,9.845985412597656,2.84533166885376,0.8173246383666992,0.1510471552610397
2826879912.0,-0.6049617528915405,0.3032490015029907,9.92572784423828,2.8050661087036133,0.8102038502693176,0.1230507940053939
2826888245.0,-0.6045237183570862,0.0537801049649715,9.973705291748049,2.5960030555725098,0.7615624666213989,0.1668767631053924
2826896578.0,-0.6223843693733215,-0.0573288314044475,9.928784370422363,2.571566581726074,0.838610053062439,0.096488818526268
2826904911.0,-0.6902710199356079,0.1733903884887695,9.86188793182373,2.8347277641296387,0.71991366147995,0.0336058773100376
2826913244.0,-0.6461735963821411,0.3860810399055481,9.887205123901367,3.097017288208008,0.4964550733566284,0.0349890440702438
2826921577.0,-0.5302073955535889,0.2525720000267029,9.948184967041016,2.9314210414886475,0.2329870611429214,0.0855771526694297
2826929910.0,-0.457693487405777,0.0550779290497303,9.90621566772461,2.6254079341888428,0.4856459200382232,0.047668095678091
2826938243.0,-0.5348758697509766,0.0341222770512104,9.78517246246338,2.452178955078125,0.8266739249229431,0.1013043075799942
2826946576.0,-0.6724488139152527,0.2347625792026519,9.741351127624512,2.606453418731689,1.1346337795257568,-0.0273944269865751
2826954909.0,-0.6679303050041199,0.2451591342687606,9.86109447479248,2.844973087310791,0.9290795922279358,0.1130100190639495
2826963242.0,-0.6350000500679016,0.1294336020946502,9.956570625305176,2.8327295780181885,0.574783444404602,0.1911590248346328
2826971575.0,-0.6464311480522156,0.1395005881786346,9.96198272705078,2.7482025623321533,0.551705002784729,0.0501526705920696
2826979908.0,-0.6885321736335754,0.2782493233680725,9.986604690551758,2.447260856628418,0.715943455696106,0.028098814189434
2826988241.0,-0.6292918920516968,0.2116439491510391,9.884124755859377,2.531378030776977,0.5213778018951416,0.1253304630517959
2826996574.0,-0.4843423366546631,0.0407282970845699,9.841398239135742,2.52689528465271,0.1859593391418457,0.110371746122837
2827004907.0,-0.4473026692867279,0.0138128958642482,9.76266860961914,2.7620086669921875,0.3599056303501129,-0.0091058602556586
2827013240.0,-0.5307705998420715,0.2401012629270553,9.791852951049805,2.851351022720337,0.7823867797851562,0.0709258094429969
2827021573.0,-0.605322003364563,0.2890533804893493,9.901153564453123,2.641467809677124,0.8216790556907654,0.0542509518563747
2827029906.0,-0.6107962131500244,0.089969702064991,9.990041732788086,2.5183916091918945,0.7666339874267578,0.1233325377106666
2827038239.0,-0.6461620926856995,-0.0669409409165382,9.952972412109377,2.4889349937438965,0.8442196846008301,0.201404720544815
2827046572.0,-0.6940546035766602,0.0604137368500232,9.820524215698242,2.65051007270813,0.7408918142318726,0.0556085109710693
2827054905.0,-0.6851741075515747,0.3094534575939178,9.871984481811523,3.0099031925201416,0.6800323724746704,0.0775342881679534
2827063238.0,-0.5753726959228516,0.2537665069103241,9.933953285217283,3.000912666320801,0.214365541934967,0.0700549334287643
2827071571.0,-0.4419460296630859,0.0586831122636795,9.946471214294434,2.712726593017578,0.2499693483114242,0.1550685912370681
2827079904.0,-0.463007390499115,0.0293608512729406,9.84865379333496,2.512884616851806,0.6930699944496155,0.0343230739235878
2827088237.0,-0.5809502601623535,0.1824021637439727,9.769315719604492,2.509913206100464,1.0326634645462036,-0.0149715198203921
2827096570.0,-0.6034444570541382,0.2360340803861618,9.84293270111084,2.716619968414306,0.890709400177002,0.0798395723104476
2827104903.0,-0.6020994782447815,0.1195106878876686,9.92415714263916,2.843282461166382,0.6371540427207947,0.0491281002759933
2827113236.0,-0.6422742605209351,0.1172312870621681,9.939953804016112,2.757295608520508,0.6630756855010986,0.0744349658489227
2827121569.0,-0.7193694114685059,0.2210511863231659,9.991804122924805,2.553662300109864,0.8531588912010193,0.0988197103142738
2827129902.0,-0.6792524456977844,0.2519576251506805,9.935184478759766,2.54759168624878,0.4408465921878814,-0.0190185699611902
2827138235.0,-0.5218550562858582,0.072712130844593,9.839289665222168,2.6200544834136963,0.2427973300218582,0.0726163536310195
2827146568.0,-0.4389510750770569,0.0052299587987363,9.778207778930664,2.720539331436157,0.2584219872951507,0.0908536911010742
2827154901.0,-0.5042428970336914,0.180148959159851,9.809618949890137,2.747485399246216,0.5113882422447205,0.1636237204074859
2827163234.0,-0.5770872831344604,0.2985976338386535,9.879018783569336,2.846740245819092,0.7939131259918213,0.0951312631368637
2827171567.0,-0.6055946350097656,0.1568911969661712,9.968511581420898,2.65389084815979,0.8075912594795227,0.0357830896973609
2827179900.0,-0.6018293499946594,-0.0558548234403133,9.957849502563477,2.520747900009156,0.7018300294876099,0.0563513152301311
2827188233.0,-0.661436915397644,0.0527035482227802,9.861493110656738,2.584322214126587,0.8353570103645325,0.0872164666652679
2827196566.0,-0.6977367997169495,0.3083626329898834,9.874293327331545,2.9251458644866943,0.5832617878913879,0.0873957723379135
2827204899.0,-0.6076908707618713,0.3406080305576324,9.879606246948242,3.0593130588531494,0.3417451381683349,0.1826294809579849
2827213232.0,-0.4776913523674011,0.1083615645766258,9.938679695129396,2.794308423995972,0.1173644363880157,0.1320926249027252
2827221565.0,-0.4802732169628143,0.0078478585928678,9.849410057067873,2.476332902908325,0.5784975290298462,0.1077078580856323
2827229898.0,-0.600506067276001,0.1349652707576751,9.765131950378418,2.594389200210572,1.003719449043274,0.0592201091349124
2827238231.0,-0.6539304852485657,0.2382572740316391,9.749613761901855,2.810880422592163,1.1657037734985352,0.0499733723700046
2827246564.0,-0.6274319887161255,0.1624813228845596,9.89982795715332,2.936877012252808,0.7726022005081177,0.0710795074701309
2827254897.0,-0.6125324964523315,0.1196546852588653,9.963297843933104,2.919126510620117,0.640253484249115,0.014779414050281
2827263230.0,-0.6715525984764099,0.2284782826900482,9.982751846313477,2.659474849700928,0.6434808373451233,0.0295588243752717
2827271563.0,-0.6275172829627991,0.2691869139671325,9.96804141998291,2.5980262756347656,0.5466333627700806,0.1622405499219894
2827279896.0,-0.5157824158668518,0.1143174469470977,9.859983444213867,2.5339395999908447,0.2391857355833053,0.0980769172310829
2827288229.0,-0.4395357072353363,-0.0079586710780859,9.831037521362305,2.7120094299316406,0.4016568064689636,0.0546351596713066
2827296562.0,-0.4954137802124023,0.1421184688806533,9.748048782348633,2.919971704483032,0.6268571615219116,0.1349357962608337
2827304895.0,-0.5907616019248962,0.3183063864707947,9.886661529541016,2.839926719665528,0.912916898727417,0.1696942895650863
2827313228.0,-0.6388111710548401,0.2032261341810226,9.964932441711426,2.6696693897247314,0.9262619018554688,0.179607018828392
2827321561.0,-0.6199843883514404,-0.0147495726123452,10.003643035888672,2.4488744735717773,0.8438352942466736,0.211010068655014
2827329894.0,-0.6562337875366211,0.0157095976173877,9.891068458557127,2.5731546878814697,0.8545164465904236,0.2062458097934723
2827338227.0,-0.6805938482284546,0.2509995102882385,9.878056526184082,2.834625244140625,0.61594557762146,0.1306838393211364
2827346560.0,-0.5825057029724121,0.3437792062759399,9.9288911819458,2.935340404510498,0.2098574489355087,0.127277135848999
2827354893.0,-0.4414989650249481,0.1582123786211013,9.957987785339355,2.869152784347534,-0.0775214880704879,0.0649833157658577
2827363226.0,-0.4435783326625824,0.0268706269562244,9.897526741027832,2.6317601203918457,0.6376663446426392,0.0700037032365799
2827371559.0,-0.5692254900932312,0.1369156241416931,9.78713607788086,2.5498201847076416,0.9263387322425842,0.1215139254927635
2827379892.0,-0.6423588395118713,0.2678339779376983,9.843257904052734,2.671026945114136,1.1627583503723145,0.1406221538782119
2827388225.0,-0.6403682231903076,0.1935082823038101,9.917770385742188,2.8078324794769287,0.8696802258491516,0.0011014122283086
2827396558.0,-0.6585559844970703,0.1158318817615509,9.972664833068848,2.8941266536712646,0.7912236452102661,0.1144700124859809
2827404891.0,-0.7094881534576416,0.1699560731649398,9.93574047088623,2.701303005218506,0.723576545715332,0.0007940412615425
2827413224.0,-0.706337571144104,0.2762920558452606,9.937705039978027,2.504918336868286,0.58121258020401,-0.0887405127286911
2827421557.0,-0.5732032060623169,0.1869152635335922,9.86915397644043,2.5466442108154297,0.2469980865716934,-0.0541100688278675
2827429890.0,-0.4830785393714905,0.0018882397562265,9.811867713928224,2.695462465286255,0.3089844882488251,0.0746911093592643
2827438223.0,-0.4879982769489288,0.0768385156989097,9.74844741821289,2.707322120666504,0.5967603921890259,-0.0693505406379699
2827446556.0,-0.5763593316078186,0.3058426678180694,9.787848472595217,2.851555824279785,0.7812341451644897,0.1102436631917953
2827454889.0,-0.5946865677833557,0.2531726360321045,9.918461799621582,2.632708072662353,0.9168103337287904,0.0627036541700363
2827463222.0,-0.6071552634239197,0.0186059586703777,9.993992805480955,2.5496153831481934,0.8939367532730103,0.0659566521644592
2827471555.0,-0.6613714098930359,-0.0388032719492912,9.900222778320312,2.4855287075042725,0.8174527287483215,0.0441589429974556
2827479888.0,-0.7123868465423584,0.2070846706628799,9.88682746887207,2.627661943435669,0.6163297295570374,0.0060193450190126
2827488221.0,-0.633492648601532,0.3595709204673767,9.90937614440918,2.919331312179565,0.3532971441745758,0.0483596809208393
2827496554.0,-0.4842163324356079,0.1947688609361648,9.942852020263672,2.7995591163635254,-0.0306730456650257,0.0881641954183578
2827504887.0,-0.4285739660263061,0.015326902270317,9.892191886901855,2.6966922283172607,0.2933086156845093,0.018647164106369
2827513220.0,-0.5001250505447388,0.0573461651802063,9.79135799407959,2.53242826461792,0.8685787916183472,0.1325024366378784
2827521553.0,-0.6044978499412537,0.2020072638988495,9.794050216674805,2.6252031326293945,1.108609676361084,0.0351683460175991
2827529886.0,-0.6242815256118774,0.1835931688547134,9.88437843322754,2.7617011070251465,0.8275702595710754,-0.0034963430371135
2827538219.0,-0.6074331998825073,0.0896105766296386,9.981446266174316,2.908778190612793,0.8148912787437439,0.1010993793606758
2827546552.0,-0.6463706493377686,0.1324542313814163,10.011940956115724,2.759626626968384,0.8047992587089539,0.1581166833639145
2827554885.0,-0.6923916935920715,0.2529976069927215,9.957263946533203,2.556403160095215,0.4614661037921905,0.1662363857030868
2827563218.0,-0.5728866457939148,0.1954680979251861,9.897883415222168,2.4837100505828857,0.2885699868202209,0.008427083492279
2827571551.0,-0.4820826947689056,0.0012677132617682,9.832219123840332,2.678762435913086,0.274994432926178,0.0592457205057144
2827579884.0,-0.4616819322109222,0.0253253355622291,9.76387882232666,2.836596965789795,0.5727086067199707,0.0519456639885902
2827588217.0,-0.5717897415161133,0.2253691107034683,9.814209938049316,2.8179502487182617,0.8282363414764404,0.0485645942389965
2827596550.0,-0.6144255995750427,0.2769761681556701,9.91578197479248,2.7668752670288086,0.7447339296340942,0.0169053953140974
2827604883.0,-0.6180650591850281,0.0737898498773574,9.99183750152588,2.6228721141815186,0.9221892952919006,-0.0195052418857812
2827613216.0,-0.6622692346572876,-0.0615160539746284,9.940851211547852,2.6292755603790283,0.8163256049156189,0.1375740468502044
2827621549.0,-0.716954231262207,0.1353156268596649,9.878924369812012,2.7521984577178955,0.7721155285835266,0.0183397941291332
2827629882.0,-0.679644763469696,0.3534362912178039,9.88502597808838,3.0249133110046387,0.5365926623344421,-0.0055710962042212
2827638215.0,-0.5539366006851196,0.2500437796115875,9.909417152404783,2.9372100830078125,0.3545266389846802,0.0381139852106571
2827646548.0,-0.4529517590999603,0.0286387540400028,9.926467895507812,2.6817846298217773,0.2784267365932464,0.1200795322656631
2827654881.0,-0.5104573965072632,0.0484403409063816,9.792017936706545,2.570132255554199,0.8210643529891968,0.0327606089413166
2827663214.0,-0.5970242619514465,0.2126379609107971,9.776215553283691,2.6785829067230225,1.1077131032943726,0.0707977414131164
2827671547.0,-0.6295125484466553,0.2637375891208648,9.847904205322266,2.848200559616089,0.9891706109046936,0.0205426178872585
2827679880.0,-0.6123201847076416,0.1295539736747741,9.951520919799805,2.854578256607056,0.6487060785293579,0.0760742723941803
2827688213.0,-0.639651358127594,0.117050677537918,9.95277976989746,2.8264026641845703,0.6705037951469421,0.1016116738319397
2827696546.0,-0.686080813407898,0.2641659379005432,9.972439765930176,2.5891895294189453,0.5688921213150024,0.0157271400094032
2827704879.0,-0.6380574107170105,0.2520013153553009,9.898958206176758,2.5633699893951416,0.3928967416286468,-0.1302611827850341
2827713212.0,-0.5022801756858826,0.1105663925409317,9.854841232299805,2.6281485557556152,0.2599332630634308,-0.0173024162650108
2827721545.0,-0.4431594014167785,0.0318391062319278,9.813665390014648,2.756245374679565,0.3820363283157348,0.0825546905398368
2827729878.0,-0.5396024584770203,0.2083606868982315,9.756772994995115,2.7441298961639404,0.6889972686767578,0.1093215495347976
2827738211.0,-0.6065646409988403,0.3123049736022949,9.88820743560791,2.754145383834839,0.8841778039932251,0.1214114800095558
2827746544.0,-0.5959244966506958,0.1504520773887634,9.96878719329834,2.611268758773804,1.0013372898101809,0.0877287611365318
2827754877.0,-0.6108576655387878,-0.0373167060315609,9.945893287658691,2.500948190689087,0.9177069067955016,0.0354757159948349
2827763210.0,-0.6558546423912048,0.0627532824873924,9.878846168518066,2.6103978157043457,0.8288254141807556,0.069132812321186
2827771543.0,-0.6906365752220154,0.3182783126831054,9.852594375610352,2.8545784950256348,0.5517306327819824,0.1075285598635673
2827779876.0,-0.5959715843200684,0.3341216742992401,9.885276794433594,2.896329879760742,0.2058872133493423,0.1174156591296196
2827788209.0,-0.4521331489086151,0.0960027426481247,9.94594383239746,2.8348042964935303,0.2461528182029724,0.0627548769116401
2827796542.0,-0.4550985097885132,0.0301890838891267,9.839373588562012,2.575767755508423,0.5959152579307556,0.1624198704957962
2827804875.0,-0.5832310914993286,0.1343196779489517,9.757678985595703,2.501588821411133,0.9453189969062804,0.1829368621110916
2827813208.0,-0.6375168561935425,0.2906380891799927,9.840296745300291,2.8147480487823486,1.0056148767471311,0.0399325899779796
2827821541.0,-0.6123177409172058,0.1867652833461761,9.95964813232422,2.8675649166107178,0.7381255030632019,0.0814020410180091
2827829874.0,-0.6222723722457886,0.1003023236989975,10.0370512008667,2.8312692642211914,0.6758828163146973,0.1004846468567848
2827838207.0,-0.690090537071228,0.1930935680866241,9.991857528686523,2.617877244949341,0.7962185740470886,0.0454652681946754
2827846540.0,-0.6927579045295715,0.2988006174564361,9.892130851745604,2.455893039703369,0.5586721301078796,0.0647784024477005
2827854873.0,-0.549727201461792,0.1672794669866562,9.891644477844238,2.596386909484864,0.3070122301578522,0.0533032268285751
2827863206.0,-0.459458589553833,-0.0003415555693209,9.815251350402832,2.65706729888916,0.1182865500450134,0.0044056489132344
2827871539.0,-0.4923645555973053,0.1129382103681564,9.791747093200684,2.820434331893921,0.6713747382164001,0.0073768994770944
2827879872.0,-0.6035429239273071,0.2844241261482239,9.871853828430176,2.7643396854400635,0.8844339847564697,0.1208991929888725
2827888205.0,-0.629469633102417,0.2279276251792907,9.936626434326172,2.639879941940308,0.8309770226478577,0.0241029951721429
2827896538.0,-0.6220490336418152,-0.0112766837701201,9.954416275024414,2.4716711044311523,0.8713706135749817,0.0867810323834419
2827904871.0,-0.6632982492446899,-0.0312578566372394,9.90223217010498,2.5175211429595947,0.8183748722076416,0.1412112861871719
2827913204.0,-0.6980491876602173,0.2228794246912002,9.85315227508545,2.76902723312378,0.6350025534629822,-0.0243719443678855
2827921537.0,-0.621921181678772,0.3804292976856231,9.879644393920898,2.9403862953186035,0.2444110065698623,0.0722321420907974
2827929870.0,-0.4773224592208862,0.1612603813409805,9.943533897399902,2.802299976348877,0.1373179256916046,0.0680826380848884
2827938203.0,-0.4292228817939758,-0.0279963687062263,9.894067764282228,2.616468667984009,0.5050615072250366,0.062370665371418
2827946536.0,-0.5784817337989807,0.0684173926711082,9.715548515319824,2.612114191055298,0.8459101915359497,0.0725651308894157
2827954869.0,-0.6495541334152222,0.2471131831407547,9.79340362548828,2.74103045463562,0.9606619477272034,0.1111145466566085
2827963202.0,-0.6263423562049866,0.1917769759893417,9.92237377166748,2.867462158203125,0.7051085829734802,0.1165447607636451
2827971535.0,-0.6089850068092346,0.0970155298709869,9.993882179260254,2.882523536682129,0.6300333738327026,0.0039189783856272
2827979868.0,-0.6729034781455994,0.1566196233034134,9.966127395629885,2.692798852920532,0.7692210674285889,0.0190057642757892
2827988201.0,-0.6609071493148804,0.2652771472930908,9.943572998046877,2.474335193634033,0.5421509146690369,0.097743920981884
2827996534.0,-0.6006750464439392,0.1996894627809524,9.88566780090332,2.5262296199798584,0.4468916058540344,0.1394951343536377
2828004867.0,-0.4524371027946472,0.0199382845312356,9.837328910827637,2.6618316173553467,0.3287843465805053,-0.0239621195942163
2828013200.0,-0.4576150476932525,0.0526057444512844,9.77337646484375,2.796178102493286,0.4845444560050964,0.044056486338377
2828021533.0,-0.5813297033309937,0.2532967329025268,9.826923370361328,2.7761733531951904,0.9154528379440308,0.0284318029880523
2828029866.0,-0.6447262763977051,0.2716264128684997,9.897027969360352,2.6548898220062256,0.9031066298484802,0.1428505927324295
2828038199.0,-0.6201237440109253,0.0581204853951931,9.977625846862791,2.558913230895996,0.8869441151618958,0.0142415147274732
2828046532.0,-0.6421023011207581,-0.0286508258432149,9.93474578857422,2.589599132537842,0.8307721614837646,0.1321438401937484
2828054865.0,-0.6665788292884827,0.1767453849315643,9.863327026367188,2.7969717979431152,0.8026989102363586,0.1069650426506996
2828063198.0,-0.641123354434967,0.3761535882949829,9.89240837097168,3.0228638648986816,0.3951251804828644,0.0479498505592346
2828071531.0,-0.522351086139679,0.2510071694850921,9.914410591125488,2.888183832168579,0.162189319729805,-0.0291105769574642
2828079864.0,-0.4434995651245117,0.0255272723734378,9.937216758728027,2.520799160003662,0.3444602191448211,0.0730774104595184
2828088197.0,-0.5241703391075134,0.0337915420532226,9.79167652130127,2.482762336730957,0.7062356472015381,0.0731030255556106
2828096530.0,-0.6173075437545776,0.2262043207883834,9.765619277954102,2.6399567127227783,1.1084558963775637,0.0985635742545127
2828104863.0,-0.6510080695152283,0.2954769134521484,9.856688499450684,2.881601095199585,0.9074866771697998,0.0870115533471107
2828113196.0,-0.6142076253890991,0.1733415275812149,9.954272270202637,2.870049476623535,0.6003208756446838,0.1639823317527771
2828121529.0,-0.6536562442779541,0.1053803861141204,9.981290817260742,2.646334886550904,0.626677930355072,0.1778396517038345
2828129862.0,-0.6858208179473877,0.2157546579837799,9.941844940185549,2.462808609008789,0.7154567241668701,0.0414438284933567
2828138195.0,-0.6341307163238525,0.2528510987758636,9.865412712097168,2.42392635345459,0.4476343691349029,0.0966937318444252
2828146528.0,-0.517887532711029,0.0855313837528228,9.84107494354248,2.680837392807007,0.3112641870975494,0.0738970711827278
2828154861.0,-0.4417839348316192,0.033457338809967,9.821669578552246,2.834829807281494,0.3540143370628357,0.0097334086894989
2828163194.0,-0.5055243372917175,0.210453912615776,9.80396556854248,2.829962968826294,0.6243213415145874,0.0827595889568328
2828171527.0,-0.6073049306869507,0.3089306354522705,9.856649398803713,2.758730173110962,0.828851044178009,0.137727752327919
2828179860.0,-0.6155173182487488,0.1509171575307846,9.98216724395752,2.588907718658448,0.7992410063743591,0.0775855109095573
2828188193.0,-0.6344506144523621,-0.0492419004440307,9.976140975952148,2.5755369663238525,0.8189639449119568,0.0647527873516082
2828196526.0,-0.6741355657577515,0.0415305867791175,9.859453201293944,2.798483371734619,0.5978106260299683,0.027919515967369
2828204859.0,-0.6887484788894653,0.3071907460689544,9.866814613342283,2.8966622352600098,0.5189186930656433,0.1176205649971962
2828213192.0,-0.5878680944442749,0.3523097336292267,9.903847694396973,2.884803056716919,0.3057058751583099,-0.0052893394604325
2828221525.0,-0.4680648446083069,0.1083852276206016,9.981934547424316,2.604532241821289,0.2473054379224777,0.0654187500476837
2828229858.0,-0.4437395334243774,-0.0363148599863052,9.844204902648926,2.444392204284668,0.5675602555274963,0.0922880992293357
2828238191.0,-0.5775668621063232,0.1145542114973068,9.723641395568848,2.512474775314331,1.0079201459884644,0.0857820659875869
2828246524.0,-0.6403566598892212,0.2823413610458374,9.80296516418457,2.779016494750977,1.0564590692520142,0.0955923199653625
2828254857.0,-0.6335797309875488,0.2207705080509185,9.95269012451172,2.9161806106567383,0.6713747382164001,0.0530214719474315
2828263190.0,-0.6169101595878601,0.0979636833071708,9.992507934570312,2.792566299438477,0.7098985910415649,0.0862175226211547
2828271523.0,-0.6688902974128723,0.1631485074758529,9.95030689239502,2.5454657077789307,0.586898922920227,0.0676472038030624
2828279856.0,-0.709966778755188,0.2626537680625915,9.927739143371582,2.4779722690582275,0.678930938243866,-0.0430703312158584
2828288189.0,-0.5747875571250916,0.1292836368083953,9.848685264587402,2.536219358444214,0.2165171504020691,-0.0614613592624664
2828296522.0,-0.439119279384613,-0.009943981654942,9.838274955749512,2.848815679550171,0.2153645008802414,0.0153941558673977
2828304855.0,-0.4874199330806732,0.0782613083720207,9.77090835571289,2.7906198501586914,0.6541619300842285,0.0649320855736732
2828313188.0,-0.5727053284645081,0.2746106386184692,9.857706069946287,2.7435407638549805,1.0635286569595337,-0.0158936344087123
2828321521.0,-0.6243788599967957,0.2324811071157455,9.97126579284668,2.650663614273072,0.99857097864151,0.04920494556427
2828329854.0,-0.6264165639877319,0.0110320895910263,9.981196403503418,2.447107076644897,0.8126628398895264,-0.0244487877935171
2828338187.0,-0.6516751646995544,-0.0327302441000938,9.875368118286133,2.569312810897827,0.7946816086769104,0.0429806895554065
2828346520.0,-0.721924364566803,0.1907459646463394,9.818411827087402,2.812673807144165,0.5783438086509705,0.0828620567917823
2828354853.0,-0.6697084307670593,0.3401608169078827,9.892751693725586,2.970277786254883,0.5350813269615173,0.0644710287451744
2828363186.0,-0.5175936222076416,0.1757421940565109,9.963260650634766,2.799943447113037,0.0950544327497482,-0.0204273555427789
2828371519.0,-0.4445143938064575,-0.035164251923561,9.90337371826172,2.550947427749634,0.3279902935028076,0.0181861072778701
2828379852.0,-0.5277786254882812,0.0290285944938659,9.7814359664917,2.454407453536988,0.9722395539283752,0.1618563681840896
2828388185.0,-0.6256754398345947,0.2406264692544937,9.763731956481934,2.6464884281158447,0.9220098853111268,0.1376508921384811
2828396518.0,-0.6324500441551208,0.2525764107704162,9.89891242980957,2.8944342136383057,0.8464992046356201,0.0526116378605365
2828404851.0,-0.602731466293335,0.1096620038151741,9.99483871459961,2.951784610748291,0.6712979078292847,0.1232044622302055
2828413184.0,-0.6510175466537476,0.1131601333618164,9.989789009094238,2.7892110347747803,0.6322873830795288,0.0321714803576469
2828421517.0,-0.6995143294334412,0.2233697474002838,9.950349807739258,2.43173885345459,0.6224002838134766,0.0125765893608331
2828429850.0,-0.6096413731575012,0.2109153717756271,9.87021541595459,2.6107053756713867,0.4942010641098022,-0.0325941182672977
2828438183.0,-0.4693499505519867,0.0524600446224212,9.840405464172363,2.76106071472168,0.2077058255672454,0.0405985638499259
2828446516.0,-0.4308846890926361,0.0689838379621505,9.782459259033203,2.847995519638061,0.4392328858375549,0.0083246268332004
2828454849.0,-0.5522956252098083,0.2355752289295196,9.801785469055176,2.8402087688446045,0.8284412026405334,0.1683623790740966
2828463182.0,-0.6325032114982605,0.3106586933135986,9.921630859375,2.7134950160980225,0.9034397006034852,-0.0183782130479812
2828471515.0,-0.6311601400375366,0.1238433271646499,9.972439765930176,2.4950313568115234,0.736921489238739,0.0822217017412185
2828479848.0,-0.6248357892036438,-0.0560593418776989,9.920452117919922,2.53294038772583,0.7470648884773254,0.0620889067649841
2828488181.0,-0.6619142293930054,0.0953988060355186,9.835129737854004,2.678147554397583,0.6428404450416565,0.098589189350605
2828496514.0,-0.6579698324203491,0.3669873774051666,9.890520095825195,2.9247360229492188,0.4863118231296539,0.096309520304203
2828504847.0,-0.5664400458335876,0.3337501287460327,9.931781768798828,3.000554084777832,0.2953321635723114,0.0202864725142717
2828513180.0,-0.4453454315662384,0.0730228722095489,9.996078491210938,2.630889415740967,0.2990974485874176,0.115545816719532
2828521513.0,-0.4605915248394012,-0.0090673426166176,9.848249435424805,2.298724174499512,0.6970401406288147,0.1818354576826095
2828529846.0,-0.5986003279685974,0.1582918167114257,9.747122764587402,2.513038396835327,1.0388877391815186,0.1482808142900467
2828538179.0,-0.6649838089942932,0.2748744189739227,9.808708190917969,2.816771984100342,1.099772810935974,0.091084212064743
2828546512.0,-0.6171873807907104,0.1812276244163513,9.970697402954102,3.028396844863892,0.6191729307174683,0.1374716013669967
2828554845.0,-0.6302558779716492,0.1318525671958923,9.967765808105469,2.8589329719543457,0.589434802532196,0.1276101171970367
2828563178.0,-0.6881556510925293,0.1987604647874832,9.982307434082031,2.5486931800842285,0.7308254241943359,0.0757156834006309
2828571511.0,-0.6714817881584167,0.239289179444313,9.877602577209473,2.3643476963043213,0.5843376517295837,0.1477685421705246
2828579844.0,-0.5360354781150818,0.1158929616212844,9.8350248336792,2.588702917098999,0.3294247090816498,0.0532007701694965
2828588177.0,-0.4378844201564789,-0.0021941983141005,9.823551177978516,2.8139030933380127,0.2733551263809204,0.0854746997356414
2828596510.0,-0.5049249529838562,0.1233755424618721,9.777532577514648,2.8454339504241943,0.7161227464675903,0.1277637928724289
2828604843.0,-0.629747748374939,0.30740487575531,9.85432243347168,2.8255832195281982,0.947240114212036,0.143388494849205
2828613176.0,-0.6409631967544556,0.2270125597715377,9.99415683746338,2.6517906188964844,0.8144046664237976,0.0141902854666113
2828621509.0,-0.6306784152984619,-0.0234599281102418,9.952496528625488,2.483581781387329,0.810895562171936,-0.0435570068657398
2828629842.0,-0.6373195648193359,-0.0545376315712928,9.86980152130127,2.5929291248321533,0.5899214744567871,0.0063779447227716
2828638175.0,-0.6863744854927063,0.2372902631759643,9.803004264831545,2.7642626762390137,0.5290108323097229,0.1076310127973556
2828646508.0,-0.622747004032135,0.3851228356361389,9.905887603759766,2.994483470916748,0.2887236475944519,0.0680314153432846
2828654841.0,-0.4977999031543731,0.1698585003614425,10.018733978271484,2.843538999557495,0.2804502546787262,0.0216952580958604
2828663174.0,-0.4481196403503418,-0.0380778685212135,9.928231239318848,2.342370748519897,0.4538842141628265,0.1804010570049286
2828671507.0,-0.5623462796211243,0.0600364841520786,9.72768783569336,2.327488899230957,0.9506723880767822,0.1192598789930343
2828679840.0,-0.6626306176185608,0.2212138772010803,9.78054904937744,2.713392734527588,1.0911152362823486,0.1951548755168914
2828688173.0,-0.6407425403594971,0.2626537680625915,9.888711929321287,2.9570095539093018,0.8669138550758362,0.1536854058504104
2828696506.0,-0.5988690853118896,0.111057236790657,9.990246772766112,2.917999744415283,0.5037039518356323,0.0706440657377243
2828704839.0,-0.6335390210151672,0.1245191097259521,10.001038551330566,2.655606985092163,0.6051362752914429,0.073743388056755
2828713172.0,-0.6838740706443787,0.2393116056919098,9.899587631225586,2.398516893386841,0.6644331812858582,0.0502551272511482
2828721505.0,-0.5949011445045471,0.1893834918737411,9.832728385925291,2.5157277584075928,0.5286521911621094,0.0811459049582481
2828729838.0,-0.4689283072948456,0.0109857395291328,9.843179702758787,2.76216197013855,0.1264318525791168,0.0856796130537986
2828738171.0,-0.4595924615859985,0.0614526160061359,9.77944278717041,2.8673856258392334,0.5013731122016907,0.1141370385885238
2828746504.0,-0.5666117072105408,0.2495995759963989,9.851218223571776,2.837109565734864,0.9307445287704468,-0.0099255153909325
2828754837.0,-0.6302229762077332,0.3141069710254669,9.956900596618652,2.7155702114105225,0.9437564611434937,0.0420073494315147
2828763170.0,-0.6178823113441467,0.065860629081726,10.001322746276855,2.514216661453247,0.8318222761154175,0.1199770867824554
2828771503.0,-0.6110372543334961,-0.0768986344337463,9.905606269836426,2.5336833000183105,0.747244119644165,0.0366539694368839
2828779836.0,-0.6721149682998657,0.1003007888793945,9.836530685424805,2.7534019947052,0.6658419966697693,0.0311212930828332
2828788169.0,-0.6499555706977844,0.3624973893165588,9.862829208374023,3.0168190002441406,0.5436365604400635,-0.0923521295189857
2828796502.0,-0.5236747860908508,0.3099906146526336,9.926213264465332,2.995712757110596,0.199458047747612,0.012294833548367
2828804835.0,-0.4502165913581848,0.0623097978532314,9.96335792541504,2.584963083267212,0.2289144396781921,0.0933895036578178
2828813168.0,-0.5203030705451965,-0.0113580115139484,9.823105812072754,2.470467329025269,0.7425310015678406,0.0851417109370231
2828821501.0,-0.6378784775733948,0.1675767004489898,9.72166633605957,2.488576412200928,1.19564688205719,0.0342718474566936
2828829834.0,-0.6798978447914124,0.2695719599723816,9.829174041748049,2.8457672595977783,0.8841521739959717,0.0766377970576286
2828838167.0,-0.6345076560974121,0.1609260737895965,9.975934982299805,3.0156917572021484,0.5274994969367981,0.1071443408727645
2828846500.0,-0.6258522272109985,0.1082055941224098,10.009024620056152,2.763391733169556,0.6194034218788147,0.172896072268486
2828854833.0,-0.6935346722602844,0.2091725021600723,9.949342727661133,2.537704467773437,0.5361059308052063,0.0558390319347381
2828863166.0,-0.6467328071594238,0.2522474527359009,9.854422569274902,2.4424967765808105,0.5717865824699402,0.0425708591938018
2828871499.0,-0.5218876600265503,0.0920320749282836,9.856670379638672,2.551741361618042,0.3446907699108124,0.0796090438961982
2828879832.0,-0.4411594569683075,0.004650630056858,9.802268981933594,2.815875291824341,0.302068680524826,0.128967672586441
2828888165.0,-0.5154445767402649,0.1475442051887512,9.7805757522583,2.8466122150421143,0.6512675285339355,0.0414950624108314
2828896498.0,-0.6140731573104858,0.3222150802612304,9.882447242736816,2.8844187259674072,0.7484735250473022,0.0506649576127529
2828904831.0,-0.6076334118843079,0.2061356455087661,10.008121490478516,2.5752806663513184,0.8281594514846802,-0.0178659278899431
2828913164.0,-0.6357353329658508,-0.0362830534577369,9.945775985717772,2.390679121017456,0.745681643486023,0.0998699143528938
2828921497.0,-0.6487200260162354,0.0100690647959709,9.883031845092772,2.6205153465271,0.7791338562965393,0.0438771843910217
2828929830.0,-0.6830501556396484,0.2758723795413971,9.844738960266112,2.942537784576416,0.6226564645767212,0.0364234447479248
2828938163.0,-0.5960796475410461,0.3787532150745392,9.896434783935549,3.062847852706909,0.3262741267681122,0.073743388056755
2828946496.0,-0.4553679823875427,0.155059814453125,9.965023040771484,2.8160290718078613,0.1628296822309494,0.1325024366378784
2828954829.0,-0.4483137130737304,-0.0142866671085357,9.879310607910156,2.478766202926636,0.464642196893692,0.1010737717151641
2828963162.0,-0.5659428834915161,0.1090747043490409,9.746240615844728,2.4139881134033203,1.1427278518676758,0.0494867041707038
2828971495.0,-0.6374509334564209,0.2528001666069031,9.805427551269531,2.660243511199951,1.136017084121704,0.2040173858404159
2828979828.0,-0.6219959259033203,0.183317944407463,9.896728515625,2.972506523132324,0.5822628140449524,0.0426733195781707
2828988161.0,-0.6125533580780029,0.0977300778031349,9.986489295959473,2.825275659561157,0.5950955748558044,0.0930052921175956
2828996494.0,-0.6510284543037415,0.1657667011022567,9.953509330749512,2.6029696464538574,0.7152007222175598,0.1104741916060447
2829004827.0,-0.6912458539009094,0.2695762813091278,9.93303108215332,2.482455015182495,0.7053648233413696,-0.0201455969363451
2829013160.0,-0.5573447346687317,0.1553493589162826,9.85750961303711,2.5680062770843506,0.4117231965065002,0.0342462323606014
2829021493.0,-0.4655402898788452,-0.0155005380511283,9.828726768493652,2.690595865249634,0.2154157161712646,-0.0036756431218236
2829029826.0,-0.4673879742622375,0.0661038011312484,9.773916244506836,2.8528366088867188,0.5617202520370483,0.1822965294122696
2829038159.0,-0.5882877707481384,0.2839154303073883,9.84803295135498,2.8434877395629883,0.8806430697441101,-0.0488591566681861
2829046492.0,-0.6338773965835571,0.2780406177043915,9.930458068847656,2.747690439224243,0.9738276600837708,0.0903414115309715
2829054825.0,-0.6464541554450989,0.068043865263462,9.99578094482422,2.578687906265259,0.7770078778266907,0.093235820531845
2829063158.0,-0.6459333300590515,-0.0506816692650318,9.914711952209473,2.488935232162476,0.7280078530311584,0.1133430004119873
2829071491.0,-0.68828946352005,0.1751242130994796,9.84699249267578,2.777146577835083,0.7331562638282776,0.0830925777554512
2829079824.0,-0.6608148217201233,0.3521537780761719,9.883014678955078,3.0320849418640137,0.4377985298633575,-0.0208627954125404
2829088157.0,-0.5192432403564453,0.2194309830665588,9.935443878173828,2.881294250488281,0.0966937467455864,0.038472581654787
2829096490.0,-0.4381613433361053,-0.000845858361572,9.944927215576172,2.588651657104492,0.2729196846485138,0.0153941540047526
2829104823.0,-0.5074487924575806,0.0408660620450973,9.813517570495604,2.437373876571656,0.8380465507507324,0.1491773128509521
2829113156.0,-0.6303058862686157,0.2157271951436996,9.790794372558594,2.7025320529937744,1.0478527545928955,0.1286090761423111
2829121489.0,-0.6181111931800842,0.2574371099472046,9.89883804321289,2.7478184700012207,0.7608709335327148,0.1238192170858383
2829129822.0,-0.5828338265419006,0.1118832230567932,9.993447303771973,2.861647844314575,0.5578780174255371,0.1291981935501098
2829138155.0,-0.6472800374031067,0.1171937137842178,9.970355033874512,2.7851638793945312,0.5916632413864136,-0.0077226920984685
2829146488.0,-0.7098957300186157,0.2513841688632965,9.936741828918455,2.55481505393982,0.7426335215568542,0.0330167487263679
2829154821.0,-0.6213549375534058,0.228516936302185,9.866318702697754,2.4971063137054443,0.4955073893070221,-0.0160729326307773
2829163154.0,-0.5024701356887817,0.0613072551786899,9.856194496154783,2.650714874267578,0.2204105108976364,-0.0834639891982078
2829171487.0,-0.4540193080902099,0.0182662364095449,9.812538146972656,2.807192087173462,0.3264022171497345,0.045747023075819
2829179820.0,-0.5327314138412476,0.2032231390476226,9.808253288269045,2.941154718399048,0.8088719844818115,0.1173388212919235
2829188153.0,-0.632375180721283,0.3129329681396484,9.92652416229248,2.778555631637573,1.0038219690322876,0.1443874686956405
2829196486.0,-0.599461019039154,0.1076480820775032,9.979408264160156,2.5262551307678223,0.8668625354766846,0.0721552968025207
2829204819.0,-0.6165331602096558,-0.0349536873400211,9.91845989227295,2.529585123062134,0.7356664538383484,0.1209504157304763
2829213152.0,-0.6849365234375,0.0856770128011703,9.858474731445312,2.7480742931365967,0.7842566967010498,-0.0057760099880397
2829221485.0,-0.6760506629943848,0.3268068432807922,9.883193016052246,2.9643611907958984,0.6255765557289124,0.0516639165580272
2829229818.0,-0.572729229927063,0.2859072089195251,9.897908210754396,2.895202398300171,0.1972552090883255,0.0657261237502098
2829238151.0,-0.4612164199352264,0.0534393191337585,9.93020248413086,2.7345757484436035,0.2006619125604629,0.0652394592761993
2829246484.0,-0.4883719384670257,0.0229854881763458,9.843626976013184,2.4382190704345703,0.614331841468811,0.135448083281517
2829254817.0,-0.6047891974449158,0.1831689029932022,9.755846977233888,2.5631141662597656,0.9924748539924622,0.0720528438687324
2829263150.0,-0.6282588839530945,0.2583094537258148,9.843473434448242,2.7584478855133057,0.9383774995803832,0.0545839294791221
2829271483.0,-0.6068854331970215,0.1647357791662216,9.96090316772461,2.92488956451416,0.7114610075950623,0.0932614281773567
2829279816.0,-0.6385151147842407,0.0673566609621048,9.944989204406738,2.7328596115112305,0.6427892446517944,0.1196697056293487
2829288149.0,-0.6793174147605896,0.2076026797294616,9.9509916305542,2.5762033462524414,0.7135101556777954,0.1068369820713996
2829296482.0,-0.6671323180198669,0.2812827527523041,9.899237632751465,2.476128101348877,0.5477603673934937,0.0599629171192646
2829304815.0,-0.5350866913795471,0.1263362169265747,9.864445686340332,2.6649303436279297,0.4484539628028869,0.1022776365280151
2829313148.0,-0.4741485714912414,0.0266345832496881,9.801780700683594,2.734652280807495,0.3132876753807068,0.1510727554559707
2829321481.0,-0.5312932133674622,0.1660818755626678,9.797162055969238,2.6695668697357178,0.6968865394592285,0.0961558446288108
2829329814.0,-0.5901511311531067,0.315832644701004,9.873597145080566,2.820972442626953,0.8104087710380554,0.1119598224759101
2829338147.0,-0.6267523169517517,0.1971105635166168,9.97103214263916,2.6205410957336426,0.7424798011779785,0.1406477689743042
2829346480.0,-0.5870034694671631,-0.0130065903067588,9.95863437652588,2.605556964874268,0.9234444499015808,0.1555296331644058
2829354813.0,-0.6366727352142334,0.0430146902799606,9.889723777770996,2.661805391311645,0.6013966202735901,0.0259472168982028
2829363146.0,-0.6801800727844238,0.3052253127098083,9.864129066467283,2.9157707691192627,0.6244750618934631,0.0294563714414834
2829371479.0,-0.5760554075241089,0.3821721076965332,9.909876823425291,2.879373073577881,0.3936139643192291,0.1259964406490326
2829379812.0,-0.452958732843399,0.1382794231176376,9.95466136932373,2.6598079204559326,0.2859317064285278,0.0735128596425056
2829388145.0,-0.4674797356128692,-0.0202942229807376,9.85895538330078,2.528355598449707,0.6216574907302856,0.0327093787491321
2829396478.0,-0.5811542272567749,0.1078618243336677,9.75433349609375,2.481250762939453,0.9870190024375916,0.1451558768749237
2829404811.0,-0.6511794924736023,0.2673310041427612,9.801888465881348,2.7184646129608154,1.0019007921218872,0.0734872445464134
2829413144.0,-0.6194652318954468,0.2108862549066543,9.919196128845217,2.966768980026245,0.7435300946235657,0.0869859457015991
2829421477.0,-0.5947751402854919,0.1074675023555755,9.989304542541504,2.7713065147399902,0.6603606343269348,0.1701553761959076
2829429810.0,-0.6830050349235535,0.1831183582544326,9.980219841003418,2.6122164726257324,0.606545090675354,0.014113443903625
2829438143.0,-0.6850176453590393,0.2334421128034591,9.924271583557127,2.488550901412964,0.5980923771858215,0.1146237179636955
2829446476.0,-0.5604134202003479,0.1448734551668167,9.868128776550291,2.6188762187957764,0.3141329884529114,0.1098850667476654
2829454809.0,-0.4498913586139679,0.0039035351946949,9.842245101928713,2.7802717685699463,0.4042694866657257,0.0758949816226959
2829463142.0,-0.5021767616271973,0.0801083371043205,9.792262077331545,2.8465356826782227,0.5324174761772156,0.0236931685358285
2829471475.0,-0.6017868518829346,0.290531188249588,9.852999687194824,2.7833452224731445,0.7987543344497681,0.094439685344696
2829479808.0,-0.6288987994194031,0.2390815168619156,9.964481353759766,2.648844718933105,0.9602521657943726,0.0606032758951187
2829488141.0,-0.606874406337738,-0.0020132444333285,9.972028732299805,2.5059685707092285,0.8119969367980957,0.0701573938131332
2829496474.0,-0.645014762878418,-0.0350105762481689,9.898479461669922,2.5694406032562256,0.6305199861526489,0.1339112073183059
2829504807.0,-0.709348738193512,0.2054172158241272,9.8506441116333,2.7966904640197754,0.6321337223052979,0.1079383939504623
2829513140.0,-0.6399211883544922,0.3558747470378876,9.880523681640623,2.9388749599456787,0.3889521360397339,0.0432112142443656
2829521473.0,-0.4901473224163055,0.1504234373569488,9.96321964263916,2.826453924179077,0.0820936262607574,0.0318641066551208
2829529806.0,-0.4452604949474334,-0.0199252553284168,9.89330005645752,2.550025224685669,0.2961261868476867,0.1088605001568794
2829538139.0,-0.5500261187553406,0.0771466866135597,9.763026237487791,2.553918600082397,0.9489049315452576,0.1641616374254226
2829546472.0,-0.6367993950843811,0.2334719151258468,9.776800155639648,2.681169986724853,1.0018240213394165,0.0270742457360029
2829554805.0,-0.6115102171897888,0.1997390985488891,9.908513069152832,2.850454568862915,0.8115358352661133,-0.0043928413651883
2829563138.0,-0.6012299656867981,0.0703118294477462,9.965855598449709,2.8626978397369385,0.6811080574989319,0.0849111825227737
2829571471.0,-0.6644098162651062,0.1566310375928878,9.952353477478027,2.6358585357666016,0.6874861121177673,0.1424407660961151
2829579804.0,-0.698602020740509,0.2594886124134063,9.972260475158691,2.4404730796813965,0.6088759899139404,0.0821960940957069
2829588137.0,-0.5931152105331421,0.2007875889539718,9.869661331176758,2.6012279987335205,0.4216102957725525,0.0648552477359771
2829596470.0,-0.4842971861362457,0.0133588770404458,9.831928253173828,2.735959053039551,0.1193111091852188,0.0685949251055717
2829604803.0,-0.4486839175224304,0.0699168741703033,9.78725528717041,2.881114959716797,0.409417986869812,0.1076566353440284
2829613136.0,-0.5638759732246399,0.2644599080085754,9.79609489440918,2.793642282485962,0.8688605427742004,0.1080664694309234
2829621469.0,-0.6194311380386353,0.2705450356006622,9.899341583251951,2.749098777770996,0.9276962876319884,0.0863199681043624
2829629802.0,-0.6100914478302002,0.0810827016830444,9.968254089355469,2.618082284927368,0.845167338848114,0.124741330742836
2829638135.0,-0.6413727402687073,-0.0135342227295041,9.917128562927246,2.539958953857422,0.9573577642440796,-0.0053917965851724
2829646468.0,-0.7209450602531433,0.1881900131702423,9.88742733001709,2.8035032749176025,0.5882052183151245,0.1122671961784362
2829654801.0,-0.6564209461212158,0.3752846419811249,9.868074417114258,2.9404120445251465,0.6561598777770996,0.0226942133158445
2829663134.0,-0.5256313681602478,0.2198317646980285,9.95584201812744,2.894843816757202,0.1735364347696304,0.0721040666103363
2829671467.0,-0.4393306374549866,0.0332890637218952,9.91714859008789,2.624998092651367,0.2255589663982391,0.0827595964074134
2829679800.0,-0.511788547039032,0.0749139934778213,9.782929420471191,2.4690332412719727,0.7584887742996216,0.1657241135835647
2829688133.0,-0.617560863494873,0.2410749644041061,9.787347793579102,2.68365478515625,1.1721587181091309,0.0976414605975151
2829696466.0,-0.6423421502113342,0.2421313375234604,9.897448539733888,2.8997366428375244,0.8470371961593628,-0.0339260585606098
2829704799.0,-0.6103835701942444,0.1252288818359375,9.933324813842772,2.743592023849488,0.5411263108253479,-0.0213750787079334
2829713132.0,-0.6598616242408752,0.1405135989189148,9.977651596069336,2.6763033866882324,0.5739381909370422,0.0822985395789146
2829721465.0,-0.7005289196968079,0.2563136219978332,9.98446273803711,2.597667932510376,0.7903528213500977,0.073256716132164
2829729798.0,-0.6114938259124756,0.2305827289819717,9.883417129516602,2.5218751430511475,0.4236594438552856,0.0297893565148115
2829738131.0,-0.4964207410812378,0.0568553619086742,9.855178833007812,2.587473154067993,0.2256358116865158,0.0152660831809043
2829746464.0,-0.4302362203598022,0.0321526452898979,9.791304588317873,2.761265754699707,0.446225643157959,0.0432880595326423
2829754797.0,-0.5444771647453308,0.2129686623811721,9.809608459472656,2.7649028301239014,0.7355639338493347,0.0640355870127677
2829763130.0,-0.6106863021850586,0.2784801721572876,9.912840843200684,2.7161848545074463,0.8209874629974365,0.0759462118148803
2829771463.0,-0.6014824509620667,0.1071415171027183,9.965876579284668,2.6260225772857666,0.8273398280143738,0.1579373776912689
2829779796.0,-0.6301764845848083,-0.0465198718011379,9.944998741149902,2.54487681388855,0.7922483682632446,0.0529958568513393
2829788129.0,-0.688891589641571,0.1029364317655563,9.85731029510498,2.7530438899993896,0.6927370429039001,0.1945401281118393
2829796462.0,-0.6804165840148926,0.3413383364677429,9.92480182647705,2.898711919784546,0.5132068395614624,0.1747402995824813
2829804795.0,-0.5637462139129639,0.2705442309379577,9.924461364746094,2.92371153831482,0.2079876065254211,0.0643685832619667
2829813128.0,-0.438851922750473,0.0408273600041866,9.9475679397583,2.665186882019043,0.2588318586349487,0.1193623468279838
2829821461.0,-0.47481569647789,0.0125805018469691,9.777761459350586,2.49316143989563,0.8185796737670898,0.1406221538782119
2829829794.0,-0.6000401973724365,0.1756220757961273,9.772626876831056,2.5585289001464844,1.0642458200454712,0.1068625897169113
2829838127.0,-0.6469867825508118,0.2592951655387878,9.813589096069336,2.824968338012696,1.0277198553085327,0.1987664550542831
2829846460.0,-0.603018581867218,0.1353680342435836,9.953336715698242,2.842514038085937,0.783334493637085,0.0188776887953281
2829854793.0,-0.6552354097366333,0.0978784337639808,10.010614395141602,2.737034559249878,0.8109723329544067,0.1254841387271881
2829863126.0,-0.6976931691169739,0.2081659287214279,9.995326042175291,2.487962007522583,0.7792363166809082,-0.0125893978402018
2829871459.0,-0.6526217460632324,0.2327173352241516,9.890570640563965,2.4631927013397217,0.5351837873458862,0.0896754264831543
2829879792.0,-0.5207575559616089,0.0941629782319068,9.874655723571776,2.6450796127319336,0.2915412187576294,0.0236419383436441
2829888125.0,-0.460857093334198,-1.7647515051e-05,9.78702163696289,2.802555799484253,0.3255825340747833,0.0725651159882545
2829896458.0,-0.5376752018928528,0.1803427785634994,9.772798538208008,2.871791124343872,0.6207866072654724,0.0334265790879726
2829904791.0,-0.6056713461875916,0.2965410053730011,9.86729621887207,2.778683423995972,0.8257005214691162,-0.0345151796936988
2829913124.0,-0.6125181317329407,0.1530426889657974,9.944875717163086,2.6124467849731445,0.8804892897605896,0.0965656638145446
2829921457.0,-0.6148090958595276,-0.0470542907714843,9.947052001953123,2.5327868461608887,0.8226011991500854,0.0103481505066156
2829929790.0,-0.6640961766242981,0.036506712436676,9.840392112731934,2.696974039077759,0.7621259689331055,0.0647527873516082
2829938123.0,-0.6951907873153687,0.317007303237915,9.861808776855469,2.9382598400115967,0.5770886540412903,-0.0254221279174089
2829946456.0,-0.5710983276367188,0.3747600018978119,9.908896446228027,2.947173833847046,0.2345751672983169,0.063292771577835
2829954789.0,-0.4340515732765198,0.1313549429178238,9.957693099975586,2.692286729812622,0.1841151118278503,0.0379346832633018
2829963122.0,-0.4827724099159241,-0.0026592200156301,9.844427108764648,2.5142931938171387,0.549809455871582,0.0745886489748954
2829971455.0,-0.5934000015258789,0.1524585485458374,9.756908416748049,2.513832330703736,1.0714434385299685,0.0897266715764999
2829979788.0,-0.662236213684082,0.2712504267692566,9.788902282714844,2.714570999145508,1.1474665403366089,0.1045316904783248
2829988121.0,-0.6461471319198608,0.1843680441379547,9.929920196533203,2.866796493530273,0.7156617045402527,-0.015611876733601
2829996454.0,-0.661597728729248,0.1114433482289314,9.985492706298828,2.8309876918792725,0.5758336186408997,0.0861150547862052
2830004787.0,-0.7091578841209412,0.2075514048337936,9.999025344848633,2.709576368331909,0.7221421599388123,0.058887131512165
2830013120.0,-0.6853952407836914,0.2739768624305725,9.932449340820312,2.4825830459594727,0.5484263896942139,-0.046374574303627
2830021453.0,-0.5140679478645325,0.1412104815244674,9.867053985595703,2.580096244812012,0.2037612497806549,0.1020471155643463
2830029786.0,-0.428832083940506,0.0018177353776991,9.817127227783203,2.776762723922729,0.3014795780181885,0.1441569179296493
2830038119.0,-0.4592078328132629,0.087369792163372,9.763023376464844,2.757141828536988,0.6346439123153687,0.006941458210349
2830046452.0,-0.5814683437347412,0.2867631912231445,9.848319053649902,2.810778379440308,0.8132264018058777,0.0602959021925926
2830054785.0,-0.627644956111908,0.2179399132728576,9.965843200683594,2.7311177253723145,0.786510705947876,-0.0142030930146574
2830063118.0,-0.6206851601600647,-0.0199865885078907,9.980583190917969,2.544262170791626,0.899136483669281,-0.0042647700756788
2830071451.0,-0.6636615991592407,-0.0201778914779424,9.898038864135742,2.564189910888672,0.696092426776886,0.0099127078428864
2830079784.0,-0.6942307353019714,0.2186540365219116,9.866484642028809,2.854808568954468,0.8067202568054199,0.0095284944400191
2830088117.0,-0.6087696552276611,0.3622069358825683,9.918745994567873,3.02911376953125,0.3266327381134033,0.049025647342205
2830096450.0,-0.476454347372055,0.1691436171531677,9.95598602294922,2.8287594318389893,0.1472050100564956,-0.0164059177041053
2830104783.0,-0.4109728932380676,0.0014589159982278,9.89216423034668,2.6007156372070312,0.429038405418396,0.1529169678688049
2830113116.0,-0.5308374166488647,0.0644329264760017,9.788490295410156,2.44756817817688,1.0083812475204468,0.1170314475893974
2830121449.0,-0.6465414762496948,0.2317605465650558,9.772786140441896,2.6653401851654053,1.067780613899231,0.0429294556379318
2830129782.0,-0.6527907252311707,0.2170624136924743,9.902765274047852,2.79097843170166,0.7040841579437256,0.0568892210721969
2830138115.0,-0.6212236881256104,0.1275095492601394,9.961016654968262,2.900684356689453,0.6960156559944153,0.1305813789367675
2830146448.0,-0.6981893181800842,0.1542381048202514,9.989079475402832,2.735548973083496,0.6831316351890564,0.0812739729881286
2830154781.0,-0.6956117749214172,0.2673670351505279,9.962995529174805,2.446620464324951,0.6445309519767761,0.1896477937698364
2830163114.0,-0.5888500213623047,0.228323757648468,9.861527442932127,2.529175281524658,0.2864440083503723,0.0301735717803239
2830171447.0,-0.4597891569137573,0.0156583432108163,9.82135772705078,2.6272518634796143,0.2933854758739471,-0.0736025050282478
2830179780.0,-0.4743743240833282,0.0315295867621898,9.785699844360352,2.771101951599121,0.6140500903129578,0.0713356509804725
2830188113.0,-0.5753138661384583,0.2475750297307968,9.813909530639648,2.838620901107788,0.860894501209259,0.1146237179636955
2830196446.0,-0.650509238243103,0.3185504376888275,9.909161567687988,2.742490530014038,0.95374596118927,0.0314030535519123
2830204779.0,-0.6366626024246216,0.1207209751009941,9.98899269104004,2.615187644958496,0.8676565289497375,0.0581187009811401
2830213112.0,-0.6483641266822815,-0.0490444563329219,9.93584156036377,2.440524339675904,0.7899430394172668,0.1169033721089363
2830221445.0,-0.7002242207527161,0.1324003189802169,9.869546890258787,2.696846008300781,0.7423005104064941,0.0812483578920364
2830229778.0,-0.6786989569664001,0.3444507420063019,9.881546020507812,2.97025203704834,0.3348548710346222,0.0520481206476688
2830238111.0,-0.5448617339134216,0.2820746898651123,9.920372009277344,2.947096824645996,0.1195160150527954,0.1193879321217536
2830246444.0,-0.4395469129085541,0.023591049015522,9.914422035217283,2.6633169651031494,0.2738673985004425,0.0888301655650138
2830254777.0,-0.4962581098079681,0.0280532538890838,9.824841499328612,2.4064574241638184,0.6447615027427673,0.1759697794914245
2830263110.0,-0.6113013625144958,0.2164762765169143,9.74889850616455,2.654198408126831,1.087401032447815,0.0541484914720058
2830271443.0,-0.641566276550293,0.2723008394241333,9.836650848388672,2.7611122131347656,1.0040267705917358,0.0521249733865261
2830279776.0,-0.6087872982025146,0.1425130367279052,9.980269432067873,2.8407979011535645,0.6661750674247742,0.0886764898896217
2830288109.0,-0.6317582130432129,0.1033594757318496,9.991064071655272,2.6906216144561768,0.5831335783004761,0.1946169286966323
2830296442.0,-0.6988752484321594,0.2085970938205719,9.944801330566406,2.5625760555267334,0.7553125023841858,0.1306838244199752
2830304775.0,-0.6632210612297058,0.2528280615806579,9.88607406616211,2.3939573764801025,0.5356704592704773,0.0359367690980434
2830313108.0,-0.5147871971130371,0.0880889743566513,9.854374885559082,2.663291454315185,0.1718459129333496,0.0410340055823326
2830321441.0,-0.4354726672172546,-0.002136826980859,9.828020095825195,2.691133975982666,0.3271194398403168,0.0235394816845655
2830329774.0,-0.4830003976821899,0.1471424996852874,9.776277542114258,2.86897349357605,0.6397411227226257,0.1003053486347198
2830338107.0,-0.5918106436729431,0.3111239373683929,9.84993839263916,2.6718978881835938,0.8819494247436523,0.0199278760701417
2830346440.0,-0.5851984024047852,0.1872434467077255,9.95218563079834,2.477818727493286,0.8811296224594116,0.0988197103142738
2830354773.0,-0.6040139198303223,-0.051568865776062,10.005484580993652,2.5325307846069336,0.8285180926322937,-0.0081325201317667
2830363106.0,-0.6482532620429993,0.0090937353670597,9.874377250671388,2.5320184230804443,0.7787240147590637,0.0587846711277961
2830371439.0,-0.7097559571266174,0.2735870778560638,9.859667778015137,2.860982179641724,0.6322361826896667,0.0240773800760507
2830379772.0,-0.6131941080093384,0.3504883944988251,9.90337085723877,2.939617872238159,0.2630325853824615,-0.0126918535679578
2830388105.0,-0.4794747829437256,0.1119208335876464,9.94117832183838,2.7458975315093994,0.1308887600898742,0.103814497590065
2830396438.0,-0.4479579925537109,-0.0139493867754936,9.886958122253418,2.579660654067993,0.4061136841773987,0.1966148465871811
2830404771.0,-0.5823392868041992,0.0919395089149475,9.76012134552002,2.4623477458953857,1.028334617614746,0.0591432750225067
2830413104.0,-0.6487879753112793,0.2405456155538559,9.811579704284668,2.7393910884857178,1.2153186798095703,0.1235630735754966
2830421437.0,-0.6351835131645203,0.1995358169078827,9.93342399597168,2.9530906677246094,0.7581300735473633,0.0889838486909866
2830429770.0,-0.6112726330757141,0.0897878482937812,10.007119178771973,2.835444688796997,0.5962737798690796,0.0283549595624208
2830438103.0,-0.6667852401733398,0.1791791766881942,10.002642631530762,2.662907123565674,0.7129722237586975,0.0826571360230445
2830446436.0,-0.6848815083503723,0.2584432065486908,9.908354759216309,2.5276126861572266,0.5805466771125793,0.1420053243637085
2830454769.0,-0.565281093120575,0.178281769156456,9.861572265625,2.650407314300537,0.3547828197479248,0.091673344373703
2830463102.0,-0.4655251204967499,0.0172163061797618,9.851582527160645,2.6383941173553467,0.1927471160888672,0.0749216377735138
2830471435.0,-0.4972025752067566,0.0716361701488494,9.777704238891602,2.810034990310669,0.6255764365196228,0.1028667688369751
2830479768.0,-0.6048880219459534,0.2828202247619629,9.861719131469728,2.8176939487457275,0.9621219038963318,0.1073492616415023
2830488101.0,-0.634621798992157,0.2928818464279175,9.95871639251709,2.6241273880004883,0.997008502483368,0.066648244857788
2830496434.0,-0.6277689337730408,0.0568887516856193,10.025126457214355,2.597718954086304,0.92741459608078,0.0591432750225067
2830504767.0,-0.6345754861831665,-0.0430978909134864,9.920907974243164,2.491445302963257,0.7582069039344788,-0.0164059158414602
2830513100.0,-0.6673325896263123,0.2020104378461837,9.82486343383789,2.741261005401612,0.7010103464126587,0.0808129012584686
2830521433.0,-0.6220524907112122,0.3888403475284576,9.87049388885498,2.903373956680298,0.5018340945243835,0.1049415320158004
2830529766.0,-0.4982197880744934,0.276960015296936,9.917644500732422,2.853579521179199,0.1932337880134582,0.0157527551054954
2830538099.0,-0.4461650848388672,0.0362518392503261,9.925047874450684,2.545593976974488,0.3119557797908783,0.0858076885342598
2830546432.0,-0.553536057472229,0.0521748550236225,9.78989315032959,2.503484010696411,0.9814606308937072,0.1436958611011505
2830554765.0,-0.6518099308013916,0.2373638600111007,9.767144203186035,2.514882326126098,1.0861972570419312,0.0016393109690397
2830563098.0,-0.6556143164634705,0.2745068073272705,9.86306095123291,2.812596559524536,0.773729145526886,-0.0272407382726669
2830571431.0,-0.6297792792320251,0.124472476541996,9.985523223876951,2.962158203125,0.6075952053070068,0.0171615369617939
2830579764.0,-0.6399036049842834,0.1250210106372833,9.97268295288086,2.7363433837890625,0.6900475025177002,0.0539691895246505
2830588097.0,-0.660999596118927,0.2556484937667846,9.90572738647461,2.512782096862793,0.6510882377624512,0.0398557484149932
2830596430.0,-0.6014991998672485,0.2559227645397186,9.887638092041016,2.4834792613983154,0.4457132816314697,0.1132917627692222
2830604763.0,-0.4495722949504852,0.0581079572439193,9.84897518157959,2.6075806617736816,0.2964335680007934,0.0488207340240478
