Lat_GNSS,Long_GNSS,Height_GNSS,Acc_X,Acc_Y,Acc_Z,Gyro_X,Gyro_Y,Gyro_Z,Magn_X,Magn_Y,Magn_Z
32.7588732,35.0228385,477.49,-0.08175,0.039,1.00025,1.04,0.86,0.06,28770.0,14090.0,-33690.0
32.7588732,35.0228385,477.49,-0.08075,0.036,1.00475,-0.04,-0.06,0.08,28740.0,14060.0,-33690.0
32.7588732,35.0228385,477.49,-0.0735,0.05975,0.98025,-0.5,-0.72,-0.1,28730.0,14030.0,-33680.0
32.7588732,35.0228385,477.49,-0.06275,0.05075,0.98125,0.1,-0.86,-0.12,28730.0,14020.0,-33680.0
32.7588732,35.0228385,477.49,-0.05675,0.0285,1.00075,0.24,-0.38,-0.08,28750.0,14070.0,-33690.0
32.7588732,35.0228385,477.49,-0.06225,0.04075,0.9935,-0.22,0.02,0.06,28760.0,14110.0,-33690.0
32.7588732,35.0228385,477.49,-0.07475,0.05225,0.9935,-0.14,0.52,0.08,28750.0,14080.0,-33690.0
32.7588732,35.0228385,477.49,-0.07925,0.02975,0.997,-0.06,0.44,0.06,28750.0,14060.0,-33690.0
32.7588732,35.0228385,477.49,-0.0745,0.017,0.9995,-0.28,-0.1,0.06,28710.0,14060.0,-33690.0
32.7588732,35.0228386,477.49,-0.0705,0.04175,0.99225,-0.12,-0.62,0.0,28780.0,14200.0,-33700.0
32.7588732,35.0228386,477.49,-0.06575,0.05075,0.9885,0.44,-0.46,-0.14,28790.0,14190.0,-33700.0
32.7588732,35.0228386,477.49,-0.05725,0.02475,1.00475,0.04,-0.24,-0.04,28770.0,14120.0,-33690.0
32.7588732,35.0228386,477.49,-0.06025,0.0175,1.00775,-0.58,0.2,-0.02,28760.0,14060.0,-33690.0
32.7588732,35.0228386,477.49,-0.07125,0.048,0.9845,-0.12,0.5,0.04,28750.0,14010.0,-33680.0
32.7588732,35.0228386,477.49,-0.07525,0.046,0.99475,0.74,0.64,-0.02,28720.0,14000.0,-33690.0
32.7588732,35.0228386,477.49,-0.07325,0.01175,1.021,-0.02,0.06,0.08,28650.0,13950.0,-33690.0
32.7588732,35.0228386,477.49,-0.07025,0.01475,1.00025,-0.92,-0.38,-0.06,28690.0,13970.0,-33690.0
32.7588732,35.0228386,477.49,-0.07225,0.0335,0.99225,-0.16,-0.14,-0.06,28690.0,13930.0,-33680.0
32.7588732,35.0228386,477.49,-0.062,0.011,0.9985,0.7,-0.16,0.06,28700.0,13970.0,-33680.0
32.7588732,35.0228386,477.49,-0.05925,0.0,1.02575,0.26,-0.12,0.08,28700.0,14030.0,-33690.0
32.7588732,35.0228386,477.49,-0.06775,0.03025,0.98825,-0.3,-0.08,0.0,28680.0,13990.0,-33690.0
32.7588732,35.0228386,477.49,-0.074,0.035,0.99875,0.22,0.44,0.02,28640.0,13970.0,-33690.0
32.7588732,35.0228386,477.49,-0.073,0.00425,1.006,0.32,0.32,0.14,28670.0,14020.0,-33690.0
32.7588732,35.0228386,477.49,-0.073,0.016,0.99325,0.0,0.06,0.02,28650.0,13970.0,-33690.0
32.7588732,35.0228386,477.49,-0.07525,0.056,0.97775,0.32,-0.26,0.08,28650.0,13980.0,-33690.0
32.7588732,35.0228386,477.49,-0.06975,0.0475,0.99075,0.64,-0.18,-0.04,28690.0,14020.0,-33690.0
32.7588732,35.0228386,477.49,-0.06675,0.01975,0.996,-0.24,-0.1,0.0,28720.0,13990.0,-33690.0
32.7588732,35.0228386,477.49,-0.0685,0.036,0.986,-0.7,-0.06,0.04,28700.0,13960.0,-33690.0
32.7588732,35.0228386,477.49,-0.07475,0.0495,0.976,0.18,0.3,0.02,28680.0,13970.0,-33690.0
32.7588732,35.0228385,477.49,-0.07325,0.0255,0.9935,0.58,0.2,0.0,28730.0,14070.0,-33690.0
32.7588732,35.0228385,477.49,-0.07125,0.01425,1.0105,-0.32,-0.08,0.1,28710.0,14020.0,-33690.0
32.7588732,35.0228385,477.49,-0.0725,0.0355,0.97675,-0.46,-0.22,-0.02,28700.0,13960.0,-33690.0
32.7588732,35.0228385,477.49,-0.066,0.02975,0.9935,0.32,-0.14,-0.1,28750.0,14010.0,-33690.0
32.7588732,35.0228385,477.49,-0.061,0.0115,1.00725,0.58,-0.2,0.0,28700.0,14020.0,-33690.0
32.7588732,35.0228385,477.49,-0.06175,0.0225,0.999,0.08,-0.06,0.02,28720.0,14000.0,-33690.0
32.7588732,35.0228385,477.49,-0.06775,0.037,1.00275,0.16,0.26,0.02,28730.0,13950.0,-33680.0
32.7588732,35.0228385,477.49,-0.0695,0.0265,1.00325,0.52,0.38,0.0,28720.0,13950.0,-33680.0
32.7588732,35.0228385,477.49,-0.07225,0.0255,0.996,0.38,0.2,0.06,28700.0,13910.0,-33680.0
32.7588732,35.0228385,477.49,-0.07025,0.05475,0.9955,0.34,-0.08,0.0,28700.0,13970.0,-33680.0
32.7588732,35.0228385,477.49,-0.0695,0.0655,0.9945,0.56,-0.14,0.0,28720.0,14020.0,-33690.0
32.7588732,35.0228385,477.49,-0.0665,0.04075,0.996,0.08,-0.16,0.0,28770.0,14030.0,-33690.0
32.7588732,35.0228385,477.49,-0.065,0.0345,1.00525,-0.6,-0.06,0.08,28750.0,14000.0,-33680.0
32.7588732,35.0228385,477.49,-0.06725,0.056,0.9845,-0.08,0.04,0.08,28740.0,13900.0,-33680.0
32.7588732,35.0228385,477.49,-0.07025,0.049,0.996,0.6,0.16,-0.02,28770.0,13630.0,-33670.0
32.7588732,35.0228385,477.49,-0.06975,0.024,1.01525,-0.02,0.0,0.1,28820.0,13500.0,-33660.0
32.7588732,35.0228385,477.49,-0.06925,0.0265,1.00275,-0.76,-0.04,0.02,28830.0,13500.0,-33670.0
32.7588732,35.0228385,477.49,-0.0715,0.03425,0.994,-0.2,-0.02,0.04,28840.0,13430.0,-33660.0
32.7588732,35.0228385,477.49,-0.066,0.0165,1.0055,0.6,0.0,0.0,28850.0,13370.0,-33660.0
32.7588732,35.0228385,477.49,-0.06025,0.01175,1.01075,0.3,-0.22,0.02,28860.0,13520.0,-33660.0
32.7588732,35.0228385,477.49,-0.0635,0.033,0.99825,-0.04,-0.12,0.0,28900.0,13880.0,-33680.0
32.7588732,35.0228385,477.49,-0.0695,0.02825,1.0065,0.38,0.4,-0.02,28910.0,14100.0,-33690.0
32.7588732,35.0228385,477.49,-0.07325,0.00375,1.00625,0.38,0.48,0.04,28910.0,14170.0,-33690.0
32.7588732,35.0228385,477.49,-0.075,0.01175,1.007,0.26,0.3,0.14,28820.0,14120.0,-33690.0
32.7588732,35.0228385,477.49,-0.07575,0.035,0.995,0.64,-0.02,0.0,28800.0,14110.0,-33690.0
32.7588732,35.0228385,477.49,-0.07,0.02225,1.0045,0.9,-0.12,-0.02,28770.0,14060.0,-33680.0
32.7588732,35.0228385,477.49,-0.06625,0.00475,1.01525,0.24,-0.18,0.02,28810.0,14070.0,-33680.0
32.7588732,35.0228385,477.49,-0.069,0.0185,0.99575,0.06,0.16,0.04,28800.0,14020.0,-33680.0
32.7588732,35.0228385,477.49,-0.0745,0.02925,0.99575,0.82,0.5,0.06,28800.0,14050.0,-33680.0
32.7588732,35.0228385,477.49,-0.0775,0.0135,1.0105,1.08,0.5,0.12,28750.0,14050.0,-33680.0
32.7588732,35.0228385,477.49,-0.083,0.00975,1.013,0.4,0.22,0.16,28790.0,14140.0,-33690.0
32.7588732,35.0228385,477.49,-0.0845,0.019,0.99625,0.2,0.18,0.06,28820.0,14080.0,-33680.0
32.7588732,35.0228385,477.49,-0.077,0.01225,1.0,0.84,-0.08,0.08,28800.0,14080.0,-33680.0
32.7588732,35.0228385,477.49,-0.07025,0.0075,1.00275,1.06,-0.2,0.1,28790.0,14060.0,-33680.0
32.7588732,35.0228385,477.49,-0.06975,0.02075,1.00625,0.84,-0.18,0.16,28800.0,14070.0,-33680.0
32.7588732,35.0228385,477.49,-0.07375,0.0245,1.00425,0.64,0.42,0.06,28810.0,14110.0,-33680.0
32.7588732,35.0228385,477.49,-0.07525,0.00925,1.00725,0.74,0.48,0.18,28850.0,14080.0,-33680.0
32.7588732,35.0228385,477.49,-0.07925,0.014,1.0005,0.94,0.4,0.2,28860.0,14140.0,-33680.0
32.7588732,35.0228385,477.49,-0.07975,0.03775,0.9935,1.3,0.06,0.22,28810.0,14150.0,-33690.0
32.7588732,35.0228385,477.49,-0.075,0.0405,1.00325,1.44,-0.08,0.06,28820.0,14150.0,-33690.0
32.7588732,35.0228386,477.49,-0.0685,0.02225,1.0075,0.9,-0.16,0.0,28930.0,14240.0,-33690.0
32.7588732,35.0228386,477.49,-0.06925,0.02325,1.0025,0.46,0.1,0.06,28900.0,14210.0,-33690.0
32.7588732,35.0228386,477.49,-0.07275,0.0435,0.987,1.24,0.36,0.1,28880.0,14130.0,-33680.0
32.7588732,35.0228386,477.49,-0.07275,0.04425,1.002,1.88,0.46,0.08,28850.0,14060.0,-33680.0
32.7588732,35.0228386,477.49,-0.07575,0.0375,1.00775,1.2,0.2,0.08,28810.0,14020.0,-33680.0
32.7588732,35.0228386,477.49,-0.07875,0.043,0.999,0.32,0.18,0.08,28850.0,14070.0,-33680.0
32.7588732,35.0228386,477.49,-0.07775,0.04575,0.98975,0.68,0.08,0.1,28860.0,14020.0,-33680.0
32.7588732,35.0228386,477.49,-0.07175,0.03975,0.991,1.38,-0.02,0.16,28870.0,14050.0,-33680.0
32.7588732,35.0228386,477.49,-0.068,0.05,0.99875,1.24,-0.24,0.1,28840.0,14000.0,-33670.0
32.7588732,35.0228386,477.49,-0.06875,0.066,0.99125,0.72,-0.12,0.1,28870.0,14010.0,-33670.0
32.7588732,35.0228386,477.49,-0.07,0.0585,0.994,0.56,0.18,0.1,28900.0,14040.0,-33670.0
32.7588732,35.0228386,477.49,-0.0725,0.04625,0.9915,0.46,0.24,0.16,28850.0,14010.0,-33670.0
32.7588732,35.0228386,477.49,-0.07625,0.0585,0.9855,0.6,0.18,0.14,28840.0,13980.0,-33670.0
32.7588732,35.0228386,477.49,-0.07375,0.07425,0.983,0.84,-0.08,0.1,28870.0,13970.0,-33670.0
32.7588732,35.0228386,477.49,-0.06425,0.06175,0.9925,0.6,-0.24,0.06,28870.0,14000.0,-33670.0
32.7588732,35.0228386,477.49,-0.0605,0.0525,0.991,-0.16,-0.46,0.08,28910.0,14060.0,-33680.0
32.7588732,35.0228386,477.49,-0.06225,0.0665,0.97825,-0.12,0.02,0.0,28950.0,14120.0,-33680.0
32.7588732,35.0228386,477.49,-0.0645,0.07175,0.98125,0.68,0.22,0.06,28930.0,14130.0,-33680.0
32.7588732,35.0228386,477.49,-0.065,0.05925,0.992,0.52,0.2,0.08,28940.0,14020.0,-33670.0
32.7588732,35.0228386,477.49,-0.07,0.0585,0.993,-0.42,-0.02,0.08,28950.0,13990.0,-33670.0
32.7588732,35.0228386,477.5,-0.0695,0.0655,0.9765,-0.48,-0.1,-0.08,28970.0,14110.0,-33680.0
32.7588732,35.0228386,477.5,-0.06125,0.05875,0.981,0.2,-0.3,-0.02,28950.0,14090.0,-33680.0
32.7588732,35.0228386,477.5,-0.054,0.055,0.984,0.2,-0.58,-0.04,28920.0,14020.0,-33680.0
32.7588732,35.0228386,477.5,-0.0565,0.06425,0.985,-0.36,-0.3,-0.08,28900.0,13980.0,-33670.0
32.7588732,35.0228386,477.5,-0.061,0.06075,0.9825,-0.5,0.2,-0.1,28840.0,13920.0,-33670.0
32.7588732,35.0228386,477.5,-0.06375,0.04025,0.9875,-0.52,0.4,0.0,28820.0,13910.0,-33670.0
32.7588732,35.0228386,477.5,-0.07025,0.0415,0.9835,-0.4,0.12,0.02,28810.0,13900.0,-33670.0
32.7588732,35.0228386,477.5,-0.06975,0.0595,0.977,-0.22,-0.16,-0.08,28840.0,13930.0,-33670.0
32.7588732,35.0228386,477.5,-0.06,0.05325,0.98575,-0.2,-0.42,-0.14,28860.0,13910.0,-33670.0
32.7588732,35.0228386,477.5,-0.05025,0.03125,0.992,-0.82,-0.74,-0.04,28860.0,13970.0,-33680.0
32.7588732,35.0228386,477.5,-0.055,0.03125,0.988,-1.14,-0.3,-0.16,28860.0,13990.0,-33680.0
32.7588732,35.0228386,477.5,-0.06375,0.04,0.97725,-0.46,0.44,-0.06,28840.0,13910.0,-33670.0
32.7588732,35.0228386,477.5,-0.064,0.0305,0.9965,0.08,0.56,0.12,28840.0,13850.0,-33670.0
32.7588732,35.0228386,477.5,-0.0705,0.0225,0.9965,-0.5,0.14,0.04,28800.0,13850.0,-33670.0
32.7588732,35.0228386,477.5,-0.07375,0.028,0.98675,-1.08,-0.14,-0.1,28800.0,13830.0,-33670.0
32.7588732,35.0228386,477.5,-0.0655,0.025,0.98775,-0.48,-0.32,-0.04,28800.0,13870.0,-33670.0
32.7588732,35.0228386,477.5,-0.05525,0.012,0.99325,0.0,-0.48,-0.02,28830.0,13950.0,-33670.0
32.7588732,35.0228386,477.5,-0.0575,0.0175,0.9955,-0.28,-0.3,-0.04,28860.0,13990.0,-33680.0
32.7588732,35.0228386,477.5,-0.064,0.03175,0.996,-0.28,0.36,-0.04,28850.0,13960.0,-33680.0
32.7588732,35.0228386,477.5,-0.0685,0.0195,0.99425,-0.12,0.48,0.06,28810.0,13940.0,-33680.0
32.7588732,35.0228386,477.5,-0.07425,0.008,0.99875,-0.3,0.38,0.06,28860.0,14050.0,-33680.0
32.7588732,35.0228386,477.5,-0.07525,0.0245,0.9925,-0.1,0.04,0.04,28890.0,14100.0,-33690.0
32.7588732,35.0228386,477.5,-0.0705,0.038,0.9875,0.32,-0.3,-0.02,28850.0,14030.0,-33680.0
32.7588732,35.0228386,477.5,-0.0645,0.01925,1.0065,0.06,-0.4,-0.02,28840.0,13980.0,-33680.0
32.7588732,35.0228386,477.5,-0.06375,0.011,1.00025,-0.52,-0.08,-0.04,28800.0,13920.0,-33670.0
32.7588732,35.0228386,477.5,-0.06725,0.0305,0.9895,-0.28,0.14,-0.04,28780.0,13900.0,-33670.0
32.7588732,35.0228386,477.5,-0.0735,0.0365,0.9945,0.64,0.46,0.0,28830.0,13900.0,-33670.0
32.7588732,35.0228386,477.5,-0.07575,0.0225,1.006,0.34,0.3,0.08,28890.0,13950.0,-33670.0
32.7588732,35.0228386,477.5,-0.07875,0.0235,1.00175,-0.54,-0.06,0.0,28860.0,13950.0,-33670.0
32.7588732,35.0228386,477.5,-0.078,0.03325,0.99225,-0.38,-0.14,-0.14,28830.0,13930.0,-33670.0
32.7588732,35.0228386,477.5,-0.071,0.023,0.994,0.46,-0.1,-0.08,28860.0,14020.0,-33680.0
32.7588732,35.0228386,477.5,-0.06375,0.021,1.002,0.5,-0.32,0.0,28830.0,13970.0,-33680.0
32.7588732,35.0228386,477.5,-0.067,0.04125,1.0005,0.04,-0.08,-0.08,28820.0,13910.0,-33670.0
32.7588732,35.0228386,477.5,-0.073,0.043,0.9955,0.06,0.28,-0.02,28840.0,13910.0,-33670.0
32.7588732,35.0228386,477.5,-0.0735,0.0215,1.00625,0.06,0.44,0.08,28830.0,13880.0,-33670.0
32.7588732,35.0228386,477.5,-0.078,0.02625,0.9975,0.04,0.06,0.08,28830.0,13980.0,-33670.0
32.7588732,35.0228386,477.5,-0.078,0.0555,0.98325,0.54,-0.14,0.0,28900.0,14080.0,-33680.0
32.7588732,35.0228386,477.5,-0.0695,0.05175,0.99825,0.58,-0.34,-0.04,28920.0,14100.0,-33680.0
32.7588732,35.0228386,477.5,-0.0615,0.0295,1.01025,-0.02,-0.4,0.0,28920.0,14110.0,-33680.0
32.7588732,35.0228386,477.5,-0.067,0.04225,0.98625,-0.48,-0.14,0.0,28950.0,14160.0,-33680.0
32.7588732,35.0228386,477.51,-0.0705,0.06,0.985,0.42,0.38,0.0,28980.0,14200.0,-33680.0
32.7588732,35.0228386,477.51,-0.07225,0.047,1.004,0.82,0.36,0.12,28940.0,14130.0,-33680.0
32.7588732,35.0228386,477.51,-0.074,0.03725,1.002,-0.08,0.02,0.16,28900.0,14040.0,-33670.0
32.7588732,35.0228386,477.51,-0.077,0.0505,0.99125,-0.7,-0.22,-0.02,28900.0,14040.0,-33670.0
32.7588732,35.0228386,477.51,-0.06975,0.05075,0.984,0.08,-0.34,0.04,28900.0,14020.0,-33670.0
32.7588732,35.0228386,477.51,-0.05875,0.03575,0.99875,0.42,-0.36,0.02,28940.0,14080.0,-33670.0
32.7588732,35.0228386,477.51,-0.059,0.04125,1.0005,-0.02,-0.34,-0.02,28940.0,14010.0,-33670.0
32.7588732,35.0228386,477.51,-0.0665,0.05675,0.991,-0.3,0.14,-0.02,28890.0,14030.0,-33670.0
32.7588732,35.0228386,477.51,-0.06925,0.03725,0.998,-0.18,0.54,0.16,28850.0,14060.0,-33680.0
32.7588732,35.0228386,477.51,-0.06975,0.02025,0.99975,-0.18,0.26,-0.02,28870.0,14030.0,-33670.0
32.7588732,35.0228386,477.51,-0.07275,0.0455,0.98675,-0.04,-0.14,0.04,28880.0,14100.0,-33680.0
32.7588732,35.0228386,477.51,-0.068,0.05975,0.9895,0.32,-0.26,-0.04,28880.0,14070.0,-33680.0
32.7588732,35.0228386,477.51,-0.059,0.03,1.008,-0.08,-0.38,-0.08,28860.0,14020.0,-33670.0
32.7588732,35.0228386,477.51,-0.06075,0.0165,0.99875,-0.94,-0.18,-0.04,28800.0,13990.0,-33670.0
32.7588732,35.0228386,477.51,-0.06975,0.0445,0.98625,-0.38,0.38,-0.06,28790.0,13950.0,-33670.0
32.7588732,35.0228386,477.51,-0.0725,0.0455,0.98775,0.84,0.7,0.02,28800.0,13990.0,-33680.0
32.7588732,35.0228386,477.51,-0.07175,0.021,1.01275,0.26,0.18,0.08,28780.0,14030.0,-33680.0
32.7588732,35.0228386,477.51,-0.076,0.0275,0.9995,-0.9,-0.12,-0.06,28800.0,14130.0,-33690.0
32.7588732,35.0228386,477.51,-0.07525,0.045,0.981,-0.56,-0.22,-0.08,28770.0,14100.0,-33690.0
32.7588732,35.0228386,477.51,-0.0645,0.0215,0.996,0.42,-0.2,-0.02,28800.0,14020.0,-33680.0
32.7588732,35.0228386,477.51,-0.05975,0.01225,1.008,0.16,-0.26,-0.06,28890.0,13910.0,-33680.0
32.7588732,35.0228386,477.51,-0.0695,0.04175,0.9915,-0.22,0.18,0.0,28940.0,13840.0,-33680.0
32.7588732,35.0228386,477.51,-0.07425,0.04225,0.99125,-0.02,0.52,0.02,28960.0,13790.0,-33680.0
32.7588732,35.0228386,477.51,-0.074,0.0095,1.00875,-0.02,0.32,0.06,28950.0,13690.0,-33670.0
32.7588732,35.0228386,477.51,-0.077,0.02,0.992,-0.22,-0.12,0.02,28910.0,13530.0,-33660.0
32.7588732,35.0228386,477.51,-0.07675,0.0515,0.987,0.34,-0.24,-0.04,28870.0,13610.0,-33660.0
32.7588732,35.0228386,477.51,-0.067,0.036,0.9985,0.54,-0.32,0.0,28780.0,13760.0,-33670.0
32.7588732,35.0228386,477.51,-0.0615,0.01225,1.009,-0.32,-0.3,-0.04,28750.0,13840.0,-33670.0
32.7588732,35.0228386,477.51,-0.06775,0.036,0.99,-0.44,-0.04,-0.04,28740.0,13910.0,-33680.0
32.7588732,35.0228386,477.51,-0.07175,0.05525,0.9815,0.56,0.46,0.0,28730.0,13980.0,-33680.0
32.7588732,35.0228386,477.51,-0.072,0.03,1.008,0.72,0.38,0.1,28780.0,14090.0,-33690.0
32.7588732,35.0228386,477.51,-0.07425,0.0225,1.00875,-0.4,-0.04,0.02,28760.0,14010.0,-33680.0
32.7588732,35.0228386,477.51,-0.07725,0.0485,0.98375,-0.52,-0.16,-0.04,28740.0,13980.0,-33680.0
32.7588732,35.0228386,477.51,-0.06775,0.04525,0.9835,0.4,-0.3,0.0,28730.0,13960.0,-33680.0
32.7588732,35.0228386,477.51,-0.057,0.02325,1.0085,0.54,-0.44,-0.06,28730.0,13930.0,-33680.0
32.7588732,35.0228386,477.51,-0.06175,0.04075,0.9965,-0.22,-0.32,0.04,28710.0,13930.0,-33680.0
32.7588732,35.0228386,477.51,-0.07025,0.05675,0.98975,-0.12,0.44,0.06,28720.0,13940.0,-33680.0
32.7588732,35.0228386,477.51,-0.07175,0.029,0.99925,0.04,0.62,0.06,28780.0,14000.0,-33680.0
32.7588732,35.0228386,477.51,-0.07225,0.0195,1.002,-0.1,0.22,0.06,28760.0,14000.0,-33680.0
32.7588732,35.0228386,477.51,-0.07525,0.056,0.9845,0.16,-0.26,-0.02,28760.0,13990.0,-33680.0
32.7588732,35.0228386,477.51,-0.06725,0.06,0.98825,0.46,-0.4,-0.04,28790.0,14110.0,-33690.0
32.7588732,35.0228386,477.51,-0.05825,0.02375,1.01075,-0.16,-0.44,-0.04,28790.0,14110.0,-33690.0
32.7588732,35.0228386,477.51,-0.06325,0.029,0.99625,-0.8,-0.12,0.04,28820.0,14010.0,-33680.0
32.7588732,35.0228386,477.51,-0.07275,0.05925,0.98125,0.18,0.58,0.06,28810.0,13950.0,-33680.0
32.7588732,35.0228386,477.51,-0.07375,0.046,0.996,0.8,0.64,0.04,28780.0,13890.0,-33670.0
32.7588732,35.0228386,477.51,-0.07425,0.02475,1.013,-0.02,0.04,0.1,28790.0,13890.0,-33670.0
32.7588732,35.0228386,477.51,-0.078,0.04375,0.99125,-0.88,-0.28,-0.04,28770.0,13880.0,-33670.0
32.7588732,35.0228386,477.51,-0.07025,0.052,0.98025,0.0,-0.36,-0.06,28770.0,13890.0,-33680.0
32.7588732,35.0228386,477.51,-0.059,0.02625,1.001,0.42,-0.32,0.0,28760.0,13870.0,-33670.0
32.7588732,35.0228386,477.51,-0.06075,0.0275,1.00575,-0.1,-0.18,0.0,28800.0,13910.0,-33670.0
32.7588732,35.0228386,477.51,-0.07125,0.0535,0.99025,-0.3,0.34,-0.02,28860.0,14040.0,-33680.0
32.7588732,35.0228386,477.51,-0.07475,0.03825,0.99275,0.0,0.56,0.1,28830.0,14000.0,-33680.0
32.7588732,35.0228386,477.51,-0.07375,0.01075,1.008,-0.16,0.18,-0.02,28830.0,13980.0,-33680.0
32.7588732,35.0228386,477.51,-0.075,0.0365,0.98775,-0.12,-0.28,0.0,28850.0,13940.0,-33670.0
32.7588732,35.0228386,477.51,-0.07125,0.05925,0.98625,0.38,-0.34,0.0,28810.0,13920.0,-33670.0
32.7588732,35.0228386,477.51,-0.061,0.026,1.00525,0.1,-0.42,0.02,28840.0,13970.0,-33680.0
32.7588732,35.0228386,477.51,-0.0615,0.011,1.00625,-0.7,-0.14,-0.02,28850.0,13970.0,-33680.0
32.7588732,35.0228386,477.51,-0.0715,0.045,0.98225,-0.32,0.3,0.02,28860.0,14090.0,-33690.0
32.7588732,35.0228386,477.51,-0.0745,0.04825,0.988,0.76,0.58,0.08,28870.0,14040.0,-33680.0
32.7588732,35.0228386,477.51,-0.07325,0.0185,1.01325,0.36,0.22,0.08,28860.0,14010.0,-33680.0
32.7588732,35.0228386,477.5,-0.075,0.026,0.99875,-0.86,-0.24,-0.04,28890.0,14130.0,-33690.0
32.7588732,35.0228386,477.5,-0.074,0.048,0.981,-0.38,-0.3,-0.04,28890.0,14130.0,-33690.0
32.7588732,35.0228386,477.5,-0.063,0.02825,0.992,0.52,-0.18,0.0,28860.0,14040.0,-33680.0
32.7588732,35.0228386,477.5,-0.05825,0.015,1.009,0.22,-0.24,-0.04,28830.0,13980.0,-33680.0
32.7588732,35.0228386,477.5,-0.068,0.04375,0.991,-0.22,0.04,0.06,28830.0,13940.0,-33670.0
32.7588732,35.0228386,477.5,-0.07375,0.04725,0.991,-0.02,0.54,0.0,28840.0,13940.0,-33670.0
32.7588732,35.0228386,477.5,-0.073,0.01525,1.0025,0.06,0.34,0.04,28820.0,13930.0,-33670.0
32.7588732,35.0228386,477.5,-0.07425,0.02175,0.999,-0.06,-0.08,0.02,28860.0,13970.0,-33670.0
32.7588732,35.0228386,477.5,-0.07325,0.0575,0.9825,0.26,-0.28,0.0,28840.0,13970.0,-33670.0
32.7588732,35.0228386,477.5,-0.0635,0.044,0.998,0.5,-0.36,-0.02,28800.0,14000.0,-33680.0
32.7588732,35.0228386,477.5,-0.05825,0.0135,1.0135,-0.36,-0.28,0.04,28790.0,14090.0,-33690.0
32.7588732,35.0228386,477.5,-0.06475,0.03725,0.98725,-0.6,0.02,0.0,28800.0,14090.0,-33680.0
32.7588732,35.0228386,477.5,-0.072,0.06075,0.98425,0.58,0.6,0.1,28780.0,14020.0,-33680.0
32.7588732,35.0228386,477.5,-0.07175,0.03625,1.00425,0.82,0.42,0.02,28770.0,14010.0,-33680.0
32.7588732,35.0228386,477.5,-0.074,0.023,1.01025,-0.5,-0.08,0.06,28760.0,13960.0,-33680.0
32.7588732,35.0228386,477.5,-0.07725,0.04925,0.98525,-0.74,-0.18,-0.02,28780.0,14020.0,-33680.0
32.7588732,35.0228386,477.5,-0.06875,0.04825,0.98375,0.42,-0.22,-0.04,28780.0,14100.0,-33690.0
32.7588732,35.0228386,477.5,-0.05875,0.023,1.00775,0.58,-0.22,0.02,28790.0,14130.0,-33690.0
32.7588732,35.0228386,477.5,-0.062,0.03675,1.0015,-0.24,-0.14,-0.04,28790.0,14090.0,-33680.0
32.7588732,35.0228386,477.5,-0.07125,0.05925,0.98725,-0.28,0.36,-0.02,28770.0,14070.0,-33680.0
32.7588732,35.0228386,477.5,-0.0725,0.03225,0.9985,0.1,0.5,0.02,28820.0,14170.0,-33690.0
32.7588732,35.0228386,477.5,-0.07325,0.01525,1.0045,-0.12,0.18,0.06,28860.0,14210.0,-33690.0
32.7588732,35.0228386,477.5,-0.07575,0.0505,0.98425,0.02,-0.16,-0.08,28810.0,14150.0,-33690.0
32.7588732,35.0228386,477.5,-0.072,0.05975,0.98875,0.46,-0.16,-0.04,28770.0,14110.0,-33680.0
32.7588732,35.0228386,477.5,-0.06325,0.02175,1.01025,-0.04,-0.26,0.0,28760.0,14040.0,-33680.0
32.7588732,35.0228386,477.5,-0.0635,0.02075,0.99875,-0.8,-0.1,0.0,28790.0,14040.0,-33680.0
32.7588732,35.0228386,477.5,-0.07175,0.056,0.98125,-0.04,0.26,0.02,28820.0,14020.0,-33670.0
32.7588732,35.0228386,477.5,-0.07075,0.04825,0.991,0.86,0.44,0.02,28820.0,14010.0,-33670.0
32.7588732,35.0228386,477.5,-0.07125,0.021,1.01575,0.02,0.08,0.06,28770.0,13990.0,-33670.0
32.7588732,35.0228386,477.5,-0.076,0.033,0.99025,-1.08,-0.1,-0.02,28810.0,14030.0,-33670.0
32.7588732,35.0228386,477.5,-0.07625,0.04925,0.983,-0.22,-0.08,-0.06,28870.0,14100.0,-33680.0
32.7588732,35.0228386,477.5,-0.0665,0.02575,0.99275,0.58,-0.16,0.0,28850.0,14060.0,-33680.0
32.7588732,35.0228386,477.5,-0.06125,0.0195,1.012,0.14,-0.3,0.02,28840.0,14060.0,-33680.0
32.7588732,35.0228386,477.5,-0.066,0.05025,0.98575,-0.4,-0.2,-0.02,28840.0,14050.0,-33680.0
32.7588732,35.0228386,477.5,-0.0685,0.046,0.993,-0.02,0.26,-0.02,28850.0,13990.0,-33670.0
32.7588732,35.0228386,477.5,-0.06875,0.01075,1.00525,-0.06,0.26,0.02,28890.0,14030.0,-33670.0
32.7588732,35.0228386,477.5,-0.0725,0.0225,0.99675,-0.16,0.08,0.06,28910.0,14060.0,-33670.0
32.7588732,35.0228386,477.5,-0.07675,0.0565,0.98175,0.26,-0.06,0.0,28880.0,14070.0,-33680.0
32.7588732,35.0228386,477.5,-0.06825,0.0385,1.0005,0.48,-0.1,-0.02,28850.0,13990.0,-33670.0
32.7588732,35.0228386,477.5,-0.0615,0.01075,1.01075,-0.46,-0.3,0.0,28880.0,14010.0,-33670.0
32.7588732,35.0228386,477.51,-0.06475,0.03825,0.986,-0.54,-0.2,0.04,28940.0,14180.0,-33680.0
32.7588732,35.0228386,477.51,-0.069,0.05575,0.9845,0.52,0.3,0.04,28930.0,14160.0,-33680.0
32.7588732,35.0228386,477.51,-0.068,0.026,1.00725,0.64,0.28,0.1,28890.0,14030.0,-33680.0
32.7588732,35.0228386,477.51,-0.0725,0.0165,1.0115,-0.56,0.14,0.02,28910.0,14020.0,-33670.0
32.7588732,35.0228386,477.51,-0.078,0.04775,0.97975,-0.62,0.04,0.0,28840.0,13970.0,-33670.0
32.7588732,35.0228386,477.51,-0.07025,0.04375,0.98425,0.48,-0.1,0.04,28840.0,13990.0,-33670.0
32.7588732,35.0228386,477.51,-0.0605,0.01825,1.01,0.46,-0.4,-0.02,28850.0,13970.0,-33670.0
32.7588732,35.0228386,477.51,-0.06275,0.034,0.996,-0.38,-0.42,-0.06,28840.0,14000.0,-33680.0
32.7588732,35.0228386,477.51,-0.07025,0.05475,0.98825,-0.16,0.24,0.02,28850.0,13950.0,-33670.0
32.7588732,35.0228386,477.51,-0.07225,0.027,0.99925,0.26,0.54,0.06,28870.0,13940.0,-33670.0
32.7588732,35.0228386,477.51,-0.07325,0.0135,1.00575,0.06,0.28,0.06,28840.0,14000.0,-33680.0
32.7588732,35.0228386,477.51,-0.07675,0.05025,0.9865,0.1,-0.1,0.04,28840.0,13970.0,-33680.0
32.7588732,35.0228386,477.51,-0.07025,0.0615,0.9855,0.54,-0.34,0.0,28830.0,13930.0,-33670.0
32.7588732,35.0228386,477.51,-0.0595,0.02325,1.011,-0.02,-0.46,-0.02,28830.0,13950.0,-33670.0
32.7588732,35.0228386,477.51,-0.062,0.02125,0.99975,-0.72,-0.24,-0.04,28840.0,13920.0,-33670.0
32.7588732,35.0228386,477.51,-0.0725,0.056,0.9785,-0.02,0.36,0.06,28820.0,13920.0,-33670.0
32.7588732,35.0228386,477.51,-0.07575,0.049,0.99575,0.88,0.72,0.08,28820.0,13970.0,-33680.0
32.7588732,35.0228386,477.51,-0.07575,0.02375,1.0125,0.14,0.24,0.08,28830.0,14020.0,-33680.0
32.7588732,35.0228386,477.51,-0.07775,0.03975,0.99325,-0.82,-0.24,-0.06,28810.0,13950.0,-33680.0
32.7588732,35.0228386,477.51,-0.07275,0.0555,0.9815,-0.24,-0.48,0.0,28820.0,13960.0,-33680.0
32.7588732,35.0228386,477.51,-0.05925,0.0305,0.998,0.56,-0.34,0.02,28880.0,14110.0,-33690.0
32.7588732,35.0228386,477.51,-0.056,0.022,1.00825,0.06,-0.28,-0.08,28900.0,14190.0,-33690.0
32.7588732,35.0228386,477.51,-0.06725,0.05225,0.99125,-0.4,0.14,-0.02,28900.0,14160.0,-33690.0
32.7588732,35.0228386,477.51,-0.07425,0.048,0.99025,0.08,0.64,0.06,28890.0,14070.0,-33680.0
32.7588732,35.0228386,477.51,-0.07425,0.01475,1.0075,0.02,0.48,0.0,28880.0,13990.0,-33680.0
32.7588732,35.0228386,477.51,-0.075,0.027,0.99825,-0.32,-0.12,0.02,28870.0,13750.0,-33670.0
32.7588732,35.0228386,477.51,-0.072,0.06225,0.9795,0.18,-0.4,-0.02,28890.0,13550.0,-33660.0
32.7588732,35.0228386,477.51,-0.0615,0.04,1.001,0.42,-0.44,0.0,28920.0,13410.0,-33650.0
32.7588732,35.0228386,477.51,-0.05675,0.01,1.01325,-0.44,-0.22,-0.06,28960.0,13370.0,-33650.0
32.7588732,35.0228386,477.51,-0.0655,0.03725,0.98575,-0.64,0.14,0.0,28940.0,13340.0,-33650.0
32.7588732,35.0228386,477.51,-0.073,0.0595,0.9815,0.56,0.7,0.1,28960.0,13410.0,-33650.0
32.7588732,35.0228386,477.51,-0.074,0.03175,1.008,0.7,0.46,0.12,28890.0,13510.0,-33660.0
32.7588732,35.0228386,477.51,-0.075,0.01825,1.00775,-0.58,-0.16,0.04,28850.0,13690.0,-33660.0
32.7588732,35.0228386,477.51,-0.07675,0.046,0.983,-0.84,-0.32,0.0,28860.0,13750.0,-33660.0
32.7588732,35.0228386,477.51,-0.0675,0.04225,0.98075,0.4,-0.3,0.0,28860.0,13860.0,-33670.0
32.7588732,35.0228386,477.51,-0.0575,0.0175,1.00725,0.6,-0.3,-0.02,28820.0,13880.0,-33670.0
32.7588732,35.0228386,477.51,-0.06275,0.033,0.9985,-0.34,-0.16,-0.04,28830.0,13920.0,-33670.0
32.7588732,35.0228386,477.51,-0.07325,0.0545,0.988,-0.28,0.44,-0.02,28900.0,14000.0,-33680.0
32.7588732,35.0228386,477.51,-0.075,0.02625,0.99725,0.12,0.54,0.04,28860.0,13960.0,-33670.0
32.7588732,35.0228386,477.51,-0.0745,0.00975,1.00525,-0.06,0.16,0.02,28850.0,13980.0,-33670.0
32.7588732,35.0228386,477.51,-0.075,0.046,0.984,0.06,-0.34,0.0,28920.0,14110.0,-33680.0
32.7588732,35.0228386,477.51,-0.06875,0.05825,0.98875,0.52,-0.44,-0.12,28910.0,14060.0,-33680.0
32.7588732,35.0228386,477.51,-0.05925,0.02025,1.01075,0.02,-0.28,0.0,28870.0,14000.0,-33670.0
32.7588732,35.0228386,477.51,-0.06125,0.01675,1.00125,-0.76,-0.08,-0.02,28870.0,13950.0,-33670.0
32.7588732,35.0228386,477.51,-0.0705,0.054,0.9795,-0.08,0.34,0.04,28870.0,13950.0,-33670.0
32.7588732,35.0228386,477.51,-0.07425,0.05025,0.99475,0.9,0.64,0.0,28870.0,13990.0,-33670.0
32.7588732,35.0228386,477.51,-0.0735,0.019,1.01475,0.08,0.14,0.04,28850.0,13940.0,-33670.0
32.7588732,35.0228386,477.51,-0.0765,0.03225,0.99575,-1.0,-0.24,-0.04,28830.0,13980.0,-33670.0
32.7588732,35.0228386,477.51,-0.073,0.0545,0.97725,-0.2,-0.34,-0.08,28790.0,13990.0,-33680.0
32.7588732,35.0228386,477.51,-0.062,0.033,0.99825,0.78,-0.22,-0.04,28810.0,14020.0,-33680.0
32.7588732,35.0228386,477.51,-0.0585,0.02075,1.01075,0.2,-0.24,0.02,28850.0,14070.0,-33680.0
32.7588732,35.0228386,477.51,-0.06675,0.04925,0.9925,-0.52,0.06,0.0,28840.0,14020.0,-33680.0
32.7588732,35.0228386,477.51,-0.07325,0.04925,0.989,-0.04,0.46,-0.04,28820.0,13990.0,-33670.0
32.7588732,35.0228386,477.51,-0.0725,0.0165,1.00625,0.16,0.38,0.02,28820.0,14000.0,-33670.0
32.7588732,35.0228386,477.51,-0.07325,0.025,0.9975,-0.16,-0.08,0.02,28800.0,14000.0,-33680.0
32.7588732,35.0228386,477.51,-0.074,0.06275,0.98175,0.16,-0.26,-0.04,28850.0,14090.0,-33680.0
32.7588732,35.0228386,477.51,-0.0655,0.04575,0.99625,0.44,-0.22,-0.1,28940.0,14160.0,-33680.0
32.7588732,35.0228386,477.51,-0.05975,0.0125,1.0115,-0.4,-0.14,-0.06,28910.0,14210.0,-33690.0
32.7588732,35.0228386,477.51,-0.067,0.03425,0.9875,-0.54,0.02,0.04,28860.0,14170.0,-33690.0
32.7588732,35.0228386,477.51,-0.07425,0.06075,0.98025,0.52,0.4,-0.04,28900.0,14150.0,-33680.0
32.7588732,35.0228386,477.51,-0.073,0.0355,1.0065,0.7,0.46,0.1,28950.0,14220.0,-33690.0
32.7588732,35.0228386,477.51,-0.07275,0.021,1.00925,-0.52,-0.12,0.0,28970.0,14170.0,-33680.0
32.7588732,35.0228386,477.51,-0.075,0.04825,0.9845,-0.8,-0.38,0.02,28940.0,14130.0,-33680.0
32.7588732,35.0228386,477.51,-0.0675,0.047,0.98275,0.28,-0.16,0.06,28880.0,14070.0,-33680.0
32.7588732,35.0228386,477.51,-0.05875,0.0195,1.009,0.56,-0.18,-0.06,28860.0,14030.0,-33670.0
32.7588732,35.0228386,477.51,-0.06225,0.03,1.002,-0.3,-0.2,-0.02,28900.0,14070.0,-33670.0
32.7588732,35.0228386,477.51,-0.07275,0.0565,0.98525,-0.34,0.34,0.0,28900.0,14060.0,-33670.0
32.7588732,35.0228386,477.51,-0.074,0.03325,0.99625,0.2,0.48,0.02,28880.0,14030.0,-33670.0
32.7588732,35.0228386,477.51,-0.0725,0.01025,1.0095,-0.1,0.14,0.1,28880.0,14020.0,-33670.0
32.7588732,35.0228386,477.51,-0.07425,0.04275,0.98725,-0.14,-0.26,0.04,28910.0,14080.0,-33680.0
32.7588732,35.0228386,477.51,-0.07,0.059,0.986,0.42,-0.24,-0.06,28910.0,14160.0,-33680.0
32.7588732,35.0228386,477.51,-0.05975,0.024,1.00825,0.16,-0.28,-0.04,28900.0,14090.0,-33680.0
32.7588732,35.0228386,477.51,-0.06075,0.0155,1.005,-0.66,-0.14,-0.06,28870.0,14040.0,-33670.0
32.7588732,35.0228386,477.51,-0.0705,0.05225,0.97925,-0.1,0.24,0.04,28880.0,14020.0,-33670.0
32.7588732,35.0228386,477.51,-0.074,0.05,0.99275,0.84,0.52,0.02,28880.0,13970.0,-33670.0
32.7588732,35.0228386,477.51,-0.073,0.0175,1.01375,0.16,0.16,0.02,28890.0,14040.0,-33670.0
32.7588732,35.0228386,477.51,-0.07625,0.029,0.997,-0.84,-0.14,0.04,28880.0,14070.0,-33680.0
32.7588732,35.0228386,477.51,-0.07425,0.05325,0.977,-0.18,-0.28,-0.08,28900.0,14080.0,-33680.0
32.7588732,35.0228386,477.51,-0.06275,0.03325,0.995,0.72,-0.2,0.0,28930.0,14090.0,-33680.0
32.7588732,35.0228386,477.51,-0.05775,0.01925,1.00825,0.1,-0.36,-0.04,28900.0,14070.0,-33680.0
32.7588732,35.0228386,477.51,-0.06725,0.0465,0.99275,-0.54,0.04,0.08,28930.0,14170.0,-33680.0
32.7588732,35.0228386,477.51,-0.074,0.047,0.988,-0.08,0.6,0.08,28920.0,14200.0,-33690.0
32.7588732,35.0228386,477.51,-0.073,0.014,1.00575,0.12,0.44,0.08,28890.0,14090.0,-33680.0
32.7588732,35.0228386,477.51,-0.074,0.025,0.99675,-0.14,-0.1,0.02,28910.0,14060.0,-33680.0
32.7588732,35.0228386,477.51,-0.07375,0.06275,0.9815,0.24,-0.28,-0.06,28910.0,14000.0,-33670.0
32.7588732,35.0228386,477.51,-0.064,0.04475,0.99525,0.34,-0.4,0.06,28860.0,13990.0,-33670.0
32.7588732,35.0228386,477.51,-0.05875,0.0105,1.01425,-0.48,-0.24,-0.12,28870.0,13980.0,-33670.0
32.7588732,35.0228386,477.51,-0.0665,0.03325,0.98625,-0.64,0.1,-0.06,28880.0,13990.0,-33670.0
32.7588732,35.0228386,477.51,-0.074,0.06,0.982,0.62,0.56,0.08,28850.0,13960.0,-33670.0
32.7588732,35.0228386,477.51,-0.07275,0.03425,1.0045,0.74,0.44,0.08,28850.0,13970.0,-33670.0
32.7588732,35.0228386,477.51,-0.07375,0.0215,1.01025,-0.5,-0.16,0.04,28880.0,14030.0,-33680.0
32.7588732,35.0228386,477.51,-0.0765,0.047,0.98425,-0.9,-0.34,-0.04,28840.0,13990.0,-33680.0
32.7588732,35.0228386,477.51,-0.068,0.04525,0.9825,0.38,-0.16,-0.04,28800.0,13960.0,-33680.0
32.7588732,35.0228386,477.51,-0.05875,0.0185,1.008,0.54,-0.24,0.02,28810.0,13920.0,-33670.0
32.7588732,35.0228386,477.51,-0.0635,0.03275,1.00225,-0.3,-0.1,0.04,28810.0,13900.0,-33670.0
32.7588732,35.0228386,477.51,-0.074,0.05575,0.9875,-0.26,0.38,0.02,28830.0,13930.0,-33670.0
32.7588732,35.0228386,477.51,-0.07475,0.029,0.99825,0.18,0.54,0.06,28870.0,14030.0,-33680.0
32.7588732,35.0228386,477.51,-0.0735,0.0125,1.00575,-0.08,0.04,0.04,28880.0,14080.0,-33680.0
32.7588732,35.0228386,477.51,-0.075,0.0475,0.98675,0.0,-0.3,-0.06,28890.0,13990.0,-33680.0
32.7588732,35.0228386,477.51,-0.0695,0.058,0.988,0.46,-0.38,0.02,28890.0,13970.0,-33670.0
32.7588732,35.0228386,477.51,-0.0605,0.0205,1.0115,-0.06,-0.32,0.0,28900.0,14070.0,-33680.0
32.7588732,35.0228386,477.51,-0.0635,0.01775,1.0,-0.76,-0.08,-0.06,28830.0,14040.0,-33680.0
32.7588732,35.0228386,477.51,-0.07325,0.05525,0.97925,0.0,0.4,0.08,28850.0,13950.0,-33670.0
32.7588732,35.0228386,477.51,-0.07475,0.0475,0.99425,0.9,0.58,0.02,28880.0,13920.0,-33670.0
32.7588732,35.0228386,477.51,-0.0725,0.0185,1.01525,-0.02,-0.02,0.08,28840.0,13900.0,-33670.0
32.7588732,35.0228386,477.51,-0.0755,0.03325,0.99525,-0.98,-0.24,-0.04,28850.0,13910.0,-33670.0
32.7588732,35.0228386,477.51,-0.07175,0.0515,0.9775,-0.12,-0.24,-0.02,28860.0,13880.0,-33670.0
32.7588732,35.0228386,477.51,-0.061,0.0275,0.99725,0.78,-0.14,-0.04,28850.0,13930.0,-33670.0
32.7588732,35.0228386,477.51,-0.05925,0.02225,1.0085,0.12,-0.22,0.08,28860.0,13970.0,-33670.0
32.7588732,35.0228386,477.51,-0.0695,0.051,0.99025,-0.36,0.1,-0.04,28860.0,13960.0,-33670.0
32.7588732,35.0228386,477.51,-0.07325,0.0425,0.9905,-0.02,0.52,0.04,28870.0,14010.0,-33680.0
32.7588732,35.0228386,477.51,-0.07175,0.01175,1.0055,0.1,0.26,0.08,28900.0,13980.0,-33670.0
32.7588732,35.0228386,477.51,-0.0735,0.031,0.99375,-0.06,-0.24,0.06,28900.0,13930.0,-33670.0
32.7588732,35.0228386,477.51,-0.07225,0.06275,0.98325,0.4,-0.26,0.0,28860.0,13920.0,-33670.0
32.7588732,35.0228386,477.51,-0.062,0.03625,1.00175,0.28,-0.34,0.04,28790.0,13920.0,-33670.0
32.7588732,35.0228386,477.51,-0.06,0.01075,1.01175,-0.6,-0.24,-0.02,28850.0,13940.0,-33670.0
32.7588732,35.0228386,477.51,-0.068,0.04275,0.98275,-0.48,0.18,-0.02,28890.0,13990.0,-33670.0
32.7588732,35.0228386,477.51,-0.07225,0.05675,0.98525,0.78,0.6,0.02,28920.0,14020.0,-33680.0
32.7588732,35.0228386,477.51,-0.07175,0.0265,1.009,0.52,0.24,0.14,28890.0,13980.0,-33670.0
32.7588732,35.0228386,477.51,-0.07575,0.024,1.00625,-0.8,-0.12,0.0,28890.0,14010.0,-33670.0
32.7588732,35.0228386,477.51,-0.0775,0.04925,0.98025,-0.54,-0.22,-0.02,28930.0,14150.0,-33680.0
32.7588732,35.0228386,477.51,-0.06725,0.03775,0.98725,0.58,-0.14,-0.02,28950.0,14210.0,-33690.0
32.7588732,35.0228386,477.51,-0.059,0.01825,1.0085,0.42,-0.26,0.06,28960.0,14220.0,-33690.0
32.7588732,35.0228386,477.51,-0.0645,0.04225,0.998,-0.22,-0.24,0.04,28860.0,14130.0,-33690.0
32.7588732,35.0228386,477.51,-0.0715,0.0535,0.98825,-0.16,0.36,0.0,28830.0,14050.0,-33680.0
32.7588732,35.0228386,477.51,-0.07125,0.02125,1.00225,0.1,0.5,0.0,28840.0,14010.0,-33680.0
32.7588732,35.0228386,477.51,-0.07325,0.01925,0.99975,-0.12,0.04,0.06,28850.0,14010.0,-33680.0
32.7588732,35.0228386,477.51,-0.07625,0.058,0.985,0.24,-0.18,-0.02,28850.0,13970.0,-33670.0
32.7588732,35.0228386,477.51,-0.06875,0.0515,0.9915,0.48,-0.24,0.0,28860.0,14010.0,-33680.0
32.7588732,35.0228386,477.51,-0.06075,0.015,1.01425,-0.36,-0.3,0.0,28880.0,14110.0,-33680.0
32.7588732,35.0228386,477.51,-0.0645,0.03025,0.99025,-0.72,-0.2,-0.04,28920.0,14170.0,-33690.0
32.7588732,35.0228386,477.51,-0.07075,0.0615,0.9795,0.44,0.36,0.04,28950.0,13850.0,-33670.0
32.7588732,35.0228386,477.51,-0.07,0.04025,1.00125,0.86,0.4,0.08,28920.0,13580.0,-33660.0
32.7588732,35.0228386,477.51,-0.07275,0.02125,1.01225,-0.36,0.06,0.04,28960.0,13500.0,-33650.0
32.7588732,35.0228386,477.51,-0.0775,0.04375,0.987,-0.9,-0.2,-0.02,29010.0,13420.0,-33650.0
32.7588732,35.0228386,477.51,-0.07125,0.04775,0.9805,0.16,-0.12,0.0,29000.0,13410.0,-33650.0
32.7588732,35.0228386,477.51,-0.061,0.02075,1.00425,0.62,-0.28,-0.06,28960.0,13440.0,-33650.0
32.7588732,35.0228386,477.51,-0.062,0.0305,1.004,-0.18,-0.34,-0.06,28940.0,13700.0,-33660.0
32.7588732,35.0228386,477.51,-0.07025,0.056,0.987,-0.32,0.24,0.0,28890.0,13850.0,-33670.0
32.7588732,35.0228386,477.51,-0.07075,0.03275,0.99525,0.08,0.52,0.06,28930.0,13980.0,-33670.0
32.7588732,35.0228386,477.51,-0.07125,0.0115,1.00375,-0.1,0.2,0.16,28980.0,14160.0,-33680.0
32.7588732,35.0228386,477.51,-0.07575,0.0425,0.98875,0.0,-0.14,0.0,28920.0,14140.0,-33680.0
32.7588732,35.0228386,477.51,-0.07325,0.0575,0.98725,0.42,-0.14,0.02,28890.0,14060.0,-33680.0
32.7588732,35.0228386,477.51,-0.0635,0.02275,1.00925,-0.02,-0.22,-0.02,28880.0,14040.0,-33680.0
32.7588732,35.0228386,477.51,-0.06225,0.0175,1.0005,-0.74,-0.16,0.02,28840.0,14000.0,-33670.0
32.7588732,35.0228386,477.51,-0.06825,0.055,0.9805,-0.04,0.14,-0.02,28810.0,14000.0,-33670.0
32.7588732,35.0228386,477.51,-0.06925,0.04975,0.9935,0.86,0.36,0.08,28820.0,13970.0,-33670.0
32.7588732,35.0228386,477.51,-0.06975,0.0195,1.015,0.12,0.14,0.08,28840.0,13990.0,-33670.0
32.7588732,35.0228386,477.51,-0.07675,0.031,0.997,-0.96,-0.04,0.04,28870.0,13960.0,-33670.0
32.7588732,35.0228386,477.51,-0.077,0.05275,0.97925,-0.18,0.04,0.04,28910.0,14030.0,-33670.0
32.7588732,35.0228386,477.51,-0.0665,0.03075,0.996,0.78,-0.14,0.06,28950.0,14100.0,-33680.0
32.7588732,35.0228386,477.51,-0.0605,0.02175,1.01025,0.14,-0.42,0.0,28880.0,14060.0,-33680.0
32.7588732,35.0228386,477.51,-0.06575,0.0505,0.992,-0.44,-0.2,-0.1,28860.0,14020.0,-33670.0
32.7588732,35.0228386,477.51,-0.069,0.046,0.99,-0.04,0.4,0.0,28860.0,14010.0,-33670.0
32.7588732,35.0228386,477.51,-0.069,0.0135,1.00575,0.1,0.4,0.02,28880.0,14000.0,-33670.0
32.7588732,35.0228386,477.51,-0.074,0.0275,0.9965,-0.14,0.1,-0.02,28920.0,14070.0,-33680.0
32.7588732,35.0228386,477.51,-0.077,0.06025,0.9835,0.36,-0.02,0.04,28910.0,14070.0,-33680.0
32.7588732,35.0228386,477.51,-0.068,0.03875,0.99925,0.32,-0.24,-0.04,28880.0,14100.0,-33680.0
32.7588732,35.0228386,477.51,-0.06125,0.01125,1.0095,-0.5,-0.34,0.02,28900.0,14100.0,-33680.0
32.7588732,35.0228386,477.51,-0.06575,0.04075,0.985,-0.48,-0.14,0.02,28950.0,14120.0,-33680.0
32.7588732,35.0228386,477.51,-0.06925,0.05775,0.984,0.64,0.38,-0.04,28960.0,14210.0,-33690.0
32.7588732,35.0228386,477.51,-0.069,0.02725,1.00925,0.52,0.32,0.08,28960.0,14200.0,-33690.0
32.7588732,35.0228386,477.51,-0.07425,0.02175,1.0065,-0.7,0.06,0.06,28920.0,14100.0,-33680.0
32.7588732,35.0228386,477.51,-0.0785,0.05025,0.98025,-0.62,-0.06,0.0,28860.0,14040.0,-33680.0
32.7588732,35.0228386,477.51,-0.0695,0.0425,0.987,0.58,-0.18,0.02,28860.0,13980.0,-33670.0
32.7588732,35.0228386,477.51,-0.06,0.0195,1.008,0.4,-0.42,0.0,28870.0,13980.0,-33670.0
32.7588732,35.0228386,477.51,-0.06375,0.039,0.9985,-0.42,-0.3,0.02,28870.0,13950.0,-33670.0
32.7588732,35.0228386,477.51,-0.07075,0.0545,0.986,-0.28,0.38,0.0,28910.0,13950.0,-33670.0
32.7588732,35.0228386,477.51,-0.071,0.025,1.00125,0.2,0.52,0.06,28900.0,13920.0,-33670.0
32.7588732,35.0228386,477.51,-0.073,0.017,1.00375,-0.02,0.24,0.06,28900.0,13960.0,-33670.0
32.7588732,35.0228386,477.51,-0.07625,0.05375,0.986,0.08,-0.2,-0.02,28910.0,14070.0,-33680.0
32.7588732,35.0228386,477.51,-0.06925,0.0545,0.98975,0.42,-0.28,-0.06,28900.0,14060.0,-33680.0
32.7588732,35.0228386,477.51,-0.05975,0.01725,1.011,-0.22,-0.34,0.0,28910.0,14010.0,-33680.0
32.7588732,35.0228386,477.51,-0.06375,0.02625,0.99425,-0.7,-0.14,-0.06,28880.0,13960.0,-33670.0
32.7588732,35.0228386,477.51,-0.07225,0.058,0.97975,0.24,0.42,0.06,28840.0,13890.0,-33670.0
32.7588732,35.0228386,477.51,-0.073,0.04125,0.99975,0.86,0.58,0.06,28860.0,13940.0,-33670.0
32.7588732,35.0228386,477.51,-0.07375,0.01875,1.014,-0.22,0.12,0.02,28860.0,14000.0,-33680.0
32.7588732,35.0228386,477.51,-0.0775,0.04125,0.9885,-0.82,-0.14,-0.04,28910.0,14000.0,-33680.0
32.7588732,35.0228386,477.51,-0.071,0.0515,0.981,0.12,-0.32,-0.02,28920.0,13990.0,-33670.0
32.7588732,35.0228386,477.51,-0.05825,0.0245,1.00125,0.5,-0.36,0.06,28860.0,14020.0,-33680.0
32.7588732,35.0228386,477.51,-0.0595,0.02625,1.0055,-0.16,-0.3,-0.04,28860.0,14120.0,-33690.0
32.7588732,35.0228386,477.51,-0.06975,0.054,0.98875,-0.34,0.26,-0.02,28920.0,14140.0,-33690.0
32.7588732,35.0228386,477.51,-0.073,0.03825,0.993,0.12,0.66,0.02,28900.0,14040.0,-33680.0
32.7588732,35.0228386,477.51,-0.074,0.01125,1.00775,-0.02,0.32,0.06,28900.0,13970.0,-33670.0
32.7588732,35.0228386,477.51,-0.07625,0.0385,0.991,-0.08,-0.18,0.0,28870.0,13930.0,-33670.0
32.7588732,35.0228386,477.51,-0.071,0.0635,0.9795,0.32,-0.36,0.04,28820.0,13920.0,-33670.0
32.7588732,35.0228386,477.51,-0.0605,0.02925,1.0095,0.14,-0.44,-0.04,28830.0,13900.0,-33670.0
32.7588732,35.0228386,477.51,-0.05875,0.01325,1.00175,-0.6,-0.26,-0.08,28860.0,13890.0,-33670.0
32.7588732,35.0228386,477.51,-0.06975,0.04925,0.98525,-0.22,0.32,0.02,28810.0,13850.0,-33670.0
32.7588732,35.0228386,477.51,-0.074,0.0535,0.986,0.8,0.64,0.12,28800.0,13900.0,-33670.0
32.7588732,35.0228386,477.51,-0.0745,0.02225,1.0155,0.34,0.34,0.12,28850.0,13990.0,-33680.0
32.7588732,35.0228386,477.51,-0.07675,0.0285,0.996,-0.86,-0.2,0.04,28880.0,13960.0,-33670.0
32.7588732,35.0228386,477.51,-0.0745,0.0525,0.983,-0.38,-0.42,-0.02,28890.0,13930.0,-33670.0
32.7588732,35.0228386,477.51,-0.06175,0.03375,0.98825,0.62,-0.34,-0.08,28860.0,13900.0,-33670.0
32.7588732,35.0228386,477.51,-0.05625,0.0185,1.013,0.22,-0.3,0.0,28830.0,13880.0,-33670.0
32.7588732,35.0228386,477.51,-0.06725,0.04425,0.99275,-0.4,0.08,0.04,28860.0,13930.0,-33670.0
32.7588732,35.0228386,477.51,-0.07425,0.04925,0.9915,-0.08,0.64,0.06,28880.0,13960.0,-33670.0
32.7588732,35.0228386,477.51,-0.07475,0.01575,1.003,0.1,0.56,0.06,28860.0,13970.0,-33670.0
32.7588732,35.0228386,477.51,-0.07375,0.02325,1.00025,-0.12,-0.14,0.04,28840.0,13930.0,-33670.0
32.7588732,35.0228386,477.51,-0.07275,0.05925,0.98125,0.24,-0.44,-0.04,28850.0,13950.0,-33670.0
32.7588732,35.0228386,477.51,-0.063,0.0465,0.9975,0.4,-0.48,-0.02,28920.0,14070.0,-33680.0
32.7588732,35.0228386,477.51,-0.058,0.01075,1.01425,-0.4,-0.2,-0.08,28860.0,14020.0,-33680.0
32.7588732,35.0228386,477.51,-0.0665,0.03325,0.98625,-0.6,0.22,-0.02,28830.0,13980.0,-33680.0
32.7588732,35.0228386,477.51,-0.076,0.05975,0.98375,0.54,0.74,0.0,28820.0,13950.0,-33670.0
32.7588732,35.0228386,477.51,-0.07575,0.03625,1.00375,0.8,0.52,0.08,28810.0,13940.0,-33670.0
32.7588732,35.0228386,477.51,-0.0745,0.0205,1.0095,-0.5,-0.16,0.04,28850.0,13970.0,-33670.0
32.7588732,35.0228386,477.51,-0.07475,0.046,0.9885,-0.88,-0.56,-0.04,28870.0,13930.0,-33670.0
32.7588732,35.0228386,477.51,-0.06575,0.04675,0.9785,0.3,-0.32,-0.04,28840.0,13950.0,-33670.0
32.7588732,35.0228386,477.51,-0.05675,0.01875,1.00975,0.56,-0.18,0.0,28830.0,13950.0,-33670.0
32.7588732,35.0228386,477.51,-0.06275,0.031,1.0015,-0.18,0.04,0.06,28870.0,14030.0,-33680.0
32.7588732,35.0228386,477.51,-0.0745,0.05625,0.986,-0.32,0.44,0.06,28880.0,14060.0,-33680.0
32.7588732,35.0228386,477.51,-0.07625,0.03175,0.997,0.18,0.56,0.06,28920.0,14060.0,-33670.0
32.7588732,35.0228386,477.51,-0.07325,0.0115,1.004,-0.02,-0.06,0.0,28900.0,14030.0,-33670.0
32.7588732,35.0228386,477.51,-0.07275,0.0445,0.98625,0.04,-0.44,-0.04,28860.0,14030.0,-33680.0
32.7588732,35.0228386,477.51,-0.0685,0.06025,0.98775,0.42,-0.34,0.0,28820.0,14010.0,-33670.0
32.7588732,35.0228386,477.51,-0.06,0.02375,1.0085,0.08,-0.18,-0.06,28880.0,14030.0,-33670.0
32.7588732,35.0228386,477.51,-0.06225,0.0165,1.0035,-0.76,0.02,0.02,28880.0,14090.0,-33680.0
32.7588732,35.0228386,477.51,-0.07075,0.0555,0.98025,-0.16,0.32,0.04,28900.0,14100.0,-33680.0
32.7588732,35.0228386,477.51,-0.0735,0.05375,0.992,0.86,0.42,0.08,28870.0,14040.0,-33670.0
32.7588732,35.0228386,477.51,-0.0715,0.0205,1.01475,0.14,0.02,0.08,28860.0,14020.0,-33670.0
32.7588732,35.0228386,477.51,-0.07425,0.03,0.99625,-0.98,-0.24,-0.02,28950.0,14190.0,-33680.0
32.7588732,35.0228386,477.51,-0.07425,0.054,0.977,-0.34,-0.06,0.0,28980.0,14270.0,-33690.0
32.7588732,35.0228386,477.51,-0.06475,0.033,0.99575,0.74,-0.12,-0.02,28930.0,14280.0,-33690.0
32.7588732,35.0228386,477.51,-0.0605,0.019,1.01,0.18,-0.18,-0.04,28840.0,14230.0,-33690.0
32.7588732,35.0228386,477.51,-0.067,0.0475,0.99225,-0.64,-0.08,0.0,28850.0,14140.0,-33680.0
32.7588732,35.0228386,477.51,-0.072,0.05,0.9885,-0.1,0.38,0.0,28870.0,14040.0,-33670.0
32.7588732,35.0228386,477.51,-0.07025,0.0155,1.00425,0.16,0.36,0.04,28850.0,14040.0,-33680.0
32.7588732,35.0228386,477.51,-0.072,0.0205,0.99725,-0.1,0.0,-0.02,28870.0,14020.0,-33670.0
32.7588732,35.0228386,477.51,-0.07475,0.05875,0.98425,0.18,-0.22,-0.02,28930.0,14070.0,-33670.0
32.7588732,35.0228386,477.51,-0.068,0.04525,0.9945,0.34,-0.16,-0.1,28890.0,14050.0,-33670.0
32.7588732,35.0228386,477.51,-0.0615,0.01025,1.013,-0.34,-0.16,-0.04,28930.0,14150.0,-33680.0
32.7588732,35.0228386,477.51,-0.06575,0.03175,0.9875,-0.64,-0.14,-0.12,28890.0,14050.0,-33680.0
32.7588732,35.0228386,477.51,-0.071,0.0615,0.9795,0.46,0.26,0.02,28880.0,14060.0,-33680.0
32.7588732,35.0228386,477.51,-0.0705,0.03575,1.006,0.74,0.34,0.02,28900.0,14000.0,-33670.0
32.7588732,35.0228386,477.51,-0.07125,0.01675,1.0115,-0.44,0.02,0.06,28930.0,14010.0,-33670.0
32.7588732,35.0228386,477.51,-0.0765,0.044,0.984,-0.86,-0.1,-0.12,28900.0,14000.0,-33670.0
32.7588732,35.0228386,477.51,-0.071,0.04975,0.982,0.32,-0.1,0.0,28860.0,13990.0,-33670.0
32.7588732,35.0228386,477.51,-0.0615,0.02125,1.008,0.68,-0.22,-0.02,28950.0,13820.0,-33670.0
32.7588732,35.0228386,477.51,-0.062,0.0275,1.0025,-0.28,-0.36,-0.02,28960.0,13590.0,-33660.0
32.7588732,35.0228386,477.51,-0.07025,0.05625,0.9865,-0.46,0.16,-0.04,29010.0,13500.0,-33650.0
32.7588732,35.0228386,477.51,-0.07225,0.036,0.994,0.14,0.46,0.12,29070.0,13540.0,-33660.0
32.7588732,35.0228386,477.51,-0.0715,0.01,1.009,0.06,0.28,0.0,29030.0,13440.0,-33650.0
32.7588732,35.0228386,477.51,-0.075,0.03925,0.99025,-0.1,-0.12,0.04,29000.0,13410.0,-33650.0
32.7588732,35.0228386,477.51,-0.0725,0.06325,0.98375,0.34,-0.24,-0.02,28940.0,13590.0,-33660.0
32.7588732,35.0228386,477.51,-0.063,0.029,1.007,0.12,-0.28,0.0,28860.0,13730.0,-33660.0
32.7588732,35.0228386,477.51,-0.0615,0.0125,1.00675,-0.6,-0.22,-0.12,28860.0,13830.0,-33670.0
32.7588732,35.0228386,477.51,-0.06925,0.0495,0.9805,-0.3,0.1,0.02,28860.0,13890.0,-33670.0
32.7588732,35.0228386,477.51,-0.0725,0.055,0.98925,0.78,0.44,0.04,28820.0,13890.0,-33670.0
32.7588732,35.0228386,477.51,-0.07075,0.02275,1.014,0.26,0.2,0.1,28820.0,13880.0,-33670.0
32.7588732,35.0228386,477.51,-0.0745,0.026,0.99975,-0.86,-0.1,-0.04,28810.0,13910.0,-33670.0
32.7588732,35.0228386,477.51,-0.0765,0.05425,0.9795,-0.38,-0.08,0.0,28830.0,14000.0,-33680.0
32.7588732,35.0228386,477.51,-0.067,0.037,0.99175,0.66,-0.2,-0.06,28810.0,13940.0,-33680.0
32.7588732,35.0228386,477.51,-0.05975,0.016,1.01075,0.22,-0.28,0.04,28800.0,13900.0,-33670.0
32.7588732,35.0228386,477.51,-0.065,0.0425,0.993,-0.5,-0.18,-0.02,28830.0,13880.0,-33670.0
32.7588732,35.0228386,477.51,-0.07075,0.05475,0.98525,-0.04,0.36,0.0,28810.0,13900.0,-33670.0
32.7588732,35.0228386,477.51,-0.0705,0.021,1.0055,0.28,0.38,0.06,28870.0,14020.0,-33680.0
32.7588732,35.0228386,477.51,-0.0725,0.01675,1.003,-0.18,0.06,0.02,28900.0,14070.0,-33680.0
32.7588732,35.0228386,477.51,-0.076,0.0565,0.98175,0.02,-0.18,-0.04,28860.0,14020.0,-33680.0
32.7588732,35.0228386,477.51,-0.06875,0.05175,0.99075,0.52,-0.2,-0.02,28820.0,14000.0,-33680.0
32.7588732,35.0228386,477.51,-0.06025,0.01475,1.01325,-0.18,-0.28,0.0,28840.0,14020.0,-33680.0
32.7588732,35.0228386,477.51,-0.06375,0.02625,0.99275,-0.66,-0.24,-0.02,28880.0,14120.0,-33690.0
32.7588732,35.0228386,477.51,-0.07125,0.059,0.98025,0.2,0.36,0.04,28960.0,14180.0,-33690.0
32.7588732,35.0228386,477.51,-0.07125,0.04125,1.00025,0.78,0.48,0.1,28920.0,14080.0,-33680.0
32.7588732,35.0228386,477.51,-0.0725,0.01775,1.01325,-0.2,0.14,0.1,28850.0,13990.0,-33680.0
32.7588732,35.0228386,477.51,-0.07775,0.04125,0.98775,-0.88,-0.08,-0.06,28810.0,13910.0,-33670.0
32.7588732,35.0228386,477.51,-0.0715,0.051,0.9795,0.12,-0.22,-0.04,28870.0,14000.0,-33680.0
32.7588732,35.0228386,477.51,-0.06075,0.02225,1.00575,0.54,-0.3,-0.06,28910.0,14100.0,-33680.0
32.7588732,35.0228386,477.51,-0.06075,0.02325,1.00375,-0.16,-0.32,-0.06,28910.0,14150.0,-33690.0
32.7588732,35.0228386,477.51,-0.06975,0.0545,0.9865,-0.36,0.14,-0.04,28910.0,14160.0,-33690.0
32.7588732,35.0228386,477.51,-0.0735,0.0415,0.99375,0.14,0.52,0.1,28900.0,14190.0,-33690.0
32.7588732,35.0228386,477.51,-0.0725,0.01075,1.009,0.12,0.34,0.0,28940.0,14210.0,-33690.0
32.7588732,35.0228386,477.51,-0.07525,0.0335,0.991,-0.32,-0.2,0.0,28980.0,14190.0,-33690.0
32.7588732,35.0228386,477.51,-0.0735,0.0625,0.98225,0.4,-0.32,-0.02,28980.0,14200.0,-33690.0
32.7588732,35.0228386,477.51,-0.06225,0.03475,1.0025,0.34,-0.32,0.0,28950.0,14190.0,-33690.0
32.7588732,35.0228386,477.51,-0.06,0.01325,1.01025,-0.52,-0.3,0.0,28930.0,14150.0,-33690.0
32.7588732,35.0228386,477.51,-0.0695,0.04475,0.98425,-0.38,0.14,0.02,28940.0,14190.0,-33690.0
32.7588732,35.0228386,477.51,-0.074,0.05625,0.98375,0.68,0.62,0.06,28960.0,14200.0,-33690.0
32.7588732,35.0228386,477.51,-0.07175,0.02575,1.01175,0.46,0.32,0.06,28960.0,14210.0,-33690.0
32.7588732,35.0228386,477.51,-0.074,0.02675,1.0025,-0.66,-0.18,-0.04,28940.0,14210.0,-33690.0
32.7588732,35.0228386,477.51,-0.075,0.05375,0.98025,-0.48,-0.32,-0.04,28880.0,14190.0,-33690.0
32.7588732,35.0228386,477.51,-0.0655,0.0385,0.99025,0.44,-0.18,-0.02,28900.0,14230.0,-33690.0
32.7588732,35.0228386,477.51,-0.059,0.01625,1.01025,0.26,-0.18,-0.04,28930.0,14240.0,-33690.0
32.7588732,35.0228386,477.51,-0.06525,0.0395,0.99175,-0.38,-0.02,0.02,28920.0,14230.0,-33690.0
32.7588732,35.0228386,477.51,-0.0725,0.0565,0.98725,0.04,0.44,0.02,28930.0,14230.0,-33690.0
32.7588732,35.0228386,477.51,-0.072,0.0235,1.0035,0.2,0.42,0.04,28930.0,14230.0,-33690.0
32.7588732,35.0228386,477.51,-0.07175,0.01475,1.00425,-0.32,-0.06,0.0,28920.0,14230.0,-33690.0
32.7588732,35.0228386,477.51,-0.075,0.053,0.984,0.04,-0.18,-0.08,28950.0,14200.0,-33680.0
32.7588732,35.0228386,477.51,-0.06825,0.05375,0.988,0.5,-0.16,0.04,28890.0,14080.0,-33680.0
32.7588732,35.0228386,477.51,-0.0605,0.0155,1.016,-0.06,-0.18,-0.08,28850.0,14030.0,-33680.0
32.7588732,35.0228386,477.51,-0.06375,0.02275,0.99525,-0.84,-0.02,-0.04,28840.0,14030.0,-33680.0
32.7588732,35.0228386,477.51,-0.07175,0.058,0.97975,0.12,0.32,-0.06,28920.0,14110.0,-33680.0
32.7588732,35.0228386,477.51,-0.072,0.04225,0.997,0.82,0.44,0.06,28870.0,14040.0,-33680.0
32.7588732,35.0228386,477.51,-0.072,0.01875,1.0155,-0.04,0.06,0.08,28850.0,14010.0,-33670.0
32.7588732,35.0228386,477.51,-0.07775,0.039,0.9895,-0.88,-0.18,-0.06,28850.0,13970.0,-33670.0
32.7588732,35.0228386,477.51,-0.07375,0.0495,0.98175,0.02,-0.12,-0.02,28850.0,13970.0,-33670.0
32.7588732,35.0228386,477.51,-0.0625,0.023,1.0015,0.62,-0.18,0.0,28860.0,14000.0,-33670.0
32.7588732,35.0228386,477.51,-0.05925,0.02425,1.004,-0.08,-0.36,0.0,28910.0,14090.0,-33680.0
32.7588732,35.0228386,477.51,-0.06725,0.056,0.991,-0.34,0.04,-0.08,28910.0,14120.0,-33680.0
32.7588732,35.0228386,477.51,-0.071,0.0415,0.99075,0.0,0.42,0.02,28900.0,14030.0,-33670.0
32.7588732,35.0228386,477.51,-0.07225,0.008,1.01225,-0.12,0.4,0.06,28930.0,14030.0,-33670.0
32.7588732,35.0228386,477.51,-0.076,0.0315,0.98775,-0.24,-0.02,0.06,28980.0,14140.0,-33680.0
32.7588732,35.0228386,477.51,-0.0755,0.0625,0.9825,0.5,-0.14,-0.06,28890.0,14110.0,-33680.0
32.7588732,35.0228386,477.51,-0.0645,0.036,1.0015,0.36,-0.38,0.02,28850.0,14040.0,-33670.0
32.7588732,35.0228386,477.51,-0.0595,0.01325,1.011,-0.58,-0.4,-0.04,28890.0,14000.0,-33670.0
32.7588732,35.0228386,477.51,-0.067,0.0435,0.9835,-0.6,0.02,-0.08,28900.0,13990.0,-33670.0
32.7588732,35.0228386,477.51,-0.0715,0.05475,0.98425,0.7,0.52,-0.02,28930.0,14000.0,-33670.0
32.7588732,35.0228386,477.51,-0.07175,0.024,1.01175,0.56,0.44,0.06,28890.0,13960.0,-33670.0
32.7588732,35.0228386,477.51,-0.07525,0.0245,1.00225,-0.68,0.02,0.04,28890.0,14010.0,-33670.0
32.7588732,35.0228386,477.51,-0.07725,0.05325,0.98175,-0.54,-0.24,-0.08,28880.0,13980.0,-33670.0
32.7588732,35.0228386,477.51,-0.0655,0.04125,0.985,0.46,-0.34,-0.1,28900.0,13980.0,-33670.0
32.7588732,35.0228386,477.51,-0.0575,0.01675,1.01175,0.38,-0.36,-0.08,28920.0,14110.0,-33680.0
32.7588732,35.0228386,477.51,-0.0645,0.03925,0.994,-0.38,-0.12,-0.02,28870.0,14070.0,-33680.0
32.7588732,35.0228386,477.51,-0.07275,0.055,0.9885,-0.16,0.5,0.02,28860.0,14000.0,-33670.0
32.7588732,35.0228386,477.51,-0.07325,0.0235,1.0015,0.14,0.6,0.02,28870.0,13950.0,-33670.0
32.7588732,35.0228386,477.51,-0.07325,0.018,1.004,-0.16,-0.02,0.08,28880.0,13930.0,-33670.0
32.7588732,35.0228386,477.51,-0.075,0.05575,0.9835,0.0,-0.38,-0.06,28900.0,13980.0,-33670.0
32.7588732,35.0228386,477.51,-0.0665,0.055,0.99075,0.46,-0.28,-0.04,28890.0,14020.0,-33680.0
32.7588732,35.0228386,477.51,-0.05825,0.016,1.014,-0.18,-0.3,-0.02,28930.0,14060.0,-33680.0
32.7588732,35.0228386,477.51,-0.06325,0.0255,0.99275,-0.74,-0.04,0.0,28910.0,14010.0,-33670.0
32.7588732,35.0228386,477.51,-0.0735,0.0585,0.98175,0.22,0.48,0.08,28910.0,14000.0,-33670.0
32.7588732,35.0228386,477.51,-0.07425,0.04075,0.9975,0.78,0.58,0.1,28960.0,14130.0,-33680.0
32.7588732,35.0228386,477.51,-0.074,0.01725,1.01625,-0.2,0.04,0.04,29010.0,14200.0,-33690.0
32.7588732,35.0228386,477.51,-0.07675,0.04125,0.9865,-0.88,-0.3,-0.06,28970.0,14190.0,-33690.0
32.7588732,35.0228386,477.51,-0.0695,0.05225,0.9795,0.14,-0.24,-0.04,28900.0,14060.0,-33680.0
32.7588732,35.0228386,477.51,-0.0585,0.023,1.005,0.54,-0.32,0.02,28890.0,13990.0,-33680.0
32.7588732,35.0228386,477.51,-0.05925,0.023,1.005,-0.14,-0.2,0.04,28850.0,13920.0,-33670.0
32.7588732,35.0228386,477.51,-0.0715,0.05325,0.988,-0.36,0.3,0.04,28840.0,13920.0,-33670.0
32.7588732,35.0228386,477.51,-0.0755,0.0395,0.99175,0.18,0.68,0.06,28830.0,13860.0,-33670.0
32.7588732,35.0228386,477.51,-0.07425,0.01175,1.00875,0.04,0.32,0.08,28840.0,13900.0,-33670.0
32.7588732,35.0228386,477.51,-0.07475,0.0355,0.99,-0.22,-0.3,0.02,28800.0,13910.0,-33670.0
32.7588732,35.0228386,477.51,-0.071,0.06175,0.986,0.32,-0.42,0.0,28840.0,13990.0,-33680.0
32.7588732,35.0228386,477.51,-0.0605,0.032,1.0,0.2,-0.32,-0.02,28850.0,13910.0,-33670.0
32.7588732,35.0228386,477.51,-0.059,0.0125,1.011,-0.6,-0.08,-0.1,28850.0,13890.0,-33670.0
32.7588732,35.0228386,477.51,-0.07025,0.04675,0.982,-0.4,0.24,0.08,28830.0,13880.0,-33670.0
32.7588732,35.0228386,477.51,-0.075,0.05475,0.988,0.74,0.66,0.06,28800.0,13880.0,-33670.0
32.7588732,35.0228386,477.51,-0.074,0.023,1.01275,0.36,0.28,0.08,28790.0,13870.0,-33670.0
32.7588732,35.0228386,477.51,-0.07475,0.0255,1.00125,-0.74,-0.26,0.02,28870.0,13930.0,-33670.0
32.7588732,35.0228386,477.51,-0.07475,0.05225,0.98125,-0.38,-0.38,-0.02,28920.0,13980.0,-33670.0
32.7588732,35.0228386,477.51,-0.0625,0.037,0.98925,0.54,-0.24,0.0,28870.0,13890.0,-33670.0
32.7588732,35.0228386,477.51,-0.05675,0.01725,1.01225,0.26,-0.28,-0.08,28840.0,13940.0,-33680.0
32.7588732,35.0228386,477.51,-0.066,0.04325,0.9925,-0.38,0.04,-0.02,28880.0,14040.0,-33680.0
32.7588732,35.0228386,477.51,-0.074,0.0525,0.9905,-0.06,0.54,0.08,28880.0,14010.0,-33680.0
32.7588732,35.0228386,477.51,-0.07425,0.01825,1.00175,0.08,0.46,0.04,28880.0,13870.0,-33670.0
32.7588732,35.0228386,477.51,-0.07375,0.01725,1.00425,-0.2,-0.02,0.02,28900.0,13600.0,-33660.0
32.7588732,35.0228386,477.51,-0.07425,0.05825,0.97925,0.14,-0.38,-0.06,28880.0,13410.0,-33650.0
32.7588732,35.0228386,477.51,-0.064,0.0525,0.9925,0.56,-0.38,-0.06,28850.0,13320.0,-33650.0
32.7588732,35.0228386,477.51,-0.05825,0.0155,1.01275,-0.3,-0.26,-0.04,28890.0,13290.0,-33650.0
32.7588732,35.0228386,477.51,-0.06675,0.0295,0.992,-0.74,0.12,0.0,28940.0,13300.0,-33650.0
32.7588732,35.0228386,477.51,-0.0765,0.05675,0.98175,0.26,0.6,0.1,28900.0,13350.0,-33650.0
32.7588732,35.0228386,477.51,-0.07525,0.037,0.99825,0.8,0.52,0.08,28880.0,13630.0,-33660.0
32.7588732,35.0228386,477.51,-0.0735,0.02075,1.013,-0.18,-0.16,0.08,28880.0,13850.0,-33670.0
32.7588732,35.0228386,477.51,-0.074,0.0465,0.98475,-0.76,-0.48,-0.06,28850.0,13850.0,-33670.0
32.7588732,35.0228386,477.51,-0.0655,0.0495,0.98375,0.14,-0.34,-0.04,28850.0,13870.0,-33670.0
32.7588732,35.0228386,477.51,-0.05675,0.01975,1.00375,0.42,-0.18,0.0,28830.0,13860.0,-33670.0
32.7588732,35.0228386,477.51,-0.0625,0.028,1.0035,-0.16,0.12,0.0,28810.0,13920.0,-33670.0
32.7588732,35.0228386,477.51,-0.076,0.05575,0.9855,-0.2,0.42,0.04,28860.0,14020.0,-33680.0
32.7588732,35.0228386,477.51,-0.07725,0.03575,0.9965,0.22,0.62,0.04,28900.0,14050.0,-33680.0
32.7588732,35.0228386,477.51,-0.0745,0.01225,1.007,-0.1,-0.02,0.04,28870.0,14050.0,-33680.0
32.7588732,35.0228386,477.51,-0.073,0.04325,0.98675,-0.12,-0.48,0.06,28860.0,14010.0,-33680.0
32.7588732,35.0228386,477.51,-0.0675,0.06025,0.98725,0.44,-0.48,-0.06,28860.0,14020.0,-33680.0
32.7588732,35.0228386,477.51,-0.058,0.0255,1.007,0.14,-0.22,0.02,28900.0,14160.0,-33690.0
32.7588732,35.0228386,477.51,-0.06125,0.01625,1.007,-0.7,0.08,-0.06,28940.0,14210.0,-33690.0
32.7588732,35.0228386,477.51,-0.07275,0.05325,0.97875,-0.2,0.46,0.02,28930.0,14160.0,-33680.0
32.7588732,35.0228386,477.51,-0.076,0.05175,0.99125,0.82,0.58,0.06,28900.0,14070.0,-33680.0
32.7588732,35.0228386,477.51,-0.07425,0.01975,1.01275,0.22,0.06,0.1,28930.0,14020.0,-33670.0
32.7588732,35.0228386,477.51,-0.0755,0.02975,0.99825,-0.94,-0.36,-0.08,28960.0,14020.0,-33670.0
32.7588732,35.0228386,477.51,-0.073,0.05225,0.97925,-0.36,-0.36,-0.1,28920.0,14010.0,-33670.0
32.7588732,35.0228386,477.51,-0.06075,0.0315,0.9935,0.64,-0.18,0.0,28870.0,14020.0,-33670.0
32.7588732,35.0228386,477.51,-0.058,0.02025,1.01,0.18,-0.26,-0.02,28880.0,13990.0,-33670.0
32.7588732,35.0228386,477.51,-0.06775,0.049,0.99125,-0.44,0.16,0.0,28880.0,14030.0,-33670.0
32.7588732,35.0228386,477.51,-0.074,0.04625,0.9915,-0.06,0.52,0.04,28930.0,14130.0,-33680.0
32.7588732,35.0228386,477.51,-0.073,0.0135,1.003,0.0,0.38,0.04,28930.0,14080.0,-33670.0
32.7588732,35.0228386,477.51,-0.07325,0.0255,0.99775,-0.1,-0.12,0.04,28890.0,14040.0,-33670.0
32.7588732,35.0228386,477.51,-0.07375,0.06125,0.98075,0.32,-0.34,-0.06,28930.0,14060.0,-33670.0
32.7588732,35.0228386,477.51,-0.064,0.04175,1.001,0.36,-0.36,-0.06,28930.0,14000.0,-33670.0
32.7588732,35.0228386,477.51,-0.05975,0.0115,1.011,-0.58,-0.16,0.02,28930.0,14010.0,-33670.0
32.7588732,35.0228386,477.51,-0.068,0.039,0.98775,-0.5,0.14,-0.02,28900.0,14060.0,-33670.0
32.7588732,35.0228386,477.51,-0.0735,0.05975,0.9815,0.66,0.58,0.06,28910.0,14050.0,-33670.0
32.7588732,35.0228386,477.51,-0.07225,0.0315,1.00825,0.68,0.4,0.06,28930.0,14030.0,-33670.0
32.7588732,35.0228386,477.51,-0.07425,0.02125,1.00875,-0.7,-0.14,0.0,28930.0,14040.0,-33670.0
32.7588732,35.0228386,477.51,-0.077,0.04875,0.98275,-0.76,-0.18,-0.12,28990.0,14160.0,-33680.0
32.7588732,35.0228386,477.51,-0.0675,0.04275,0.98425,0.46,-0.24,-0.02,28990.0,14240.0,-33680.0
32.7588732,35.0228386,477.51,-0.0585,0.01875,1.00925,0.5,-0.22,-0.02,28920.0,14130.0,-33680.0
32.7588732,35.0228386,477.51,-0.06475,0.0365,0.99975,-0.32,-0.14,0.0,28940.0,14080.0,-33670.0
32.7588732,35.0228386,477.51,-0.07275,0.0545,0.9885,-0.18,0.36,0.02,28920.0,14040.0,-33670.0
32.7588732,35.0228386,477.51,-0.0715,0.0255,0.997,0.08,0.44,0.06,28880.0,14020.0,-33670.0
32.7588732,35.0228386,477.51,-0.0725,0.014,1.007,-0.08,0.04,-0.02,28880.0,13980.0,-33670.0
32.7588732,35.0228386,477.51,-0.074,0.0505,0.98125,0.1,-0.24,0.0,28900.0,14000.0,-33670.0
32.7588732,35.0228386,477.51,-0.069,0.056,0.995,0.5,-0.24,0.02,28880.0,13980.0,-33670.0
32.7588732,35.0228386,477.51,-0.05975,0.01775,1.00725,-0.22,-0.24,0.0,28860.0,13990.0,-33670.0
32.7588732,35.0228386,477.51,-0.06475,0.024,1.0015,-0.82,-0.06,-0.06,28890.0,14080.0,-33680.0
32.7588732,35.0228386,477.51,-0.07225,0.05875,0.974,0.22,0.38,0.04,28870.0,14060.0,-33680.0
32.7588732,35.0228386,477.51,-0.071,0.04375,1.003,0.92,0.4,0.06,28890.0,14010.0,-33670.0
32.7588732,35.0228386,477.51,-0.0715,0.01925,1.00875,-0.2,-0.02,0.02,28900.0,13960.0,-33670.0
32.7588732,35.0228386,477.51,-0.07625,0.041,0.994,-0.86,-0.08,-0.02,28900.0,13930.0,-33670.0
32.7588732,35.0228386,477.51,-0.073,0.04975,0.976,-0.1,-0.14,0.0,28900.0,14000.0,-33670.0
32.7588732,35.0228386,477.51,-0.0605,0.02325,1.00475,0.58,-0.2,-0.02,28930.0,14080.0,-33680.0
32.7588732,35.0228386,477.51,-0.06125,0.02625,1.0025,-0.06,-0.4,-0.02,28890.0,14060.0,-33680.0
32.7588732,35.0228386,477.51,-0.06825,0.05575,0.98875,-0.34,0.12,0.0,28860.0,13960.0,-33680.0
32.7588732,35.0228386,477.51,-0.07125,0.0385,0.994,0.08,0.38,0.08,28860.0,13950.0,-33670.0
32.7588732,35.0228386,477.51,-0.07175,0.011,1.005,-0.04,0.3,0.02,28910.0,14060.0,-33680.0
32.7588732,35.0228386,477.51,-0.07575,0.03625,0.992,-0.12,0.02,0.08,28890.0,14060.0,-33680.0
32.7588732,35.0228386,477.51,-0.07425,0.06275,0.981,0.52,-0.12,0.02,28880.0,14010.0,-33680.0
32.7588732,35.0228386,477.51,-0.06275,0.029,1.009,0.18,-0.36,-0.04,28890.0,13960.0,-33670.0
32.7588732,35.0228386,477.51,-0.0615,0.01475,1.00525,-0.78,-0.34,-0.02,28830.0,13890.0,-33670.0
32.7588732,35.0228386,477.51,-0.06875,0.05,0.981,-0.26,0.18,-0.06,28830.0,13900.0,-33670.0
32.7588732,35.0228386,477.51,-0.071,0.0535,0.99,0.9,0.56,0.04,28820.0,13850.0,-33670.0
32.7588732,35.0228386,477.51,-0.07175,0.02225,1.011,0.4,0.3,0.06,28800.0,13850.0,-33670.0
32.7588732,35.0228386,477.51,-0.07725,0.02775,1.002,-0.88,-0.02,-0.06,28830.0,13840.0,-33670.0
32.7588732,35.0228386,477.51,-0.07775,0.05175,0.9785,-0.42,-0.16,0.02,28840.0,13890.0,-33670.0
32.7588732,35.0228386,477.51,-0.066,0.03375,0.9915,0.6,-0.28,-0.02,28830.0,13940.0,-33680.0
32.7588732,35.0228386,477.51,-0.059,0.01875,1.0075,0.28,-0.4,-0.06,28810.0,13940.0,-33680.0
32.7588732,35.0228386,477.51,-0.065,0.047,0.995,-0.34,-0.16,-0.04,28840.0,13960.0,-33680.0
32.7588732,35.0228386,477.51,-0.0715,0.04975,0.9895,-0.1,0.4,-0.06,28810.0,13910.0,-33670.0
32.7588732,35.0228386,477.51,-0.0705,0.01375,1.006,0.08,0.46,0.06,28810.0,13900.0,-33670.0
32.7588732,35.0228386,477.51,-0.07375,0.023,0.99625,-0.08,0.04,0.0,28840.0,13900.0,-33670.0
32.7588732,35.0228386,477.51,-0.0745,0.06125,0.98225,0.32,-0.28,0.02,28870.0,13960.0,-33670.0
32.7588732,35.0228386,477.51,-0.065,0.04575,0.997,0.46,-0.4,-0.02,28870.0,13970.0,-33680.0
32.7588732,35.0228386,477.51,-0.06025,0.01275,1.0125,-0.52,-0.34,-0.1,28870.0,13900.0,-33670.0
32.7588732,35.0228386,477.51,-0.0665,0.03275,0.98825,-0.7,0.02,0.0,28850.0,13910.0,-33670.0
32.7588732,35.0228386,477.51,-0.07325,0.0585,0.9805,0.54,0.6,0.08,28920.0,14060.0,-33680.0
32.7588731,35.0228386,477.51,-0.07225,0.0335,1.007,0.82,0.46,0.12,28960.0,14150.0,-33690.0
32.7588731,35.0228386,477.51,-0.07175,0.02125,1.009,-0.46,-0.1,0.12,28970.0,14200.0,-33690.0
32.7588731,35.0228386,477.51,-0.0745,0.04925,0.9855,-0.88,-0.32,-0.04,28910.0,14220.0,-33690.0
32.7588731,35.0228386,477.51,-0.06575,0.0465,0.98225,0.28,-0.28,0.04,28860.0,14090.0,-33680.0
32.7588731,35.0228386,477.51,-0.0585,0.01775,1.00825,0.56,-0.2,0.04,28880.0,14010.0,-33680.0
32.7588731,35.0228386,477.51,-0.06525,0.03025,1.00175,-0.32,-0.04,0.06,28890.0,14000.0,-33670.0
32.7588731,35.0228386,477.51,-0.0745,0.0555,0.98525,-0.28,0.46,-0.02,28900.0,13960.0,-33670.0
32.7588731,35.0228386,477.51,-0.07575,0.033,0.99875,0.18,0.5,0.08,28880.0,13980.0,-33670.0
32.7588731,35.0228386,477.51,-0.07275,0.0125,1.00525,-0.08,-0.02,0.0,28820.0,13980.0,-33680.0
32.7588731,35.0228386,477.51,-0.07225,0.04375,0.98775,-0.08,-0.4,-0.06,28880.0,14050.0,-33680.0
32.7588731,35.0228386,477.51,-0.06875,0.05875,0.98825,0.4,-0.3,-0.04,28890.0,13990.0,-33670.0
32.7588731,35.0228386,477.51,-0.05975,0.02325,1.0075,0.1,-0.12,-0.04,28870.0,14020.0,-33680.0
32.7588731,35.0228386,477.51,-0.063,0.018,1.001,-0.62,-0.02,-0.02,28840.0,14040.0,-33680.0
32.7588731,35.0228386,477.51,-0.07375,0.0545,0.98175,-0.1,0.32,-0.02,28840.0,14010.0,-33680.0
32.7588731,35.0228386,477.51,-0.0765,0.04875,0.99275,0.78,0.52,-0.04,28820.0,13990.0,-33680.0
32.7588731,35.0228386,477.51,-0.07375,0.01925,1.0145,0.06,0.02,0.02,28860.0,13990.0,-33670.0
32.7588731,35.0228386,477.51,-0.0735,0.032,0.99525,-0.86,-0.28,0.0,28900.0,14090.0,-33680.0
32.7588731,35.0228386,477.51,-0.07025,0.05525,0.97825,-0.14,-0.26,0.0,28890.0,14100.0,-33680.0
32.7588731,35.0228386,477.51,-0.061,0.032,0.998,0.62,-0.22,-0.04,28880.0,14090.0,-33680.0
32.7588732,35.0228386,477.52,-0.05775,0.01725,1.00925,0.04,-0.16,0.0,28930.0,14180.0,-33680.0
32.7588732,35.0228386,477.52,-0.06875,0.047,0.98875,-0.46,0.12,0.0,28890.0,14120.0,-33680.0
32.7588732,35.0228386,477.52,-0.0755,0.0495,0.989,0.12,0.54,0.08,28870.0,14050.0,-33680.0
32.7588732,35.0228386,477.52,-0.07375,0.0155,1.00675,0.24,0.36,0.04,28870.0,14040.0,-33680.0
32.7588732,35.0228386,477.52,-0.073,0.02325,0.999,-0.28,-0.16,0.08,28850.0,14020.0,-33670.0
32.7588732,35.0228386,477.52,-0.072,0.06025,0.98125,0.14,-0.32,-0.06,28790.0,14000.0,-33680.0
32.7588732,35.0228386,477.52,-0.06275,0.0455,0.99525,0.48,-0.26,-0.04,28810.0,13990.0,-33670.0
32.7588732,35.0228386,477.52,-0.0585,0.012,1.0135,-0.3,-0.2,-0.04,28830.0,14000.0,-33670.0
32.7588732,35.0228386,477.52,-0.066,0.0325,0.98825,-0.58,0.12,-0.02,28860.0,13920.0,-33670.0
32.7588732,35.0228386,477.52,-0.07525,0.0605,0.98125,0.46,0.6,0.06,28950.0,13710.0,-33660.0
32.7588732,35.0228386,477.52,-0.07425,0.0355,1.0045,0.7,0.42,0.08,29020.0,13620.0,-33650.0
32.7588732,35.0228386,477.52,-0.07375,0.0195,1.00875,-0.38,-0.12,0.02,28960.0,13500.0,-33650.0
32.7588732,35.0228386,477.52,-0.07625,0.047,0.9845,-0.82,-0.38,-0.02,28940.0,13400.0,-33650.0
32.7588732,35.0228386,477.52,-0.068,0.047,0.9835,0.22,-0.2,-0.02,28940.0,13350.0,-33650.0
32.7588732,35.0228386,477.52,-0.05875,0.01875,1.00875,0.58,-0.16,-0.06,28970.0,13460.0,-33650.0
32.7588732,35.0228386,477.52,-0.06175,0.02875,1.0005,-0.2,-0.14,0.02,28980.0,13740.0,-33660.0
32.7588732,35.0228386,477.52,-0.071,0.05725,0.987,-0.34,0.32,0.04,28950.0,13910.0,-33670.0
32.7588732,35.0228386,477.52,-0.07375,0.0365,0.99625,0.2,0.48,0.06,28880.0,14000.0,-33680.0
32.7588732,35.0228386,477.52,-0.07175,0.01,1.00875,-0.06,0.1,0.1,28860.0,13980.0,-33670.0
32.7588732,35.0228386,477.52,-0.07425,0.04,0.98675,-0.22,-0.18,0.0,28930.0,14030.0,-33670.0
32.7588731,35.0228386,477.52,-0.07225,0.06125,0.9835,0.34,-0.2,-0.02,28950.0,14170.0,-33680.0
32.7588731,35.0228386,477.52,-0.063,0.02675,1.0085,0.28,-0.2,-0.02,28940.0,14130.0,-33680.0
32.7588731,35.0228386,477.52,-0.0625,0.016,1.00525,-0.64,-0.1,0.0,28910.0,14070.0,-33680.0
32.7588731,35.0228386,477.52,-0.07,0.0515,0.9805,-0.3,0.1,0.02,28880.0,14070.0,-33680.0
32.7588731,35.0228386,477.52,-0.072,0.0535,0.98975,0.8,0.4,0.02,28880.0,13990.0,-33670.0
32.7588731,35.0228386,477.52,-0.0705,0.02225,1.01375,0.24,0.12,0.1,28910.0,14070.0,-33680.0
32.7588731,35.0228386,477.52,-0.074,0.02675,0.9985,-0.84,-0.14,-0.04,28870.0,14010.0,-33680.0
32.7588731,35.0228386,477.52,-0.077,0.054,0.97975,-0.36,-0.08,0.06,28870.0,14030.0,-33680.0
32.7588731,35.0228386,477.52,-0.0675,0.0365,0.992,0.66,-0.16,0.0,28890.0,13980.0,-33670.0
32.7588731,35.0228386,477.52,-0.05975,0.017,1.01125,0.2,-0.34,0.0,28880.0,14010.0,-33680.0
32.7588731,35.0228386,477.52,-0.06525,0.04425,0.9925,-0.52,-0.26,0.0,28900.0,14100.0,-33680.0
32.7588731,35.0228386,477.52,-0.07,0.05325,0.9865,-0.06,0.3,0.02,28880.0,14010.0,-33680.0
32.7588731,35.0228386,477.52,-0.06975,0.01875,1.00675,0.2,0.4,0.02,28880.0,13940.0,-33670.0
32.7588731,35.0228386,477.52,-0.07225,0.01775,1.0025,-0.22,0.12,0.04,28880.0,13980.0,-33670.0
32.7588731,35.0228386,477.52,-0.07525,0.05725,0.98125,0.1,-0.1,0.06,28870.0,13960.0,-33670.0
32.7588731,35.0228386,477.52,-0.06875,0.052,0.993,0.54,-0.22,0.02,28870.0,13990.0,-33680.0
32.7588731,35.0228386,477.52,-0.06025,0.01425,1.014,-0.18,-0.26,-0.06,28860.0,13980.0,-33680.0
32.7588731,35.0228386,477.52,-0.064,0.02625,0.9925,-0.74,-0.16,0.0,28880.0,14010.0,-33680.0
32.7588731,35.0228386,477.52,-0.07275,0.059,0.97925,0.22,0.28,0.08,28890.0,13990.0,-33680.0
32.7588731,35.0228386,477.52,-0.072,0.03925,1.00025,0.84,0.54,0.04,28840.0,13970.0,-33680.0
32.7588731,35.0228386,477.52,-0.073,0.0175,1.0135,-0.26,0.12,0.02,28860.0,14080.0,-33690.0
32.7588731,35.0228386,477.52,-0.07825,0.0425,0.98725,-0.82,-0.18,0.0,28870.0,14070.0,-33680.0
32.7588731,35.0228386,477.52,-0.072,0.05075,0.97925,0.1,-0.24,0.0,28860.0,13990.0,-33680.0
32.7588731,35.0228386,477.52,-0.06125,0.023,1.00525,0.5,-0.22,-0.06,28870.0,13950.0,-33670.0
32.7588731,35.0228386,477.52,-0.06,0.024,1.0045,-0.16,-0.36,-0.02,28850.0,13910.0,-33670.0
32.7588731,35.0228386,477.52,-0.06875,0.0545,0.98625,-0.3,0.16,0.02,28820.0,13960.0,-33680.0
32.7588731,35.0228386,477.52,-0.07325,0.04,0.99475,0.1,0.5,0.02,28850.0,13950.0,-33680.0
32.7588731,35.0228386,477.52,-0.072,0.00975,1.00875,-0.02,0.36,0.0,28860.0,13900.0,-33670.0
32.7588731,35.0228386,477.52,-0.0745,0.035,0.99025,-0.2,-0.16,0.04,28820.0,13860.0,-33670.0
32.7588731,35.0228386,477.52,-0.073,0.06325,0.98275,0.34,-0.3,-0.02,28800.0,13880.0,-33670.0
32.7588731,35.0228386,477.52,-0.06225,0.03325,1.00375,0.26,-0.28,-0.04,28830.0,13990.0,-33680.0
32.7588731,35.0228386,477.52,-0.0605,0.011,1.0105,-0.6,-0.24,-0.02,28850.0,13950.0,-33670.0
32.7588731,35.0228386,477.52,-0.069,0.04375,0.98225,-0.38,0.24,0.0,28860.0,13880.0,-33670.0
32.7588731,35.0228386,477.52,-0.07375,0.057,0.984,0.82,0.58,0.06,28850.0,13860.0,-33670.0
32.7588731,35.0228386,477.52,-0.072,0.026,1.0115,0.48,0.22,0.08,28800.0,13850.0,-33670.0
32.7588731,35.0228386,477.52,-0.0735,0.02425,1.0035,-0.8,-0.22,-0.02,28840.0,13930.0,-33670.0
32.7588731,35.0228386,477.52,-0.0755,0.05275,0.9795,-0.58,-0.22,-0.06,28890.0,14000.0,-33680.0
32.7588731,35.0228386,477.52,-0.06625,0.03925,0.9885,0.5,-0.22,-0.02,28880.0,14000.0,-33680.0
32.7588731,35.0228386,477.52,-0.05925,0.0155,1.012,0.36,-0.2,-0.02,28870.0,13990.0,-33680.0
32.7588731,35.0228386,477.52,-0.06575,0.03925,0.9945,-0.34,-0.06,0.04,28870.0,13980.0,-33680.0
32.7588731,35.0228386,477.52,-0.0725,0.057,0.98575,-0.12,0.36,0.0,28930.0,14070.0,-33680.0
32.7588731,35.0228386,477.52,-0.072,0.026,1.00225,0.2,0.32,-0.06,28870.0,14040.0,-33680.0
32.7588731,35.0228386,477.52,-0.07225,0.0155,1.00325,-0.14,0.0,0.0,28840.0,13970.0,-33670.0
32.7588731,35.0228386,477.52,-0.07525,0.0515,0.9855,-0.04,-0.22,-0.04,28860.0,13970.0,-33670.0
32.7588731,35.0228386,477.52,-0.07125,0.0545,0.99,0.54,-0.14,0.04,28840.0,13940.0,-33670.0
32.7588731,35.0228386,477.52,-0.062,0.01675,1.013,-0.06,-0.1,0.0,28880.0,13930.0,-33670.0
32.7588731,35.0228386,477.52,-0.0635,0.023,0.99575,-0.64,-0.14,0.02,28850.0,13890.0,-33670.0
32.7588731,35.0228386,477.52,-0.07025,0.05975,0.9785,0.08,0.16,0.04,28820.0,13950.0,-33670.0
32.7588731,35.0228386,477.52,-0.07,0.044,0.999,0.82,0.28,0.02,28810.0,13920.0,-33670.0
32.7588731,35.0228386,477.52,-0.07125,0.01675,1.01425,-0.16,0.08,0.04,28860.0,13950.0,-33670.0
32.7588731,35.0228386,477.52,-0.077,0.03475,0.9905,-0.9,0.0,-0.02,28890.0,14010.0,-33670.0
32.7588731,35.0228386,477.52,-0.076,0.052,0.97875,0.06,-0.02,0.0,28860.0,14010.0,-33680.0
32.7588731,35.0228386,477.52,-0.066,0.028,1.0015,0.74,-0.16,-0.02,28850.0,13980.0,-33670.0
32.7588731,35.0228386,477.52,-0.0595,0.021,1.0065,-0.08,-0.44,0.04,28850.0,14000.0,-33670.0
32.7588731,35.0228386,477.52,-0.06575,0.05275,0.9895,-0.5,-0.18,-0.02,28830.0,13940.0,-33670.0
32.7588731,35.0228386,477.52,-0.06925,0.04375,0.99125,0.0,0.4,0.0,28860.0,13990.0,-33670.0
32.7588731,35.0228386,477.52,-0.068,0.01125,1.00825,0.1,0.4,0.06,28870.0,14000.0,-33670.0
32.7588731,35.0228386,477.52,-0.074,0.02825,0.99625,-0.18,0.06,0.04,28920.0,14130.0,-33680.0
32.7588731,35.0228386,477.52,-0.07625,0.06275,0.9815,0.18,-0.06,-0.04,28930.0,14110.0,-33680.0
32.7588731,35.0228386,477.52,-0.068,0.03975,0.99925,0.32,-0.2,-0.04,28890.0,14070.0,-33680.0
32.7588731,35.0228386,477.51,-0.0615,0.011,1.014,-0.52,-0.3,-0.04,28960.0,14200.0,-33680.0
32.7588731,35.0228386,477.51,-0.0655,0.0385,0.98275,-0.54,-0.14,0.0,28970.0,14260.0,-33690.0
32.7588731,35.0228386,477.51,-0.07025,0.0595,0.98375,0.58,0.38,-0.06,28940.0,14250.0,-33690.0
32.7588731,35.0228386,477.51,-0.06875,0.02975,1.009,0.62,0.4,0.1,28880.0,14160.0,-33680.0
32.7588731,35.0228386,477.51,-0.0725,0.02,1.00625,-0.64,0.08,0.08,28860.0,14070.0,-33680.0
32.7588731,35.0228386,477.51,-0.079,0.05,0.982,-0.72,-0.06,-0.06,28860.0,14010.0,-33670.0
32.7588731,35.0228386,477.51,-0.0715,0.0445,0.98325,0.46,-0.04,0.0,28850.0,14010.0,-33670.0
32.7588731,35.0228386,477.51,-0.062,0.0175,1.01,0.5,-0.26,-0.06,28860.0,14000.0,-33670.0
32.7588731,35.0228386,477.51,-0.064,0.034,0.99925,-0.42,-0.4,0.0,28880.0,14040.0,-33680.0
32.7588731,35.0228386,477.51,-0.07025,0.05775,0.984,-0.22,0.2,-0.04,28880.0,14020.0,-33670.0
32.7588731,35.0228386,477.51,-0.071,0.03,0.99925,0.26,0.46,0.0,28930.0,14110.0,-33680.0
32.7588731,35.0228386,477.51,-0.071,0.012,1.008,-0.08,0.3,0.08,28890.0,14040.0,-33670.0
32.7588731,35.0228386,477.51,-0.0755,0.0475,0.985,-0.06,-0.1,-0.02,28820.0,14010.0,-33680.0
32.7588731,35.0228386,477.51,-0.0725,0.0595,0.987,0.42,-0.2,-0.04,28830.0,13980.0,-33670.0
32.7588731,35.0228386,477.51,-0.06175,0.02175,1.00975,0.1,-0.32,-0.04,28890.0,13960.0,-33670.0
32.7588731,35.0228386,477.51,-0.063,0.0195,0.99925,-0.66,-0.2,0.0,28870.0,14010.0,-33670.0
32.7588731,35.0228386,477.51,-0.071,0.0565,0.9795,-0.02,0.2,0.06,28900.0,14080.0,-33680.0
32.7588731,35.0228386,477.51,-0.07275,0.0485,0.994,0.84,0.52,0.08,28930.0,14120.0,-33680.0
32.7588731,35.0228386,477.51,-0.072,0.01825,1.015,0.08,0.24,0.12,28910.0,14090.0,-33680.0
32.7588731,35.0228386,477.51,-0.076,0.033,0.99425,-0.92,-0.1,0.02,28910.0,14080.0,-33680.0
32.7588731,35.0228387,477.52,-0.07425,0.05475,0.97825,-0.12,-0.16,0.02,28950.0,14190.0,-33690.0
32.7588731,35.0228387,477.52,-0.062,0.031,0.9985,0.64,-0.28,-0.08,28910.0,14140.0,-33680.0
32.7588731,35.0228387,477.52,-0.0575,0.02,1.00775,0.08,-0.34,0.0,28910.0,14040.0,-33680.0
32.7588731,35.0228387,477.52,-0.06675,0.05075,0.98975,-0.48,-0.06,-0.08,28890.0,14000.0,-33670.0
32.7588731,35.0228387,477.52,-0.073,0.04625,0.98925,0.04,0.54,0.04,28850.0,13950.0,-33670.0
32.7588731,35.0228387,477.52,-0.073,0.012,1.00875,0.06,0.54,0.1,28790.0,13950.0,-33680.0
32.7588731,35.0228387,477.52,-0.0755,0.025,0.997,-0.16,-0.02,0.08,28810.0,13930.0,-33680.0
32.7588731,35.0228387,477.52,-0.07375,0.063,0.98,0.3,-0.38,-0.04,28850.0,13950.0,-33670.0
32.7588731,35.0228387,477.52,-0.06325,0.04475,0.999,0.46,-0.42,-0.02,28860.0,13940.0,-33670.0
32.7588731,35.0228387,477.52,-0.057,0.01075,1.01425,-0.46,-0.34,-0.08,28870.0,13980.0,-33670.0
32.7588731,35.0228387,477.52,-0.066,0.03425,0.98725,-0.62,0.06,-0.04,28900.0,14060.0,-33680.0
32.7588731,35.0228387,477.52,-0.07425,0.0585,0.98175,0.54,0.64,0.02,28850.0,14000.0,-33680.0
32.7588731,35.0228387,477.52,-0.07425,0.03225,1.00575,0.66,0.58,0.14,28830.0,13940.0,-33670.0
32.7588731,35.0228387,477.52,-0.07575,0.0215,1.0095,-0.42,-0.1,0.02,28830.0,13920.0,-33670.0
32.7588731,35.0228387,477.52,-0.07825,0.04875,0.98425,-0.78,-0.42,0.0,28790.0,13840.0,-33670.0
32.7588731,35.0228387,477.52,-0.0675,0.0435,0.983,0.24,-0.4,-0.06,28870.0,13690.0,-33670.0
32.7588731,35.0228387,477.52,-0.057,0.0175,1.00875,0.5,-0.26,0.02,28930.0,13560.0,-33660.0
32.7588731,35.0228387,477.52,-0.06225,0.03275,0.99975,-0.14,-0.14,-0.02,28990.0,13550.0,-33660.0
32.7588731,35.0228387,477.52,-0.07225,0.05725,0.98825,-0.18,0.42,0.12,29020.0,13490.0,-33660.0
32.7588731,35.0228387,477.52,-0.074,0.0295,0.999,0.08,0.54,0.06,29030.0,13490.0,-33660.0
32.7588731,35.0228386,477.52,-0.07325,0.011,1.007,-0.2,0.08,0.1,29000.0,13660.0,-33670.0
32.7588731,35.0228386,477.52,-0.07525,0.048,0.984,-0.06,-0.28,-0.04,28940.0,13810.0,-33670.0
32.7588731,35.0228386,477.52,-0.06875,0.0605,0.9865,0.54,-0.34,0.0,28920.0,13840.0,-33670.0
32.7588731,35.0228386,477.52,-0.059,0.02,1.012,0.06,-0.28,0.0,28880.0,13870.0,-33670.0
32.7588731,35.0228386,477.52,-0.06275,0.01725,1.00225,-0.76,0.0,-0.06,28870.0,13900.0,-33670.0
32.7588731,35.0228386,477.52,-0.07225,0.0555,0.977,-0.08,0.42,0.0,28900.0,13930.0,-33670.0
32.7588731,35.0228386,477.52,-0.074,0.0505,0.993,0.96,0.6,0.1,28860.0,13870.0,-33670.0
32.7588731,35.0228386,477.52,-0.07275,0.02175,1.014,0.14,0.02,0.04,28850.0,13910.0,-33670.0
32.7588731,35.0228386,477.52,-0.0755,0.0335,0.99525,-0.96,-0.32,-0.04,28820.0,13900.0,-33670.0
32.7588731,35.0228386,477.52,-0.07325,0.052,0.9795,-0.3,-0.26,0.0,28820.0,13920.0,-33670.0
32.7588731,35.0228386,477.52,-0.0625,0.02725,0.9955,0.7,-0.14,0.02,28890.0,14040.0,-33680.0
32.7588731,35.0228386,477.52,-0.0595,0.02125,1.0085,0.24,-0.24,0.0,28890.0,13990.0,-33680.0
32.7588731,35.0228386,477.52,-0.0685,0.054,0.99075,-0.26,0.1,0.02,28860.0,13940.0,-33670.0
32.7588731,35.0228386,477.52,-0.072,0.04825,0.98975,-0.02,0.4,0.0,28840.0,13910.0,-33670.0
32.7588731,35.0228386,477.52,-0.0715,0.01225,1.007,-0.06,0.26,0.04,28810.0,13860.0,-33670.0
32.7588731,35.0228386,477.52,-0.07375,0.0255,0.994,-0.24,-0.08,-0.04,28830.0,13890.0,-33670.0
32.7588731,35.0228386,477.52,-0.075,0.061,0.98375,0.38,-0.16,0.0,28850.0,13940.0,-33670.0
32.7588731,35.0228386,477.52,-0.06625,0.04075,1.0,0.48,-0.14,-0.04,28850.0,13960.0,-33670.0
32.7588731,35.0228386,477.52,-0.06075,0.0135,1.01125,-0.5,-0.24,0.0,28840.0,13950.0,-33670.0
32.7588731,35.0228386,477.52,-0.06625,0.04175,0.9835,-0.64,-0.08,-0.04,28840.0,13960.0,-33670.0
32.7588731,35.0228386,477.52,-0.07075,0.0595,0.98475,0.62,0.38,0.06,28930.0,14070.0,-33680.0
32.7588731,35.0228386,477.52,-0.07075,0.02825,1.00775,0.6,0.34,0.06,28960.0,14090.0,-33680.0
32.7588731,35.0228386,477.52,-0.073,0.02,1.0085,-0.78,0.04,0.0,28900.0,14020.0,-33680.0
32.7588731,35.0228386,477.52,-0.0785,0.04975,0.9815,-0.66,-0.02,-0.06,28870.0,13980.0,-33670.0
32.7588731,35.0228386,477.52,-0.06925,0.0455,0.9825,0.52,-0.18,0.02,28850.0,13940.0,-33670.0
32.7588731,35.0228386,477.52,-0.059,0.01925,1.0105,0.46,-0.38,0.0,28860.0,13940.0,-33670.0
32.7588731,35.0228386,477.52,-0.063,0.03525,0.9995,-0.44,-0.32,-0.02,28900.0,13960.0,-33670.0
32.7588731,35.0228386,477.52,-0.06975,0.05375,0.9855,-0.3,0.28,-0.06,28880.0,13950.0,-33670.0
32.7588731,35.0228386,477.52,-0.0715,0.02625,1.0025,0.28,0.66,0.08,28820.0,13920.0,-33670.0
32.7588731,35.0228386,477.52,-0.07175,0.01475,0.99975,-0.04,0.26,0.04,28810.0,13940.0,-33670.0
32.7588731,35.0228386,477.52,-0.0765,0.05025,0.991,0.06,-0.14,-0.02,28900.0,14060.0,-33680.0
32.7588731,35.0228386,477.52,-0.0715,0.0565,0.98475,0.38,-0.34,-0.02,28890.0,14080.0,-33680.0
32.7588731,35.0228386,477.52,-0.06025,0.018,1.01475,-0.1,-0.26,-0.04,28860.0,14010.0,-33680.0
32.7588731,35.0228386,477.52,-0.06175,0.0195,0.99475,-0.72,-0.22,-0.04,28850.0,13960.0,-33670.0
32.7588731,35.0228386,477.52,-0.07,0.05725,0.98325,0.12,0.32,0.04,28810.0,13930.0,-33670.0
32.7588731,35.0228386,477.52,-0.072,0.04625,0.9945,0.86,0.5,0.06,28830.0,13960.0,-33670.0
32.7588731,35.0228386,477.52,-0.072,0.0185,1.0175,-0.1,0.18,0.06,28880.0,14020.0,-33670.0
32.7588731,35.0228386,477.52,-0.078,0.035,0.98825,-0.94,-0.14,-0.02,28870.0,14010.0,-33670.0
32.7588731,35.0228386,477.52,-0.074,0.05375,0.98,-0.04,-0.12,0.0,28880.0,13970.0,-33670.0
32.7588731,35.0228386,477.52,-0.06225,0.027,0.9995,0.72,-0.28,-0.06,28890.0,13970.0,-33670.0
32.7588731,35.0228386,477.52,-0.0595,0.021,1.00925,-0.08,-0.34,0.0,28950.0,14090.0,-33680.0
32.7588731,35.0228386,477.52,-0.06775,0.051,0.9905,-0.4,0.1,0.0,28870.0,14110.0,-33680.0
32.7588731,35.0228386,477.52,-0.0715,0.046,0.9875,0.06,0.56,0.04,28820.0,14040.0,-33680.0
32.7588731,35.0228386,477.52,-0.0705,0.01325,1.01,0.18,0.38,0.04,28870.0,14000.0,-33670.0
32.7588731,35.0228386,477.52,-0.07325,0.029,0.99475,-0.16,-0.1,-0.02,28830.0,13980.0,-33670.0
32.7588731,35.0228386,477.52,-0.0745,0.062,0.98375,0.24,-0.22,0.02,28870.0,14020.0,-33670.0
32.7588731,35.0228386,477.52,-0.06425,0.037,1.0,0.3,-0.26,-0.02,28880.0,13990.0,-33670.0
32.7588731,35.0228386,477.52,-0.061,0.01125,1.0105,-0.4,-0.24,-0.06,28860.0,13980.0,-33670.0
32.7588731,35.0228386,477.52,-0.069,0.04275,0.98375,-0.4,0.0,0.04,28870.0,13960.0,-33670.0
32.7588731,35.0228386,477.52,-0.07325,0.059,0.9845,0.64,0.48,0.08,28900.0,13970.0,-33670.0
32.7588731,35.0228386,477.52,-0.07175,0.028,1.00875,0.46,0.26,0.06,28900.0,14050.0,-33680.0
32.7588731,35.0228386,477.52,-0.07375,0.02225,1.00625,-0.66,-0.06,0.02,28870.0,14070.0,-33680.0
32.7588731,35.0228386,477.52,-0.0765,0.051,0.98075,-0.54,-0.22,0.0,28880.0,14050.0,-33680.0
32.7588731,35.0228386,477.52,-0.06675,0.041,0.98725,0.54,-0.16,0.02,28870.0,14020.0,-33670.0
32.7588731,35.0228386,477.52,-0.0585,0.018,1.01025,0.32,-0.34,0.02,28900.0,13990.0,-33670.0
32.7588731,35.0228386,477.52,-0.06425,0.0395,0.9945,-0.34,-0.26,-0.04,28920.0,14040.0,-33670.0
32.7588731,35.0228386,477.52,-0.0725,0.05525,0.98875,-0.22,0.42,-0.02,28890.0,14080.0,-33680.0
32.7588731,35.0228386,477.52,-0.0725,0.023,0.99925,0.06,0.5,0.1,28890.0,14060.0,-33680.0
32.7588731,35.0228386,477.52,-0.0735,0.01325,1.00675,-0.16,0.1,0.02,28880.0,13990.0,-33670.0
32.7588731,35.0228386,477.52,-0.07625,0.053,0.9815,0.0,-0.24,0.0,28880.0,14000.0,-33670.0
32.7588731,35.0228386,477.52,-0.0675,0.05475,0.9895,0.54,-0.3,-0.04,28910.0,14160.0,-33690.0
32.7588731,35.0228386,477.52,-0.05875,0.01675,1.012,-0.1,-0.42,-0.02,28930.0,14220.0,-33690.0
32.7588731,35.0228386,477.52,-0.06325,0.0245,0.996,-0.8,-0.14,-0.04,28980.0,14240.0,-33690.0
32.7588731,35.0228386,477.52,-0.073,0.0565,0.98,0.16,0.5,0.08,28960.0,14110.0,-33680.0
32.7588731,35.0228386,477.52,-0.07325,0.041,0.9985,0.9,0.6,0.1,28920.0,14010.0,-33670.0
32.7588731,35.0228386,477.52,-0.07425,0.0175,1.01325,-0.14,0.08,0.1,28870.0,13940.0,-33670.0
32.7588731,35.0228386,477.52,-0.07775,0.04075,0.98925,-0.82,-0.3,-0.04,28870.0,13940.0,-33670.0
32.7588731,35.0228386,477.52,-0.0705,0.0515,0.97975,0.06,-0.34,0.0,28860.0,13900.0,-33670.0
32.7588731,35.0228386,477.52,-0.0585,0.02225,1.00175,0.56,-0.32,-0.08,28870.0,13920.0,-33670.0
32.7588731,35.0228386,477.52,-0.06,0.02325,1.00725,-0.14,-0.22,0.02,28850.0,13910.0,-33670.0
32.7588731,35.0228386,477.52,-0.071,0.053,0.9865,-0.3,0.32,0.0,28900.0,14020.0,-33680.0
32.7588731,35.0228386,477.52,-0.07375,0.0385,0.995,0.12,0.66,0.12,28860.0,13930.0,-33670.0
32.7588731,35.0228386,477.52,-0.0735,0.01125,1.006,0.04,0.3,0.1,28810.0,13930.0,-33680.0
32.7588731,35.0228386,477.52,-0.07525,0.03825,0.99,-0.12,-0.26,-0.02,28770.0,13910.0,-33680.0
32.7588731,35.0228386,477.52,-0.071,0.06175,0.9835,0.42,-0.38,-0.06,28800.0,13910.0,-33670.0
32.7588731,35.0228386,477.52,-0.0605,0.02825,1.00625,0.2,-0.34,-0.06,28800.0,13910.0,-33670.0
32.7588731,35.0228386,477.52,-0.06075,0.012,1.0075,-0.62,-0.1,-0.04,28850.0,13910.0,-33670.0
32.7588731,35.0228386,477.52,-0.07075,0.0485,0.9815,-0.26,0.28,0.1,28920.0,13990.0,-33680.0
32.7588731,35.0228386,477.52,-0.07425,0.05525,0.98825,0.86,0.58,0.08,28860.0,13940.0,-33680.0
32.7588731,35.0228386,477.52,-0.0725,0.025,1.01075,0.44,0.16,0.08,28850.0,13950.0,-33680.0
32.7588731,35.0228386,477.52,-0.07575,0.02775,1.00275,-0.88,-0.26,0.02,28900.0,14070.0,-33680.0
32.7588731,35.0228386,477.52,-0.07475,0.05225,0.98,-0.48,-0.32,-0.08,28900.0,14070.0,-33680.0
32.7588731,35.0228386,477.52,-0.0635,0.03325,0.99225,0.66,-0.18,-0.02,28910.0,14020.0,-33680.0
32.7588731,35.0228386,477.52,-0.0585,0.018,1.01125,0.3,-0.24,0.02,28900.0,14000.0,-33680.0
32.7588731,35.0228386,477.52,-0.06525,0.0465,0.99225,-0.32,-0.02,0.0,28840.0,13930.0,-33670.0
32.7588731,35.0228386,477.52,-0.0715,0.054,0.9895,-0.02,0.42,0.04,28780.0,13890.0,-33670.0
32.7588731,35.0228386,477.52,-0.07175,0.01975,1.00275,0.08,0.38,0.02,28750.0,13850.0,-33670.0
32.7588731,35.0228386,477.52,-0.07375,0.02025,1.00025,-0.22,-0.08,0.04,28800.0,13860.0,-33670.0
32.7588731,35.0228386,477.52,-0.0765,0.05725,0.9825,0.16,-0.18,0.04,28790.0,13850.0,-33670.0
32.7588731,35.0228386,477.52,-0.0695,0.047,0.997,0.52,-0.2,0.02,28790.0,13870.0,-33670.0
32.7588731,35.0228386,477.52,-0.06125,0.0155,1.01025,-0.22,-0.28,-0.08,28820.0,13960.0,-33680.0
32.7588731,35.0228386,477.52,-0.063,0.03525,0.9905,-0.62,-0.18,0.02,28820.0,13910.0,-33670.0
32.7588731,35.0228386,477.52,-0.069,0.0615,0.9825,0.4,0.26,-0.02,28820.0,13880.0,-33670.0
32.7588731,35.0228386,477.52,-0.06925,0.03675,1.00475,0.66,0.36,0.04,28820.0,13860.0,-33670.0
32.7588731,35.0228386,477.52,-0.0725,0.0185,1.01125,-0.46,0.12,0.08,28810.0,13940.0,-33680.0
32.7588731,35.0228386,477.52,-0.078,0.04475,0.98475,-0.76,0.02,0.0,28850.0,13970.0,-33680.0
32.7588731,35.0228386,477.52,-0.0735,0.04875,0.98225,0.4,-0.04,0.02,28890.0,14000.0,-33680.0
32.7588731,35.0228386,477.52,-0.06175,0.024,1.0035,0.52,-0.24,-0.06,28850.0,14020.0,-33680.0
32.7588731,35.0228386,477.52,-0.06025,0.03075,1.005,-0.24,-0.4,0.0,28840.0,13940.0,-33670.0
32.7588731,35.0228386,477.52,-0.0675,0.055,0.98725,-0.44,0.08,0.02,28870.0,13930.0,-33670.0
32.7588731,35.0228386,477.52,-0.07,0.03375,0.99675,0.14,0.52,0.04,28910.0,13950.0,-33680.0
32.7588731,35.0228386,477.52,-0.071,0.011,1.00625,0.06,0.34,0.1,28950.0,13680.0,-33660.0
32.7588731,35.0228386,477.52,-0.075,0.0425,0.988,-0.02,-0.08,0.0,28960.0,13480.0,-33650.0
32.7588731,35.0228386,477.52,-0.073,0.0625,0.985,0.46,-0.3,0.0,28940.0,13370.0,-33650.0
32.7588731,35.0228386,477.52,-0.06225,0.03,1.00425,0.14,-0.44,-0.1,28990.0,13340.0,-33640.0
32.7588731,35.0228386,477.52,-0.06175,0.01475,1.007,-0.66,-0.24,0.02,29040.0,13340.0,-33640.0
32.7588731,35.0228386,477.52,-0.0705,0.04825,0.98,-0.2,0.2,-0.06,28960.0,13420.0,-33650.0
32.7588731,35.0228386,477.52,-0.07425,0.05125,0.9905,0.84,0.72,0.1,28860.0,13650.0,-33660.0
32.7588731,35.0228386,477.52,-0.072,0.022,1.01175,0.3,0.28,0.06,28840.0,13750.0,-33660.0
32.7588731,35.0228386,477.52,-0.0745,0.03125,0.999,-0.8,-0.22,0.04,28840.0,13850.0,-33670.0
32.7588731,35.0228386,477.52,-0.07325,0.05475,0.98,-0.38,-0.36,-0.02,28880.0,13980.0,-33680.0
32.7588731,35.0228386,477.52,-0.062,0.03375,0.995,0.64,-0.26,0.04,28870.0,13940.0,-33670.0
32.7588731,35.0228386,477.52,-0.059,0.01525,1.00925,0.14,-0.22,-0.08,28830.0,13910.0,-33670.0
32.7588731,35.0228386,477.52,-0.06825,0.0425,0.99125,-0.44,0.18,-0.02,28790.0,13890.0,-33670.0
32.7588731,35.0228386,477.52,-0.0755,0.05175,0.98675,0.06,0.52,0.02,28830.0,13910.0,-33670.0
32.7588731,35.0228386,477.52,-0.07375,0.0185,1.00375,0.3,0.38,0.12,28850.0,13960.0,-33670.0
32.7588731,35.0228386,477.52,-0.07325,0.0215,1.0025,-0.12,-0.2,0.04,28820.0,13970.0,-33670.0
32.7588731,35.0228386,477.52,-0.072,0.05875,0.98175,0.06,-0.42,0.06,28800.0,13960.0,-33670.0
32.7588731,35.0228386,477.52,-0.063,0.0465,0.99725,0.42,-0.32,-0.04,28840.0,13990.0,-33670.0
32.7588731,35.0228386,477.52,-0.05825,0.011,1.0135,-0.24,-0.26,-0.04,28850.0,13990.0,-33670.0
32.7588731,35.0228386,477.53,-0.06525,0.02975,0.9895,-0.64,0.16,0.0,28930.0,14130.0,-33680.0
32.7588731,35.0228386,477.53,-0.07425,0.0605,0.97925,0.38,0.58,0.08,28930.0,14140.0,-33680.0
32.7588731,35.0228386,477.53,-0.07375,0.03875,1.0035,0.78,0.48,0.08,28880.0,14050.0,-33680.0
32.7588731,35.0228386,477.53,-0.07425,0.01975,1.00975,-0.4,-0.24,-0.06,28870.0,14000.0,-33670.0
32.7588731,35.0228386,477.53,-0.07775,0.043,0.9885,-0.9,-0.42,-0.06,28880.0,13960.0,-33670.0
32.7588731,35.0228386,477.53,-0.07175,0.04525,0.98275,0.18,-0.16,0.0,28870.0,14000.0,-33670.0
32.7588731,35.0228386,477.53,-0.06,0.0195,1.005,0.64,-0.22,0.0,28870.0,13980.0,-33670.0
32.7588731,35.0228386,477.53,-0.0605,0.02975,1.003,-0.12,-0.22,0.0,28890.0,13990.0,-33670.0
32.7588731,35.0228386,477.53,-0.06825,0.05925,0.98675,-0.24,0.14,-0.02,28870.0,13950.0,-33670.0
32.7588731,35.0228386,477.53,-0.0705,0.03575,0.99775,0.08,0.3,0.0,28830.0,13960.0,-33670.0
32.7588731,35.0228386,477.53,-0.07175,0.00875,1.0085,-0.12,0.24,0.0,28890.0,14080.0,-33680.0
32.7588731,35.0228386,477.53,-0.0765,0.0375,0.98725,-0.18,-0.1,0.04,28870.0,14010.0,-33670.0
32.7588731,35.0228386,477.53,-0.07575,0.0615,0.98225,0.56,-0.06,-0.04,28860.0,13940.0,-33670.0
32.7588731,35.0228386,477.53,-0.0655,0.03025,1.008,0.3,-0.22,0.04,28840.0,13890.0,-33670.0
32.7588731,35.0228386,477.53,-0.062,0.01525,1.00575,-0.76,-0.3,-0.04,28830.0,13880.0,-33670.0
32.7588731,35.0228386,477.53,-0.067,0.0505,0.9815,-0.36,-0.02,0.0,28840.0,13940.0,-33670.0
32.7588731,35.0228386,477.53,-0.06975,0.0535,0.9895,0.84,0.36,0.04,28900.0,14040.0,-33680.0
32.7588731,35.0228386,477.53,-0.0695,0.02325,1.01025,0.34,0.2,0.04,28900.0,13970.0,-33670.0
32.7588731,35.0228386,477.53,-0.07525,0.0275,1.0025,-0.84,0.02,0.06,28840.0,13910.0,-33670.0
32.7588731,35.0228386,477.53,-0.0795,0.05275,0.978,-0.48,-0.06,-0.04,28850.0,13920.0,-33670.0
32.7588731,35.0228386,477.53,-0.07025,0.03475,0.99075,0.64,-0.18,0.02,28890.0,14030.0,-33680.0
32.7588731,35.0228386,477.53,-0.0615,0.0175,1.01025,0.26,-0.4,0.0,28860.0,13990.0,-33680.0
32.7588731,35.0228386,477.53,-0.063,0.04525,0.99175,-0.36,-0.3,-0.08,28880.0,13910.0,-33670.0
32.7588731,35.0228386,477.53,-0.06825,0.05375,0.98925,-0.1,0.26,0.0,28900.0,13880.0,-33660.0
32.7588731,35.0228386,477.53,-0.06775,0.01925,1.00525,0.06,0.32,0.04,28850.0,13850.0,-33660.0
32.7588731,35.0228386,477.53,-0.07225,0.0175,1.00025,-0.16,0.2,0.06,28850.0,13860.0,-33670.0
32.7588731,35.0228386,477.53,-0.0775,0.0565,0.9825,0.12,-0.02,-0.02,28840.0,13850.0,-33670.0
32.7588731,35.0228386,477.53,-0.07225,0.05125,0.994,0.48,-0.18,-0.02,28830.0,13860.0,-33670.0
32.7588731,35.0228386,477.53,-0.062,0.01475,1.01075,-0.2,-0.3,0.02,28810.0,13820.0,-33670.0
32.7588731,35.0228386,477.53,-0.06275,0.02825,0.99375,-0.78,-0.26,0.02,28820.0,13840.0,-33670.0
32.7588731,35.0228386,477.53,-0.06975,0.05925,0.9765,0.28,0.28,0.04,28800.0,13880.0,-33670.0
32.7588731,35.0228386,477.53,-0.069,0.038,1.002,0.84,0.38,0.06,28770.0,13860.0,-33670.0
32.7588731,35.0228386,477.53,-0.072,0.0175,1.01325,-0.24,0.14,0.06,28800.0,13830.0,-33670.0
32.7588731,35.0228386,477.53,-0.07825,0.04275,0.987,-0.78,0.04,0.0,28770.0,13790.0,-33670.0
32.7588731,35.0228386,477.53,-0.0745,0.04925,0.98075,0.16,-0.18,0.0,28800.0,13810.0,-33670.0
32.7588731,35.0228386,477.53,-0.062,0.02175,1.0045,0.52,-0.32,0.04,28830.0,13910.0,-33670.0
32.7588731,35.0228386,477.53,-0.06025,0.0265,1.003,-0.12,-0.46,-0.08,28820.0,13910.0,-33670.0
32.7588731,35.0228386,477.53,-0.068,0.05625,0.9865,-0.34,0.04,0.0,28870.0,13920.0,-33670.0
32.7588731,35.0228386,477.53,-0.07075,0.03675,0.99625,0.22,0.56,0.08,28830.0,13830.0,-33670.0
32.7588731,35.0228386,477.53,-0.072,0.00875,1.0085,-0.08,0.4,0.06,28800.0,13840.0,-33670.0
32.7588731,35.0228386,477.53,-0.07675,0.0365,0.99075,-0.08,0.04,0.0,28850.0,14030.0,-33680.0
32.7588731,35.0228386,477.53,-0.0745,0.06375,0.981,0.44,-0.24,0.0,28940.0,14130.0,-33690.0
32.7588731,35.0228386,477.53,-0.0625,0.0315,1.006,0.3,-0.42,-0.02,28940.0,14120.0,-33690.0
32.7588731,35.0228386,477.53,-0.06,0.013,1.008,-0.7,-0.4,-0.08,28910.0,14120.0,-33690.0
32.7588731,35.0228386,477.53,-0.06875,0.047,0.98175,-0.42,0.02,0.08,28940.0,14100.0,-33680.0
32.7588731,35.0228386,477.53,-0.07325,0.05225,0.988,0.82,0.66,0.06,28950.0,14110.0,-33690.0
32.7588731,35.0228386,477.53,-0.07275,0.0235,1.012,0.48,0.4,0.16,28940.0,14100.0,-33680.0
32.7588731,35.0228386,477.53,-0.077,0.02875,1.00275,-0.8,-0.08,-0.02,28960.0,14120.0,-33680.0
32.7588731,35.0228386,477.53,-0.0765,0.05425,0.9785,-0.4,-0.3,0.02,28930.0,14020.0,-33680.0
32.7588731,35.0228386,477.53,-0.06375,0.035,0.993,0.48,-0.36,0.04,28880.0,13930.0,-33670.0
32.7588731,35.0228386,477.53,-0.0565,0.01625,1.0085,0.24,-0.42,-0.06,28900.0,13960.0,-33670.0
32.7588731,35.0228386,477.53,-0.0655,0.044,0.9945,-0.34,0.0,-0.04,28890.0,13870.0,-33670.0
32.7588731,35.0228386,477.53,-0.073,0.053,0.98775,-0.02,0.58,0.02,28850.0,13850.0,-33670.0
32.7588731,35.0228386,477.53,-0.0735,0.01875,1.004,0.12,0.54,0.04,28850.0,13820.0,-33670.0
32.7588731,35.0228386,477.53,-0.0755,0.01925,1.002,-0.22,0.0,0.0,28860.0,13840.0,-33660.0
32.7588731,35.0228386,477.53,-0.0755,0.05875,0.98,0.18,-0.38,0.06,28840.0,13840.0,-33670.0
32.7588731,35.0228386,477.53,-0.0655,0.04825,0.995,0.52,-0.5,0.0,28860.0,13940.0,-33670.0
32.7588731,35.0228386,477.53,-0.05725,0.01275,1.01425,-0.24,-0.38,-0.08,28890.0,13980.0,-33670.0
32.7588731,35.0228386,477.53,-0.064,0.03175,0.992,-0.68,0.04,-0.04,28840.0,13940.0,-33670.0
32.7588731,35.0228386,477.53,-0.0725,0.06075,0.9795,0.42,0.56,0.0,28850.0,13950.0,-33670.0
32.758873,35.0228386,477.53,-0.07325,0.037,1.00425,0.94,0.58,0.08,28920.0,14080.0,-33680.0
32.758873,35.0228386,477.53,-0.0745,0.01975,1.0105,-0.42,-0.08,0.0,28880.0,14040.0,-33680.0
32.758873,35.0228386,477.53,-0.078,0.04525,0.98675,-0.82,-0.26,-0.08,28840.0,13960.0,-33670.0
32.758873,35.0228386,477.53,-0.0695,0.04725,0.98025,0.18,-0.32,-0.04,28840.0,13920.0,-33670.0
32.758873,35.0228386,477.53,-0.05775,0.01975,1.00575,0.54,-0.32,0.0,28820.0,13880.0,-33670.0
32.758873,35.0228386,477.53,-0.06175,0.03125,1.0035,-0.14,-0.16,0.0,28850.0,13880.0,-33670.0
32.758873,35.0228386,477.53,-0.071,0.05775,0.986,-0.28,0.34,0.0,28850.0,13880.0,-33670.0
32.758873,35.0228386,477.53,-0.07225,0.03325,0.9985,0.14,0.54,0.06,28830.0,13920.0,-33670.0
32.758873,35.0228386,477.53,-0.0725,0.01075,1.00575,-0.08,0.18,0.02,28800.0,13960.0,-33680.0
32.758873,35.0228386,477.53,-0.075,0.043,0.98725,-0.08,-0.26,0.0,28800.0,13990.0,-33680.0
32.758873,35.0228386,477.53,-0.07125,0.06025,0.9845,0.54,-0.22,-0.02,28850.0,14070.0,-33680.0
32.758873,35.0228386,477.53,-0.06125,0.02575,1.00825,0.1,-0.32,-0.04,28840.0,14000.0,-33680.0
32.758873,35.0228386,477.53,-0.06325,0.018,1.0015,-0.78,-0.14,0.0,28850.0,13980.0,-33670.0
32.758873,35.0228386,477.53,-0.07175,0.053,0.98125,-0.2,0.24,0.02,28870.0,13960.0,-33670.0
32.758873,35.0228386,477.53,-0.07375,0.049,0.9915,0.86,0.56,0.0,28860.0,13990.0,-33670.0
32.758873,35.0228386,477.53,-0.07175,0.01925,1.013,0.2,0.02,0.08,28910.0,14070.0,-33680.0
32.758873,35.0228386,477.53,-0.07525,0.03225,0.99725,-0.84,-0.14,-0.08,28920.0,14130.0,-33680.0
32.758873,35.0228386,477.53,-0.0735,0.054,0.9775,-0.22,-0.22,-0.02,28890.0,14150.0,-33680.0
32.758873,35.0228386,477.53,-0.062,0.03125,0.99625,0.66,-0.26,-0.04,28900.0,14120.0,-33680.0
32.758873,35.0228386,477.53,-0.05925,0.02025,1.00675,0.1,-0.26,0.04,28920.0,14130.0,-33680.0
32.758873,35.0228386,477.53,-0.06875,0.0485,0.994,-0.36,0.08,-0.06,28960.0,14220.0,-33690.0
32.758873,35.0228386,477.53,-0.075,0.0455,0.98875,0.04,0.62,0.04,28980.0,14230.0,-33690.0
32.758873,35.0228386,477.53,-0.073,0.013,1.00725,0.0,0.44,0.08,28950.0,14150.0,-33680.0
32.758873,35.0228386,477.53,-0.0735,0.02725,0.9955,-0.14,-0.12,0.02,28930.0,14120.0,-33680.0
32.758873,35.0228386,477.53,-0.072,0.0635,0.98175,0.26,-0.4,-0.06,28900.0,14040.0,-33670.0
32.758873,35.0228386,477.53,-0.062,0.0415,1.0005,0.38,-0.38,-0.06,28900.0,14030.0,-33670.0
32.758873,35.0228386,477.53,-0.05875,0.01125,1.0105,-0.6,-0.28,-0.04,28900.0,13860.0,-33670.0
32.758873,35.0228386,477.53,-0.06975,0.03775,0.988,-0.58,0.26,-0.02,28950.0,13640.0,-33660.0
32.758873,35.0228386,477.53,-0.0765,0.05725,0.981,0.7,0.6,0.06,28970.0,13490.0,-33650.0
32.758873,35.0228386,477.53,-0.0745,0.03,1.00875,0.7,0.36,0.12,29010.0,13470.0,-33650.0
32.758873,35.0228386,477.53,-0.07425,0.0245,1.00675,-0.6,-0.26,0.04,29060.0,13520.0,-33650.0
32.758873,35.0228386,477.53,-0.074,0.0515,0.984,-0.66,-0.5,-0.04,29020.0,13410.0,-33650.0
32.758873,35.0228386,477.53,-0.063,0.0415,0.985,0.26,-0.32,-0.04,28960.0,13510.0,-33650.0
32.758873,35.0228386,477.53,-0.05575,0.01725,1.0095,0.38,-0.22,0.0,28910.0,13680.0,-33660.0
32.758873,35.0228386,477.53,-0.066,0.03725,0.99775,-0.3,0.1,-0.06,28900.0,13770.0,-33660.0
32.758873,35.0228386,477.53,-0.07625,0.0545,0.9885,-0.12,0.62,0.14,28910.0,13880.0,-33670.0
32.758873,35.0228386,477.53,-0.076,0.02425,1.001,0.06,0.54,0.08,28930.0,13980.0,-33670.0
32.758873,35.0228386,477.53,-0.0735,0.016,1.0025,-0.1,-0.12,0.0,28920.0,13990.0,-33670.0
32.758873,35.0228386,477.53,-0.0725,0.05375,0.98425,0.14,-0.48,-0.04,28930.0,13970.0,-33670.0
32.758873,35.0228386,477.53,-0.0635,0.054,0.99075,0.52,-0.46,0.0,28890.0,13980.0,-33670.0
32.758873,35.0228386,477.53,-0.0575,0.01475,1.01325,-0.24,-0.22,-0.12,28920.0,14090.0,-33680.0
32.758873,35.0228386,477.53,-0.0655,0.02325,0.99625,-0.78,0.2,-0.02,28960.0,14110.0,-33680.0
32.758873,35.0228386,477.53,-0.075,0.059,0.977,0.2,0.72,0.1,28910.0,14020.0,-33680.0
32.758873,35.0228386,477.53,-0.07625,0.043,0.999,0.86,0.48,0.08,28870.0,13940.0,-33670.0
32.758873,35.0228386,477.53,-0.074,0.02,1.01225,-0.16,-0.22,0.08,28860.0,13890.0,-33670.0
32.758873,35.0228386,477.53,-0.07575,0.04,0.99,-0.94,-0.48,-0.04,28840.0,13900.0,-33670.0
32.758873,35.0228386,477.53,-0.06875,0.04725,0.98225,-0.04,-0.3,0.0,28850.0,13880.0,-33670.0
32.758873,35.0228386,477.53,-0.05775,0.01925,0.998,0.62,-0.14,-0.02,28850.0,13870.0,-33670.0
32.758873,35.0228386,477.53,-0.0615,0.0285,1.00775,0.06,-0.04,0.02,28800.0,13850.0,-33670.0
32.758873,35.0228386,477.53,-0.0725,0.0565,0.986,-0.24,0.22,0.0,28780.0,13890.0,-33670.0
32.758873,35.0228386,477.53,-0.074,0.03675,0.999,0.02,0.44,0.1,28860.0,13970.0,-33680.0
32.758873,35.0228386,477.53,-0.073,0.00875,1.003,-0.2,0.22,0.0,28860.0,13930.0,-33670.0
32.758873,35.0228386,477.53,-0.0745,0.037,0.9925,-0.04,-0.2,0.0,28850.0,13850.0,-33670.0
32.758873,35.0228386,477.53,-0.06925,0.0615,0.9805,0.56,-0.38,0.0,28830.0,13830.0,-33670.0
32.758873,35.0228386,477.53,-0.06075,0.02925,1.011,0.24,-0.36,-0.04,28790.0,13800.0,-33670.0
32.758873,35.0228386,477.53,-0.06125,0.01375,1.0065,-0.84,-0.22,-0.04,28800.0,13860.0,-33670.0
32.758873,35.0228386,477.53,-0.07175,0.049,0.98325,-0.38,0.42,-0.02,28840.0,13900.0,-33670.0
32.758873,35.0228386,477.53,-0.07325,0.05225,0.985,0.84,0.64,0.08,28830.0,13860.0,-33670.0
32.758873,35.0228386,477.53,-0.0725,0.0235,1.0115,0.56,0.2,0.1,28780.0,13830.0,-33670.0
32.758873,35.0228386,477.53,-0.07575,0.0295,1.00275,-0.76,-0.34,0.04,28770.0,13840.0,-33670.0
32.758873,35.0228386,477.53,-0.0725,0.054,0.9785,-0.52,-0.38,-0.04,28870.0,13980.0,-33680.0
32.758873,35.0228386,477.53,-0.06175,0.03175,0.9935,0.46,-0.3,-0.04,28900.0,14030.0,-33680.0
32.758873,35.0228386,477.53,-0.05825,0.01975,1.006,0.36,-0.22,0.02,28880.0,13940.0,-33670.0
32.758873,35.0228386,477.53,-0.0685,0.04825,0.995,-0.22,0.08,-0.02,28840.0,13890.0,-33670.0
32.758873,35.0228386,477.53,-0.072,0.0515,0.98925,-0.1,0.54,0.06,28820.0,13860.0,-33670.0
32.758873,35.0228386,477.53,-0.072,0.01575,1.00725,-0.02,0.4,0.04,28840.0,13840.0,-33670.0
32.758873,35.0228386,477.53,-0.07375,0.0235,0.99525,-0.2,0.0,0.04,28820.0,13800.0,-33660.0
32.758873,35.0228386,477.53,-0.07275,0.0615,0.9815,0.36,-0.3,-0.04,28780.0,13820.0,-33670.0
32.758873,35.0228386,477.53,-0.06575,0.0445,0.9985,0.52,-0.36,-0.06,28790.0,13810.0,-33670.0
32.758873,35.0228386,477.53,-0.05825,0.01375,1.01325,-0.5,-0.34,-0.02,28830.0,13850.0,-33670.0
32.758873,35.0228386,477.53,-0.06625,0.03625,0.9895,-0.78,0.12,-0.06,28830.0,13900.0,-33670.0
32.758873,35.0228386,477.53,-0.07025,0.06,0.9785,0.52,0.52,0.08,28840.0,13960.0,-33680.0
32.758873,35.0228386,477.53,-0.0705,0.03275,1.00475,0.82,0.5,0.12,28820.0,13890.0,-33670.0
32.758873,35.0228386,477.53,-0.074,0.02275,1.011,-0.46,-0.12,0.0,28800.0,13870.0,-33670.0
32.758873,35.0228386,477.53,-0.07775,0.04875,0.985,-0.86,-0.26,-0.06,28820.0,13830.0,-33670.0
32.758873,35.0228386,477.53,-0.0685,0.043,0.984,0.16,-0.22,-0.06,28890.0,13910.0,-33670.0
32.758873,35.0228386,477.53,-0.05925,0.0185,1.0065,0.48,-0.28,0.0,28910.0,14020.0,-33680.0
32.758873,35.0228386,477.53,-0.06275,0.03625,1.0005,-0.14,-0.2,0.02,28880.0,14010.0,-33680.0
32.758873,35.0228386,477.53,-0.06925,0.05775,0.98875,-0.18,0.24,-0.02,28850.0,13910.0,-33670.0
32.758873,35.0228386,477.53,-0.07025,0.02875,1.0005,-0.04,0.4,-0.02,28840.0,13930.0,-33670.0
32.758873,35.0228386,477.53,-0.07125,0.013,1.003,-0.24,0.12,-0.02,28950.0,14110.0,-33680.0
32.758873,35.0228386,477.53,-0.0755,0.04925,0.98575,0.06,-0.1,0.0,28970.0,14210.0,-33690.0
32.758873,35.0228386,477.53,-0.07075,0.056,0.98875,0.54,-0.16,-0.06,28950.0,14210.0,-33690.0
32.758873,35.0228386,477.53,-0.0615,0.02,1.01125,-0.08,-0.28,-0.02,28890.0,14100.0,-33680.0
32.758873,35.0228386,477.53,-0.0635,0.023,0.9965,-0.78,-0.24,-0.06,28900.0,14050.0,-33680.0
32.758873,35.0228386,477.53,-0.0705,0.05675,0.98,0.06,0.24,0.06,28880.0,13970.0,-33670.0
32.758873,35.0228386,477.53,-0.07125,0.043,0.9965,0.76,0.44,0.06,28860.0,13930.0,-33670.0
32.758873,35.0228386,477.53,-0.07125,0.0185,1.01675,-0.08,0.08,0.1,28850.0,13900.0,-33670.0
32.758873,35.0228386,477.53,-0.0765,0.038,0.99175,-0.9,-0.02,-0.02,28870.0,13940.0,-33670.0
32.758873,35.0228386,477.53,-0.0725,0.05175,0.9805,-0.08,-0.14,-0.02,28860.0,13950.0,-33670.0
32.758873,35.0228386,477.53,-0.06125,0.02425,1.0,0.6,-0.28,0.0,28910.0,14020.0,-33670.0
32.758873,35.0228386,477.53,-0.06,0.02375,1.00525,-0.06,-0.4,-0.02,28890.0,13960.0,-33670.0
32.758873,35.0228386,477.53,-0.06925,0.05275,0.98975,-0.34,0.06,0.06,28900.0,14020.0,-33670.0
32.758873,35.0228386,477.53,-0.07325,0.039,0.99275,0.04,0.54,0.02,28910.0,13980.0,-33670.0
32.758873,35.0228386,477.53,-0.07325,0.00925,1.0065,-0.02,0.38,0.12,28930.0,13960.0,-33670.0
32.758873,35.0228386,477.53,-0.076,0.03425,0.992,-0.1,-0.02,-0.02,28890.0,13960.0,-33670.0
32.758873,35.0228386,477.53,-0.07275,0.0605,0.98275,0.44,-0.24,-0.06,28870.0,14000.0,-33670.0
32.758873,35.0228386,477.53,-0.06075,0.033,1.0035,0.2,-0.48,-0.02,28890.0,14060.0,-33680.0
32.758873,35.0228386,477.53,-0.0595,0.01375,1.00825,-0.62,-0.42,-0.02,28870.0,14020.0,-33670.0
32.758873,35.0228386,477.53,-0.069,0.04575,0.984,-0.46,0.16,0.02,28880.0,14030.0,-33670.0
32.758873,35.0228386,477.54,-0.074,0.05075,0.9865,0.74,0.82,0.1,28920.0,14150.0,-33680.0
32.758873,35.0228386,477.54,-0.0735,0.023,1.01125,0.5,0.46,0.14,28870.0,14070.0,-33680.0
32.758873,35.0228386,477.54,-0.07325,0.032,0.99825,-0.64,-0.12,0.0,28900.0,14010.0,-33670.0
32.758873,35.0228386,477.54,-0.07425,0.0555,0.9805,-0.46,-0.5,-0.08,28900.0,13980.0,-33670.0
32.758873,35.0228386,477.54,-0.06125,0.034,0.99175,0.4,-0.56,-0.02,28840.0,13920.0,-33670.0
32.758873,35.0228386,477.54,-0.056,0.0165,1.01125,0.2,-0.34,-0.08,28830.0,13910.0,-33670.0
32.758873,35.0228386,477.54,-0.0665,0.044,0.99225,-0.3,0.16,0.0,28810.0,13910.0,-33670.0
32.758873,35.0228386,477.54,-0.07425,0.05125,0.9905,0.06,0.8,0.06,28840.0,13890.0,-33670.0
32.758873,35.0228386,477.54,-0.07375,0.01925,1.00425,0.04,0.64,0.12,28840.0,13880.0,-33670.0
32.758873,35.0228386,477.54,-0.07125,0.0255,0.998,-0.28,-0.08,0.02,28840.0,13900.0,-33670.0
32.758873,35.0228386,477.54,-0.0745,0.0595,0.982,0.18,-0.54,-0.08,28840.0,13960.0,-33670.0
32.758873,35.0228386,477.54,-0.06325,0.04475,0.9945,0.42,-0.56,-0.06,28820.0,13930.0,-33670.0
32.758873,35.0228386,477.54,-0.057,0.012,1.012,-0.32,-0.42,-0.08,28840.0,13890.0,-33670.0
32.758873,35.0228386,477.54,-0.065,0.03575,0.9895,-0.66,0.22,0.04,28880.0,13910.0,-33670.0
32.758873,35.0228386,477.54,-0.07375,0.06,0.9795,0.46,0.86,0.08,28890.0,13980.0,-33670.0
32.758873,35.0228386,477.54,-0.07325,0.03725,1.00175,0.76,0.58,0.12,28870.0,13970.0,-33670.0
32.758873,35.0228386,477.54,-0.07125,0.02375,1.0075,-0.42,-0.26,-0.02,28870.0,14000.0,-33680.0
32.758873,35.0228386,477.54,-0.07775,0.0475,0.98725,-0.8,-0.5,-0.04,28840.0,13990.0,-33680.0
32.758873,35.0228386,477.54,-0.06775,0.042,0.985,0.14,-0.42,-0.02,28860.0,13950.0,-33680.0
32.758873,35.0228386,477.54,-0.0575,0.01675,1.0065,0.5,-0.22,-0.04,28890.0,13940.0,-33670.0
32.758873,35.0228386,477.54,-0.06175,0.03675,0.9995,-0.06,-0.06,-0.04,28890.0,14050.0,-33680.0
32.758873,35.0228386,477.54,-0.07025,0.058,0.9895,-0.18,0.34,0.12,28860.0,13990.0,-33680.0
32.758873,35.0228386,477.54,-0.07075,0.02975,1.00075,-0.06,0.44,0.04,28830.0,13900.0,-33670.0
32.758873,35.0228386,477.54,-0.07025,0.01125,1.00325,-0.32,0.12,0.04,28780.0,13860.0,-33670.0
32.758873,35.0228386,477.54,-0.07675,0.04625,0.984,-0.04,-0.16,0.04,28770.0,13820.0,-33670.0
32.758873,35.0228386,477.54,-0.07175,0.05575,0.98775,0.7,-0.26,-0.02,28790.0,13810.0,-33670.0
32.758873,35.0228386,477.54,-0.06225,0.0205,1.013,0.04,-0.32,-0.08,28820.0,13810.0,-33670.0
32.758873,35.0228386,477.54,-0.0625,0.0215,0.99875,-0.88,-0.26,0.02,28840.0,13850.0,-33670.0
32.758873,35.0228386,477.54,-0.0685,0.057,0.979,-0.06,0.2,0.06,28820.0,13840.0,-33670.0
32.758873,35.0228386,477.54,-0.069,0.04625,0.995,0.9,0.48,0.08,28820.0,13860.0,-33670.0
32.758873,35.0228386,477.54,-0.07075,0.01675,1.01575,0.08,0.06,0.06,28840.0,13920.0,-33670.0
32.758873,35.0228386,477.54,-0.077,0.03375,0.99275,-0.94,-0.02,0.06,28820.0,13830.0,-33670.0
32.758873,35.0228386,477.54,-0.07575,0.05225,0.9785,-0.12,-0.04,0.0,28840.0,13620.0,-33660.0
32.758873,35.0228386,477.54,-0.065,0.02775,0.9975,0.7,-0.24,-0.02,28900.0,13400.0,-33650.0
32.758873,35.0228386,477.54,-0.061,0.02225,1.0085,0.14,-0.42,-0.06,28930.0,13310.0,-33640.0
32.758873,35.0228386,477.54,-0.0665,0.0505,0.99075,-0.38,-0.08,-0.02,28950.0,13300.0,-33640.0
32.758873,35.0228386,477.54,-0.07075,0.0435,0.9935,-0.02,0.48,0.0,28940.0,13270.0,-33650.0
32.758873,35.0228386,477.54,-0.06975,0.0115,1.00475,0.14,0.34,0.06,28970.0,13260.0,-33640.0
32.758873,35.0228386,477.54,-0.074,0.0295,0.994,-0.12,0.06,0.02,28940.0,13430.0,-33650.0
32.758873,35.0228386,477.54,-0.076,0.06225,0.98425,0.34,-0.1,-0.02,28850.0,13620.0,-33660.0
32.758873,35.0228386,477.54,-0.06725,0.03825,1.00225,0.28,-0.22,-0.02,28850.0,13870.0,-33680.0
32.758873,35.0228386,477.54,-0.0625,0.0115,1.0095,-0.66,-0.24,-0.04,28870.0,13950.0,-33680.0
32.758873,35.0228386,477.54,-0.0675,0.0415,0.9845,-0.42,-0.06,0.06,28820.0,13880.0,-33670.0
32.758873,35.0228386,477.54,-0.072,0.058,0.98275,0.68,0.36,0.0,28810.0,13850.0,-33670.0
32.758873,35.0228386,477.54,-0.0705,0.028,1.0115,0.56,0.34,0.12,28810.0,13820.0,-33670.0
32.758873,35.0228386,477.54,-0.07325,0.022,1.005,-0.7,-0.04,0.02,28800.0,13840.0,-33670.0
32.758873,35.0228386,477.54,-0.0765,0.05225,0.982,-0.62,-0.1,-0.08,28830.0,13820.0,-33670.0
32.758873,35.0228386,477.54,-0.0685,0.0435,0.986,0.5,-0.1,-0.02,28860.0,13820.0,-33660.0
32.758873,35.0228386,477.54,-0.05975,0.01875,1.01075,0.4,-0.34,-0.08,28810.0,13810.0,-33670.0
32.758873,35.0228386,477.54,-0.06325,0.036,0.99625,-0.46,-0.26,0.04,28780.0,13880.0,-33670.0
32.758873,35.0228386,477.54,-0.071,0.056,0.98675,-0.18,0.34,-0.06,28840.0,13920.0,-33670.0
32.758873,35.0228386,477.54,-0.07125,0.02675,0.99925,0.2,0.46,0.12,28850.0,13890.0,-33670.0
32.758873,35.0228386,477.54,-0.07175,0.0155,1.00675,0.0,0.12,0.02,28880.0,13850.0,-33660.0
32.758873,35.0228386,477.54,-0.0745,0.05225,0.9855,-0.06,-0.18,0.04,28860.0,13870.0,-33670.0
32.758873,35.0228386,477.54,-0.0685,0.0575,0.98825,0.46,-0.26,-0.02,28810.0,13840.0,-33670.0
32.758873,35.0228386,477.54,-0.05925,0.01875,1.0115,-0.08,-0.26,-0.08,28820.0,13920.0,-33670.0
32.758873,35.0228386,477.54,-0.062,0.02075,0.997,-0.68,-0.16,-0.06,28880.0,14040.0,-33680.0
32.758873,35.0228386,477.54,-0.07125,0.05675,0.97825,0.08,0.36,0.0,28880.0,14020.0,-33680.0
32.758873,35.0228386,477.54,-0.07275,0.047,0.997,0.84,0.54,0.06,28810.0,13960.0,-33670.0
32.758873,35.0228386,477.54,-0.07275,0.01825,1.014,-0.06,0.08,0.06,28820.0,13950.0,-33670.0
32.758873,35.0228386,477.54,-0.077,0.0355,0.9915,-0.94,-0.12,-0.02,28910.0,14070.0,-33680.0
32.758873,35.0228386,477.54,-0.07425,0.05225,0.9785,0.02,-0.22,0.04,28900.0,14040.0,-33680.0
32.758873,35.0228386,477.54,-0.06175,0.028,0.9985,0.7,-0.24,0.02,28880.0,13980.0,-33670.0
32.758873,35.0228386,477.54,-0.05925,0.022,1.00675,0.06,-0.38,-0.02,28850.0,13940.0,-33670.0
32.758873,35.0228386,477.54,-0.06825,0.05175,0.99075,-0.48,0.06,0.02,28830.0,13940.0,-33670.0
32.758873,35.0228386,477.54,-0.073,0.043,0.991,0.08,0.54,0.02,28870.0,13990.0,-33670.0
32.758873,35.0228386,477.54,-0.07225,0.01075,1.008,0.12,0.42,0.04,28870.0,13980.0,-33670.0
32.758873,35.0228386,477.54,-0.07425,0.0305,0.99425,-0.16,-0.08,0.08,28840.0,14000.0,-33670.0
32.758873,35.0228386,477.54,-0.073,0.06475,0.97975,0.32,-0.4,-0.04,28830.0,13960.0,-33670.0
32.758873,35.0228386,477.54,-0.06325,0.038,1.00425,0.26,-0.36,-0.04,28890.0,14010.0,-33670.0
32.758873,35.0228386,477.54,-0.06,0.00925,1.011,-0.6,-0.24,-0.04,28880.0,14030.0,-33670.0
32.758873,35.0228386,477.54,-0.0685,0.0395,0.98425,-0.5,0.1,0.0,28860.0,14040.0,-33680.0
32.758873,35.0228386,477.54,-0.07375,0.0585,0.9835,0.7,0.62,0.0,28840.0,13970.0,-33670.0
32.758873,35.0228386,477.54,-0.07175,0.02925,1.01075,0.58,0.34,0.06,28810.0,13950.0,-33670.0
32.758873,35.0228386,477.54,-0.07275,0.02275,1.00675,-0.84,-0.18,0.02,28850.0,13930.0,-33670.0
32.758873,35.0228386,477.54,-0.07525,0.0505,0.98275,-0.76,-0.3,0.0,28870.0,13990.0,-33670.0
32.758873,35.0228386,477.54,-0.06575,0.0415,0.98425,0.5,-0.18,-0.02,28860.0,14070.0,-33680.0
32.758873,35.0228386,477.54,-0.05825,0.0165,1.01175,0.42,-0.18,-0.02,28860.0,14110.0,-33680.0
32.758873,35.0228386,477.54,-0.06475,0.03575,0.99675,-0.26,0.0,0.06,28880.0,14050.0,-33680.0
32.758873,35.0228386,477.54,-0.074,0.05575,0.987,-0.26,0.4,0.02,28890.0,14020.0,-33680.0
32.758873,35.0228386,477.54,-0.0735,0.02525,0.999,0.1,0.4,-0.02,28940.0,14170.0,-33680.0
32.758873,35.0228386,477.54,-0.07175,0.01425,1.00475,-0.04,-0.08,0.02,28940.0,14240.0,-33690.0
32.758873,35.0228386,477.54,-0.07325,0.05125,0.9835,0.0,-0.36,-0.02,28960.0,14280.0,-33690.0
32.758873,35.0228386,477.54,-0.06825,0.05625,0.991,0.44,-0.22,0.0,28940.0,14170.0,-33680.0
32.758873,35.0228386,477.54,-0.06,0.01825,1.011,-0.12,-0.2,-0.02,28920.0,14050.0,-33680.0
32.758873,35.0228386,477.54,-0.06425,0.0215,0.998,-0.72,0.02,-0.02,28910.0,13990.0,-33670.0
32.758873,35.0228386,477.54,-0.07325,0.05925,0.978,0.2,0.36,0.02,28870.0,13990.0,-33670.0
32.758873,35.0228386,477.54,-0.0735,0.04675,0.998,0.84,0.48,0.06,28880.0,14020.0,-33680.0
32.758873,35.0228386,477.54,-0.07125,0.01825,1.01525,-0.18,-0.08,0.04,28880.0,14010.0,-33680.0
32.758873,35.0228386,477.54,-0.075,0.037,0.99225,-0.9,-0.18,0.04,28900.0,13970.0,-33670.0
32.758873,35.0228386,477.54,-0.072,0.05275,0.977,-0.08,-0.18,-0.04,28940.0,14040.0,-33680.0
32.758873,35.0228386,477.54,-0.06225,0.028,1.00225,0.7,-0.14,0.0,28870.0,13950.0,-33670.0
32.758873,35.0228386,477.54,-0.0605,0.02275,1.0065,-0.04,-0.2,0.02,28820.0,13950.0,-33680.0
32.758873,35.0228386,477.54,-0.06975,0.05375,0.99075,-0.44,0.1,0.06,28830.0,13930.0,-33670.0
32.758873,35.0228386,477.54,-0.073,0.04325,0.99,-0.02,0.4,0.06,28870.0,13900.0,-33670.0
32.758873,35.0228386,477.54,-0.07075,0.01175,1.008,0.1,0.28,0.04,28840.0,13890.0,-33670.0
32.758873,35.0228386,477.54,-0.07325,0.03075,0.9935,-0.16,-0.18,0.04,28860.0,13940.0,-33670.0
32.758873,35.0228386,477.54,-0.07275,0.06425,0.98275,0.36,-0.14,-0.04,28920.0,14060.0,-33680.0
32.758873,35.0228386,477.54,-0.06425,0.03775,1.00125,0.3,-0.24,-0.02,28850.0,13970.0,-33680.0
32.758873,35.0228386,477.54,-0.06125,0.0105,1.0125,-0.58,-0.2,-0.08,28880.0,13970.0,-33680.0
32.758873,35.0228387,477.54,-0.068,0.04175,0.9815,-0.56,0.16,-0.04,28920.0,14080.0,-33680.0
32.758873,35.0228387,477.54,-0.072,0.05875,0.9845,0.78,0.42,0.06,28900.0,14080.0,-33680.0
32.758873,35.0228387,477.54,-0.07075,0.02775,1.009,0.54,0.32,0.04,28850.0,13950.0,-33680.0
32.758873,35.0228387,477.54,-0.07325,0.02225,1.00575,-0.68,-0.08,0.02,28840.0,13900.0,-33670.0
32.758873,35.0228387,477.54,-0.0775,0.0495,0.9805,-0.68,-0.1,-0.08,28810.0,13850.0,-33670.0
32.758873,35.0228387,477.54,-0.06925,0.0415,0.98575,0.5,-0.06,0.04,28780.0,13850.0,-33670.0
32.758873,35.0228387,477.54,-0.06025,0.01775,1.0085,0.48,-0.22,0.04,28810.0,13840.0,-33670.0
32.758873,35.0228387,477.54,-0.06375,0.039,0.998,-0.4,-0.24,0.0,28810.0,13870.0,-33670.0
32.758873,35.0228387,477.54,-0.07125,0.05575,0.988,-0.2,0.26,-0.06,28820.0,13880.0,-33670.0
32.758873,35.0228387,477.54,-0.07075,0.02425,0.9995,0.14,0.48,0.12,28820.0,13880.0,-33670.0
32.758873,35.0228387,477.54,-0.072,0.01375,1.0045,-0.12,0.12,0.02,28840.0,13960.0,-33680.0
32.758873,35.0228387,477.54,-0.0755,0.0525,0.98425,0.12,-0.1,-0.06,28800.0,13930.0,-33680.0
32.758873,35.0228387,477.54,-0.0705,0.0565,0.98925,0.5,-0.22,-0.06,28820.0,13910.0,-33680.0
32.758873,35.0228387,477.54,-0.061,0.017,1.0135,-0.1,-0.32,-0.04,28850.0,13900.0,-33670.0
32.758873,35.0228387,477.54,-0.06325,0.02175,0.99575,-0.72,-0.18,0.0,28820.0,13910.0,-33680.0
32.758873,35.0228387,477.54,-0.071,0.05825,0.97825,0.14,0.26,0.06,28830.0,13950.0,-33680.0
32.758873,35.0228387,477.54,-0.07175,0.04475,0.99925,0.98,0.44,0.1,28890.0,14030.0,-33680.0
32.758873,35.0228387,477.54,-0.07175,0.01875,1.01425,-0.1,0.08,0.08,28890.0,14030.0,-33680.0
32.758873,35.0228387,477.54,-0.07725,0.03675,0.992,-1.02,-0.06,-0.04,28910.0,14020.0,-33680.0
32.758873,35.0228387,477.54,-0.0735,0.052,0.9785,-0.08,-0.14,0.04,28880.0,14000.0,-33680.0
32.758873,35.0228386,477.55,-0.0625,0.02625,1.00075,0.7,-0.18,-0.06,28890.0,14110.0,-33690.0
32.758873,35.0228386,477.55,-0.06025,0.023,1.00725,-0.08,-0.36,0.04,28880.0,14090.0,-33680.0
32.758873,35.0228386,477.55,-0.0685,0.05375,0.98975,-0.4,0.06,-0.02,28900.0,14000.0,-33680.0
32.758873,35.0228386,477.55,-0.07175,0.0425,0.99025,-0.02,0.5,0.02,28850.0,13950.0,-33680.0
32.758873,35.0228386,477.55,-0.0715,0.01025,1.01,0.02,0.36,0.0,28800.0,13890.0,-33670.0
32.758873,35.0228386,477.55,-0.0745,0.03075,0.99225,-0.14,-0.04,0.06,28830.0,13910.0,-33670.0
32.758873,35.0228386,477.55,-0.0745,0.0635,0.98275,0.32,-0.16,0.0,28840.0,13890.0,-33670.0
32.758873,35.0228386,477.55,-0.064,0.03825,1.00175,0.3,-0.3,-0.04,28870.0,13900.0,-33670.0
32.758873,35.0228386,477.55,-0.06075,0.013,1.01025,-0.54,-0.36,-0.04,28870.0,13920.0,-33670.0
32.758873,35.0228386,477.55,-0.0685,0.04325,0.98425,-0.5,0.0,0.0,28900.0,14020.0,-33680.0
32.758873,35.0228386,477.55,-0.07375,0.05575,0.986,0.7,0.52,0.04,28910.0,14080.0,-33680.0
32.758873,35.0228386,477.55,-0.0715,0.02525,1.01025,0.54,0.38,0.06,28900.0,13990.0,-33670.0
32.758873,35.0228386,477.55,-0.0745,0.02425,1.00575,-0.74,-0.06,0.02,28880.0,13950.0,-33670.0
32.758873,35.0228386,477.55,-0.076,0.053,0.97925,-0.52,-0.28,-0.06,28850.0,13930.0,-33670.0
32.758873,35.0228386,477.55,-0.06525,0.04075,0.98825,0.44,-0.28,0.0,28840.0,13900.0,-33670.0
32.758873,35.0228386,477.55,-0.05775,0.016,1.01,0.24,-0.32,-0.04,28870.0,13910.0,-33670.0
32.758873,35.0228386,477.55,-0.0655,0.03875,0.99525,-0.38,-0.1,0.0,28850.0,13990.0,-33670.0
32.758873,35.0228386,477.55,-0.07375,0.05325,0.9865,-0.08,0.48,0.02,28850.0,13970.0,-33670.0
32.758873,35.0228386,477.55,-0.07375,0.02275,1.00325,0.14,0.5,0.08,28880.0,13760.0,-33670.0
32.758873,35.0228386,477.55,-0.0735,0.0165,1.00325,-0.12,0.06,0.04,28920.0,13630.0,-33660.0
32.758873,35.0228386,477.55,-0.07475,0.05525,0.984,0.02,-0.28,0.0,29010.0,13650.0,-33660.0
32.758873,35.0228386,477.55,-0.06575,0.054,0.989,0.48,-0.4,-0.04,29020.0,13550.0,-33660.0
32.758873,35.0228386,477.55,-0.057,0.01675,1.012,-0.16,-0.34,0.02,28980.0,13420.0,-33650.0
32.758873,35.0228386,477.55,-0.0645,0.0255,0.995,-0.74,-0.04,-0.04,28950.0,13360.0,-33650.0
32.758873,35.0228386,477.55,-0.07525,0.0565,0.98125,0.3,0.58,0.04,28910.0,13520.0,-33650.0
32.758873,35.0228386,477.55,-0.0755,0.04025,0.99725,0.78,0.56,0.12,28880.0,13710.0,-33660.0
32.758873,35.0228386,477.55,-0.07525,0.02025,1.01575,-0.1,-0.04,0.04,28890.0,13800.0,-33660.0
32.758873,35.0228386,477.55,-0.0745,0.0435,0.9835,-0.72,-0.4,-0.08,28880.0,13880.0,-33670.0
32.758873,35.0228386,477.55,-0.0675,0.0525,0.9855,0.12,-0.4,-0.06,28830.0,13900.0,-33670.0
32.758873,35.0228386,477.55,-0.056,0.02225,1.00075,0.44,-0.34,-0.06,28820.0,13950.0,-33670.0
32.758873,35.0228386,477.55,-0.061,0.02525,1.008,-0.22,-0.08,-0.04,28910.0,14080.0,-33680.0
32.758873,35.0228386,477.55,-0.074,0.055,0.984,-0.24,0.52,0.0,28900.0,14040.0,-33680.0
32.758873,35.0228386,477.55,-0.077,0.03875,0.998,0.22,0.66,0.06,28860.0,13960.0,-33670.0
32.758873,35.0228386,477.55,-0.074,0.01175,1.00375,-0.08,0.06,0.04,28850.0,13930.0,-33670.0
32.758873,35.0228386,477.55,-0.0725,0.0395,0.9935,-0.16,-0.42,0.0,28820.0,13920.0,-33670.0
32.758873,35.0228386,477.55,-0.0685,0.0615,0.979,0.34,-0.48,-0.08,28850.0,13960.0,-33670.0
32.758873,35.0228386,477.55,-0.0575,0.02825,1.0075,0.2,-0.32,0.02,28900.0,14040.0,-33670.0
32.758873,35.0228386,477.55,-0.06175,0.01475,1.005,-0.62,0.0,0.04,28890.0,14010.0,-33680.0
32.758873,35.0228386,477.55,-0.07375,0.05,0.98325,-0.28,0.5,0.02,28860.0,13940.0,-33670.0
32.758873,35.0228386,477.55,-0.07775,0.051,0.98725,0.76,0.64,0.08,28870.0,13940.0,-33670.0
32.758873,35.0228386,477.55,-0.07425,0.02275,1.0105,0.3,0.06,0.06,28950.0,14060.0,-33680.0
32.758873,35.0228386,477.55,-0.07325,0.03025,1.0005,-0.7,-0.46,0.0,28930.0,14040.0,-33680.0
32.758873,35.0228386,477.55,-0.07025,0.05425,0.979,-0.4,-0.5,-0.08,28900.0,13970.0,-33670.0
32.758873,35.0228386,477.55,-0.0595,0.0305,0.99575,0.48,-0.22,0.02,28890.0,13930.0,-33670.0
32.758873,35.0228386,477.55,-0.0585,0.01725,1.00825,0.1,-0.1,0.04,28860.0,13900.0,-33670.0
32.758873,35.0228386,477.55,-0.07075,0.04675,0.9915,-0.26,0.32,0.0,28860.0,13880.0,-33670.0
32.758873,35.0228386,477.55,-0.07725,0.04975,0.99075,0.08,0.6,0.06,28860.0,13860.0,-33660.0
32.758873,35.0228386,477.55,-0.0745,0.0155,1.004,0.08,0.24,0.06,28850.0,13840.0,-33660.0
32.758873,35.0228386,477.55,-0.07225,0.02375,1.0,-0.28,-0.34,0.04,28860.0,13850.0,-33660.0
32.758873,35.0228386,477.55,-0.07125,0.0605,0.98125,0.3,-0.34,0.0,28890.0,13880.0,-33670.0
32.758873,35.0228386,477.55,-0.06175,0.042,0.99775,0.44,-0.22,-0.04,28880.0,13940.0,-33670.0
32.758873,35.0228386,477.55,-0.05975,0.0115,1.0145,-0.44,-0.06,0.02,28870.0,13940.0,-33670.0
32.758873,35.0228386,477.55,-0.07,0.03725,0.9885,-0.54,0.28,0.02,28870.0,13900.0,-33670.0
32.758873,35.0228386,477.55,-0.07575,0.059,0.98125,0.48,0.62,0.04,28870.0,13890.0,-33670.0
32.758873,35.0228386,477.55,-0.073,0.0315,1.00675,0.58,0.16,0.1,28870.0,13840.0,-33660.0
32.758873,35.0228386,477.55,-0.07325,0.022,1.007,-0.52,-0.24,0.02,28890.0,13870.0,-33660.0
32.758873,35.0228386,477.55,-0.07525,0.04925,0.9845,-0.72,-0.32,0.0,28860.0,13940.0,-33670.0
32.758873,35.0228386,477.55,-0.066,0.0415,0.9835,0.38,-0.18,-0.06,28870.0,13980.0,-33670.0
32.758873,35.0228386,477.55,-0.05875,0.01725,1.00875,0.36,-0.22,0.0,28860.0,13940.0,-33670.0
32.758873,35.0228386,477.55,-0.06575,0.037,0.99825,-0.16,-0.02,0.0,28840.0,13920.0,-33670.0
32.758873,35.0228387,477.55,-0.073,0.05625,0.98825,-0.1,0.34,0.02,28900.0,14070.0,-33680.0
32.758873,35.0228387,477.55,-0.0725,0.025,1.0015,0.1,0.38,0.08,28930.0,14170.0,-33690.0
32.758873,35.0228387,477.55,-0.07175,0.01375,1.00275,-0.14,-0.04,0.04,28910.0,14160.0,-33690.0
32.758873,35.0228387,477.55,-0.07325,0.05225,0.983,0.12,-0.28,0.0,28910.0,14030.0,-33680.0
32.758873,35.0228387,477.55,-0.06725,0.0555,0.991,0.56,-0.22,0.0,28880.0,13930.0,-33670.0
32.758873,35.0228387,477.55,-0.0605,0.01675,1.01325,-0.12,-0.2,0.0,28870.0,13870.0,-33670.0
32.758873,35.0228387,477.55,-0.06625,0.0235,0.99625,-0.78,0.04,-0.06,28840.0,13860.0,-33670.0
32.758873,35.0228387,477.55,-0.07325,0.05825,0.978,0.16,0.4,0.04,28840.0,13860.0,-33670.0
32.758873,35.0228387,477.55,-0.07175,0.04425,0.9975,0.9,0.42,0.1,28840.0,13880.0,-33670.0
32.758873,35.0228387,477.55,-0.07075,0.0205,1.012,-0.16,-0.18,0.04,28830.0,13870.0,-33670.0
32.758873,35.0228387,477.55,-0.0755,0.04025,0.992,-0.92,-0.22,-0.02,28880.0,13940.0,-33670.0
32.758873,35.0228387,477.55,-0.0715,0.0485,0.97975,-0.06,-0.1,-0.06,28860.0,13900.0,-33670.0
32.758873,35.0228387,477.55,-0.0615,0.02275,1.0015,0.6,-0.12,0.02,28810.0,13930.0,-33670.0
32.758873,35.0228387,477.55,-0.06225,0.0275,1.00375,0.02,-0.26,-0.02,28810.0,13890.0,-33670.0
32.758873,35.0228387,477.55,-0.07,0.05675,0.9895,-0.26,0.14,-0.02,28840.0,13880.0,-33670.0
32.758873,35.0228387,477.55,-0.0715,0.039,0.99525,0.04,0.34,-0.04,28810.0,13840.0,-33670.0
32.758873,35.0228387,477.55,-0.07025,0.00975,1.006,-0.18,0.16,0.04,28840.0,13910.0,-33670.0
32.758873,35.0228387,477.55,-0.0735,0.03625,0.98875,-0.1,-0.14,0.0,28870.0,13990.0,-33680.0
32.758873,35.0228387,477.55,-0.07175,0.06275,0.985,0.54,-0.08,-0.02,28860.0,13970.0,-33680.0
32.758873,35.0228387,477.55,-0.06375,0.031,1.0065,0.28,-0.16,-0.04,28880.0,13980.0,-33670.0
32.758873,35.0228387,477.55,-0.06325,0.014,1.00675,-0.76,-0.2,-0.06,28920.0,14090.0,-33680.0
32.758873,35.0228387,477.55,-0.0705,0.04825,0.9815,-0.38,0.08,0.06,28890.0,14040.0,-33680.0
32.758873,35.0228387,477.55,-0.072,0.054,0.9855,0.9,0.4,0.0,28900.0,13980.0,-33670.0
32.758873,35.0228387,477.55,-0.07,0.02325,1.014,0.4,0.12,0.04,28870.0,13930.0,-33670.0
32.758873,35.0228387,477.55,-0.074,0.02825,1.00175,-0.88,-0.1,-0.02,28830.0,13890.0,-33670.0
32.758873,35.0228387,477.55,-0.0755,0.05175,0.97925,-0.5,-0.02,-0.04,28810.0,13910.0,-33670.0
32.758873,35.0228387,477.55,-0.06575,0.0335,0.99175,0.58,-0.12,-0.04,28830.0,13890.0,-33670.0
32.758873,35.0228387,477.55,-0.05975,0.01925,1.0065,0.36,-0.3,0.02,28860.0,13920.0,-33670.0
32.758873,35.0228387,477.55,-0.066,0.0465,0.9945,-0.32,-0.18,0.0,28830.0,13910.0,-33670.0
32.758873,35.0228387,477.55,-0.072,0.05075,0.99,-0.12,0.34,0.0,28830.0,13940.0,-33670.0
32.758873,35.0228387,477.55,-0.071,0.0165,1.00375,-0.02,0.4,0.02,28840.0,13970.0,-33670.0
32.758873,35.0228387,477.55,-0.07375,0.0215,0.9985,-0.14,0.06,0.04,28840.0,13970.0,-33670.0
32.758873,35.0228387,477.55,-0.07575,0.06,0.9825,0.32,-0.14,0.0,28890.0,13980.0,-33670.0
32.758873,35.0228387,477.55,-0.0665,0.04575,0.9975,0.42,-0.24,-0.06,28920.0,13980.0,-33670.0
32.758873,35.0228387,477.55,-0.05925,0.013,1.01375,-0.46,-0.36,0.0,28860.0,13980.0,-33670.0
32.758873,35.0228387,477.55,-0.065,0.034,0.98775,-0.74,-0.14,0.06,28860.0,14020.0,-33670.0
32.758873,35.0228387,477.55,-0.07125,0.05775,0.98075,0.56,0.46,-0.02,28890.0,14060.0,-33680.0
32.758873,35.0228387,477.55,-0.07075,0.0335,1.0065,0.78,0.46,0.14,28900.0,14070.0,-33680.0
32.758873,35.0228387,477.55,-0.0735,0.0215,1.00975,-0.48,0.04,0.04,28900.0,14020.0,-33670.0
32.758873,35.0228387,477.55,-0.078,0.0475,0.9855,-0.78,-0.1,-0.02,28890.0,14010.0,-33670.0
32.758873,35.0228387,477.55,-0.069,0.045,0.9825,0.26,-0.26,0.02,28920.0,14160.0,-33680.0
32.758873,35.0228387,477.55,-0.0585,0.01925,1.00775,0.5,-0.44,-0.04,28940.0,14160.0,-33680.0
32.758873,35.0228387,477.55,-0.062,0.03325,1.001,-0.14,-0.26,-0.04,28910.0,14090.0,-33680.0
32.758873,35.0228387,477.55,-0.07075,0.05625,0.988,-0.24,0.4,0.0,28890.0,14100.0,-33680.0
32.758873,35.0228387,477.55,-0.07225,0.03,0.999,0.08,0.58,0.02,28870.0,14030.0,-33680.0
32.758873,35.0228387,477.55,-0.07275,0.01325,1.00575,-0.12,0.22,0.08,28910.0,14030.0,-33670.0
32.758873,35.0228387,477.55,-0.07575,0.048,0.98625,0.04,-0.2,0.0,28900.0,14000.0,-33670.0
32.758873,35.0228387,477.55,-0.07,0.05775,0.9875,0.42,-0.34,-0.02,28880.0,14040.0,-33670.0
32.758873,35.0228387,477.55,-0.06025,0.0205,1.011,-0.06,-0.32,-0.08,28870.0,14040.0,-33680.0
32.758873,35.0228387,477.55,-0.0625,0.019,1.0005,-0.7,-0.12,-0.02,28880.0,14110.0,-33680.0
32.758873,35.0228387,477.55,-0.07175,0.05525,0.9785,0.04,0.32,-0.02,28900.0,14120.0,-33680.0
32.758873,35.0228387,477.55,-0.073,0.0475,0.99475,0.9,0.56,0.16,28890.0,14040.0,-33680.0
