Lat_GNSS,Long_GNSS,Height_GNSS,Acc_X,Acc_Y,Acc_Z,Gyro_X,Gyro_Y,Gyro_Z,Magn_X,Magn_Y,Magn_Z
32.7643175,35.0164517,483.05,-0.07075,0.003,0.98825,0.16,0.0,0.04,32210.0,-4320.0,-32540.0
32.7643175,35.0164517,483.05,-0.0585,0.013,0.98575,0.94,-0.42,0.04,32130.0,-4160.0,-32600.0
32.7643175,35.0164517,483.05,-0.0465,-0.01325,1.01375,0.06,-0.74,-0.02,32110.0,-4060.0,-32630.0
32.7643175,35.0164517,483.05,-0.05125,-0.018,1.0025,-0.96,-0.44,-0.1,32080.0,-4070.0,-32620.0
32.7643175,35.0164517,483.05,-0.062,0.00025,0.985,-0.32,0.56,-0.02,32080.0,-4010.0,-32640.0
32.7643175,35.0164517,483.05,-0.0615,-0.00175,0.992,0.86,1.1,0.1,32080.0,-3980.0,-32650.0
32.7643175,35.0164517,483.05,-0.0665,-0.008,1.009,0.64,0.52,0.1,32080.0,-3920.0,-32680.0
32.7643175,35.0164517,483.05,-0.07075,0.0045,1.0035,-0.5,-0.16,-0.04,32060.0,-3970.0,-32640.0
32.7643175,35.0164517,483.05,-0.06375,0.00625,0.986,-0.58,-0.5,-0.04,32070.0,-3990.0,-32630.0
32.7643175,35.0164517,483.05,-0.05,-0.0175,0.9945,0.0,-0.62,-0.02,32100.0,-4020.0,-32610.0
32.7643175,35.0164517,483.05,-0.0475,-0.01425,0.99725,0.18,-0.36,0.0,32080.0,-4030.0,-32610.0
32.7643175,35.0164517,483.05,-0.06025,0.01325,0.9925,0.32,0.28,-0.02,32020.0,-4050.0,-32610.0
32.7643175,35.0164517,483.05,-0.062,0.002,1.0005,-0.08,0.76,0.1,32030.0,-4050.0,-32610.0
32.7643175,35.0164517,483.05,-0.06425,-0.02475,1.00425,-0.6,0.42,0.06,32070.0,-4040.0,-32600.0
32.7643175,35.0164517,483.05,-0.07025,-0.0135,0.99375,-0.42,-0.04,-0.06,32100.0,-4010.0,-32610.0
32.7643175,35.0164517,483.05,-0.06475,0.0135,0.985,0.54,-0.34,-0.08,32110.0,-3960.0,-32630.0
32.7643175,35.0164517,483.05,-0.0505,0.0015,0.99825,0.62,-0.62,0.02,32100.0,-3940.0,-32640.0
32.7643175,35.0164517,483.05,-0.046,-0.0225,1.01525,-0.58,-0.56,-0.04,32080.0,-3990.0,-32620.0
32.7643175,35.0164517,483.05,-0.057,-0.01,0.989,-0.98,0.12,-0.02,32060.0,-4040.0,-32600.0
32.7643175,35.0164517,483.05,-0.06375,0.0,0.98625,0.26,0.84,0.02,32060.0,-4060.0,-32600.0
32.7643175,35.0164517,483.05,-0.063,-0.01025,1.00025,0.84,0.68,0.12,32020.0,-4010.0,-32630.0
32.7643175,35.0164517,483.05,-0.06925,-0.00375,1.0075,0.08,0.06,0.02,32000.0,-3990.0,-32640.0
32.7643175,35.0164517,483.05,-0.06975,0.01025,0.99425,-0.66,-0.34,-0.08,32040.0,-3950.0,-32660.0
32.7643175,35.0164517,483.05,-0.0555,-0.001,0.984,-0.36,-0.52,-0.06,32020.0,-3940.0,-32670.0
32.7643175,35.0164517,483.05,-0.04775,-0.0185,0.99775,0.0,-0.48,-0.08,32020.0,-4010.0,-32630.0
32.7643175,35.0164517,483.05,-0.05225,0.00575,0.99025,0.18,-0.08,-0.04,32020.0,-3990.0,-32640.0
32.7643175,35.0164517,483.05,-0.0615,0.0215,0.99,0.1,0.6,0.06,32020.0,-3930.0,-32680.0
32.7643175,35.0164517,483.05,-0.06175,-0.0035,1.00125,-0.44,0.66,0.08,32000.0,-3990.0,-32650.0
32.7643175,35.0164517,483.05,-0.07,-0.012,0.986,-0.92,0.24,0.12,32030.0,-4040.0,-32620.0
32.7643175,35.0164517,483.05,-0.074,0.0145,0.9845,-0.32,-0.1,0.0,32020.0,-4060.0,-32620.0
32.7643175,35.0164517,483.05,-0.06475,0.02075,0.98,0.42,-0.42,0.08,31960.0,-4080.0,-32620.0
32.7643175,35.0164517,483.05,-0.04625,0.0005,0.99575,-0.22,-0.88,0.16,31980.0,-4090.0,-32610.0
32.7643175,35.0164517,483.05,-0.0475,-0.00225,0.9945,-1.34,-0.78,-0.1,32010.0,-4110.0,-32600.0
32.7643175,35.0164517,483.05,-0.054,0.013,0.978,-0.82,0.16,-0.2,32020.0,-4080.0,-32620.0
32.7643175,35.0164517,483.05,-0.0575,0.00925,0.98475,0.1,0.76,0.0,32010.0,-4070.0,-32630.0
32.7643175,35.0164517,483.05,-0.0595,0.00725,0.99875,-0.1,0.56,0.02,32010.0,-4020.0,-32650.0
32.7643175,35.0164517,483.05,-0.06625,0.02175,0.993,-1.02,-0.06,-0.12,31980.0,-4050.0,-32640.0
32.7643175,35.0164517,483.05,-0.05875,0.018,0.981,-1.2,-0.42,-0.18,31980.0,-4090.0,-32620.0
32.7643175,35.0164517,483.05,-0.0435,0.0055,0.98175,-0.86,-0.86,-0.14,31980.0,-4100.0,-32610.0
32.7643175,35.0164517,483.05,-0.04125,0.01175,0.982,-0.74,-0.6,-0.22,31970.0,-4110.0,-32620.0
32.7643175,35.0164517,483.05,-0.04775,0.02725,0.98725,-0.68,0.02,-0.22,31990.0,-4120.0,-32610.0
32.7643175,35.0164517,483.05,-0.053,0.01325,0.987,-1.1,0.6,-0.1,31970.0,-4090.0,-32630.0
32.7643175,35.0164517,483.05,-0.054,-0.0055,0.9915,-1.64,0.34,-0.04,31930.0,-4060.0,-32660.0
32.7643175,35.0164517,483.05,-0.06275,0.0065,0.97925,-1.36,0.02,-0.14,31910.0,-4060.0,-32670.0
32.7643175,35.0164517,483.05,-0.059,0.016,0.983,-0.64,-0.32,-0.22,31910.0,-4050.0,-32670.0
32.7643174,35.0164517,483.06,-0.04375,0.0035,0.99125,-0.84,-0.78,-0.2,31930.0,-4010.0,-32680.0
32.7643174,35.0164517,483.06,-0.04275,-0.01,0.99575,-1.78,-0.78,-0.2,31960.0,-3960.0,-32710.0
32.7643174,35.0164517,483.06,-0.05025,-0.00925,0.9885,-1.82,-0.06,-0.18,31980.0,-4020.0,-32680.0
32.7643174,35.0164517,483.06,-0.05625,-0.01,0.98125,-0.84,0.64,-0.1,31940.0,-4080.0,-32650.0
32.7643174,35.0164517,483.06,-0.05975,-0.0125,0.99425,-0.42,0.42,-0.02,31940.0,-4110.0,-32640.0
32.7643174,35.0164517,483.06,-0.0665,-0.005,1.002,-1.02,0.0,-0.06,31950.0,-4130.0,-32630.0
32.7643174,35.0164517,483.06,-0.068,-0.00875,0.99425,-1.66,-0.34,-0.12,31920.0,-4130.0,-32640.0
32.7643174,35.0164517,483.06,-0.05425,-0.0255,0.99175,-1.44,-0.74,-0.1,31930.0,-4140.0,-32630.0
32.7643174,35.0164517,483.06,-0.04925,-0.02625,0.9885,-0.92,-0.76,-0.1,31940.0,-4120.0,-32630.0
32.7643174,35.0164517,483.06,-0.0525,-0.015,0.99525,-0.66,-0.38,-0.08,31910.0,-4110.0,-32650.0
32.7643174,35.0164517,483.06,-0.0585,-0.018,1.0035,-0.72,0.32,-0.04,31890.0,-4070.0,-32670.0
32.7643174,35.0164517,483.06,-0.06425,-0.03775,1.004,-1.32,0.36,0.08,31930.0,-4020.0,-32690.0
32.7643174,35.0164517,483.06,-0.07025,-0.0405,0.9995,-1.36,0.06,-0.02,31930.0,-4070.0,-32670.0
32.7643174,35.0164517,483.06,-0.075,-0.026,0.996,-0.46,-0.14,-0.02,31910.0,-4070.0,-32670.0
32.7643174,35.0164517,483.06,-0.0625,-0.026,1.0035,0.08,-0.6,-0.04,31890.0,-4090.0,-32660.0
32.7643174,35.0164517,483.06,-0.052,-0.037,1.011,-0.7,-1.0,0.1,31890.0,-4070.0,-32670.0
32.7643174,35.0164517,483.06,-0.05325,-0.041,1.007,-1.18,-0.76,0.04,31880.0,-4040.0,-32690.0
32.7643174,35.0164517,483.06,-0.05925,-0.038,1.00325,-0.6,0.12,0.0,31890.0,-4060.0,-32680.0
32.7643174,35.0164517,483.06,-0.0645,-0.038,1.00425,0.32,0.6,0.02,31870.0,-4090.0,-32670.0
32.7643174,35.0164517,483.06,-0.0705,-0.03575,1.016,0.16,0.46,0.14,31850.0,-4080.0,-32690.0
32.7643174,35.0164517,483.06,-0.07575,-0.0295,1.01525,-0.46,-0.1,-0.02,31880.0,-4030.0,-32700.0
32.7643174,35.0164517,483.05,-0.0705,-0.039,1.009,-0.46,-0.48,-0.12,31910.0,-3920.0,-32750.0
32.7643174,35.0164517,483.05,-0.05575,-0.0475,1.0065,-0.16,-0.94,0.0,31880.0,-3870.0,-32770.0
32.7643174,35.0164517,483.05,-0.05525,-0.03825,1.00875,0.34,-0.62,-0.06,31880.0,-3920.0,-32750.0
32.7643174,35.0164517,483.05,-0.06025,-0.03,1.01875,0.54,0.0,-0.04,31920.0,-3990.0,-32700.0
32.7643174,35.0164517,483.05,-0.0645,-0.04,1.02,0.22,0.66,0.12,31890.0,-4020.0,-32690.0
32.7643174,35.0164517,483.05,-0.0715,-0.049,1.017,-0.1,0.46,0.12,31890.0,-4020.0,-32700.0
32.7643174,35.0164517,483.05,-0.0765,-0.03475,1.0085,0.38,0.16,0.02,31890.0,-4050.0,-32680.0
32.7643174,35.0164517,483.05,-0.0735,-0.02025,1.01125,1.14,-0.16,0.02,31870.0,-4040.0,-32690.0
32.7643174,35.0164517,483.05,-0.05625,-0.02375,1.0155,1.0,-0.66,0.1,31910.0,-4070.0,-32660.0
32.7643174,35.0164517,483.05,-0.057,-0.0275,1.0155,0.2,-0.58,0.0,31960.0,-4010.0,-32680.0
32.7643174,35.0164517,483.05,-0.06625,-0.01925,1.004,0.12,0.2,0.1,31940.0,-4010.0,-32690.0
32.7643174,35.0164517,483.05,-0.06625,-0.00625,0.99825,1.08,0.86,0.18,31910.0,-4030.0,-32680.0
32.7643174,35.0164517,483.05,-0.0685,-0.00275,1.007,1.3,0.56,0.3,31910.0,-4050.0,-32670.0
32.7643174,35.0164517,483.05,-0.07425,0.0015,1.01075,0.42,0.1,0.14,31960.0,-4060.0,-32650.0
32.7643174,35.0164517,483.05,-0.0765,0.01025,0.99625,-0.04,-0.08,0.04,31970.0,-4060.0,-32650.0
32.7643174,35.0164517,483.05,-0.05975,0.003,0.99475,0.28,-0.5,0.14,31970.0,-4040.0,-32650.0
32.7643174,35.0164517,483.05,-0.05225,-0.00075,0.99525,0.62,-0.62,0.08,31940.0,-3990.0,-32680.0
32.7643174,35.0164517,483.05,-0.05725,0.01175,0.99475,0.48,-0.24,0.04,31930.0,-3970.0,-32690.0
32.7643174,35.0164517,483.05,-0.0615,0.01325,1.005,0.32,0.52,0.06,31930.0,-3970.0,-32690.0
32.7643174,35.0164517,483.05,-0.0625,-0.00225,0.997,0.0,0.54,0.1,31940.0,-3920.0,-32720.0
32.7643174,35.0164517,483.05,-0.06725,-0.0055,0.99775,-0.02,0.22,0.04,31920.0,-3850.0,-32750.0
32.7643174,35.0164517,483.05,-0.067,0.0155,0.99225,0.54,-0.18,-0.08,31930.0,-3920.0,-32720.0
32.7643174,35.0164517,483.05,-0.056,0.02,0.99525,0.88,-0.48,0.0,31950.0,-4000.0,-32680.0
32.7643174,35.0164517,483.05,-0.04375,0.0015,1.00325,-0.02,-0.74,-0.08,31930.0,-4030.0,-32660.0
32.7643174,35.0164517,483.05,-0.04725,-0.00425,0.99775,-0.6,-0.52,-0.14,31940.0,-4030.0,-32660.0
32.7643174,35.0164517,483.05,-0.05575,0.00475,0.987,0.16,0.4,0.02,31940.0,-4030.0,-32660.0
32.7643174,35.0164517,483.05,-0.05775,0.0095,0.992,0.82,0.72,-0.02,31900.0,-4050.0,-32650.0
32.7643174,35.0164517,483.05,-0.06325,0.007,1.00225,0.5,0.42,0.14,31930.0,-4020.0,-32660.0
32.7643174,35.0164517,483.05,-0.06375,0.00925,1.0,-0.52,-0.14,-0.04,31980.0,-4000.0,-32670.0
32.7643174,35.0164517,483.05,-0.05975,0.00625,0.98775,-0.52,-0.52,-0.02,31950.0,-3940.0,-32700.0
32.7643174,35.0164517,483.05,-0.04475,-0.0065,0.986,-0.08,-0.64,0.0,31940.0,-3950.0,-32700.0
32.7643174,35.0164517,483.05,-0.04175,-0.002,0.9925,0.2,-0.48,0.08,31950.0,-3990.0,-32680.0
32.7643174,35.0164517,483.05,-0.05175,0.00925,0.9955,-0.16,0.2,0.06,31970.0,-4010.0,-32670.0
32.7643174,35.0164517,483.05,-0.054,-0.00525,0.996,-0.54,0.74,0.06,32000.0,-4080.0,-32640.0
32.7643174,35.0164517,483.05,-0.0605,-0.022,0.99475,-0.74,0.54,0.18,32030.0,-4290.0,-32600.0
32.7643174,35.0164517,483.05,-0.06625,-0.01525,0.99225,-0.3,0.18,0.02,32070.0,-4400.0,-32590.0
32.7643174,35.0164517,483.05,-0.063,0.00475,0.98625,0.38,-0.12,-0.02,32120.0,-4440.0,-32570.0
32.7643174,35.0164517,483.05,-0.0485,-0.008,0.99975,0.14,-0.56,-0.02,32130.0,-4490.0,-32560.0
32.7643174,35.0164517,483.05,-0.04475,-0.02675,1.0095,-0.94,-0.62,-0.02,32130.0,-4470.0,-32580.0
32.7643174,35.0164517,483.05,-0.0555,-0.022,0.98475,-0.92,0.16,-0.06,32110.0,-4460.0,-32600.0
32.7643174,35.0164517,483.05,-0.05975,-0.01475,0.992,0.3,0.96,0.1,32120.0,-4420.0,-32620.0
32.7643174,35.0164517,483.05,-0.062,-0.01675,1.0025,0.76,0.84,0.08,32060.0,-4330.0,-32620.0
32.7643174,35.0164517,483.05,-0.0715,-0.01575,1.00575,-0.14,0.2,0.02,32010.0,-4220.0,-32630.0
32.7643174,35.0164517,483.05,-0.074,-0.01175,0.9975,-0.78,-0.16,-0.1,31980.0,-4150.0,-32640.0
32.7643174,35.0164517,483.05,-0.0595,-0.0195,0.99,-0.32,-0.48,-0.04,31930.0,-4100.0,-32660.0
32.7643174,35.0164517,483.05,-0.0495,-0.02925,0.9975,0.3,-0.64,-0.08,31910.0,-4110.0,-32660.0
32.7643174,35.0164517,483.05,-0.05625,-0.0105,0.99525,0.26,-0.12,-0.12,31960.0,-4110.0,-32640.0
32.7643174,35.0164517,483.05,-0.06475,-0.0035,1.001,-0.02,0.58,-0.06,31990.0,-4110.0,-32630.0
32.7643174,35.0164517,483.05,-0.0625,-0.02775,1.00875,-0.44,0.6,0.04,31960.0,-4090.0,-32650.0
32.7643174,35.0164517,483.05,-0.07125,-0.035,0.99625,-0.46,0.2,-0.02,31950.0,-4030.0,-32690.0
32.7643174,35.0164517,483.05,-0.07375,-0.008,0.99225,0.32,-0.02,-0.1,31930.0,-4000.0,-32700.0
32.7643174,35.0164517,483.05,-0.05875,0.00225,0.993,0.8,-0.44,-0.04,31910.0,-4040.0,-32690.0
32.7643174,35.0164517,483.05,-0.049,-0.02,1.013,-0.06,-0.8,-0.06,31920.0,-4080.0,-32660.0
32.7643174,35.0164517,483.05,-0.053,-0.02475,0.999,-0.96,-0.46,-0.1,31950.0,-4110.0,-32650.0
32.7643174,35.0164517,483.05,-0.0625,-0.00925,0.98825,-0.24,0.56,0.1,31890.0,-4130.0,-32660.0
32.7643174,35.0164517,483.05,-0.06025,-0.008,0.993,0.96,0.84,0.12,31860.0,-4100.0,-32670.0
32.7643174,35.0164517,483.05,-0.065,-0.009,1.00725,0.74,0.36,0.08,31910.0,-4050.0,-32690.0
32.7643174,35.0164517,483.05,-0.0715,0.002,1.004,-0.34,-0.18,-0.02,31880.0,-4080.0,-32680.0
32.7643174,35.0164517,483.05,-0.0605,0.003,0.99025,-0.5,-0.5,0.08,31880.0,-4100.0,-32670.0
32.7643174,35.0164517,483.04,-0.04625,-0.0145,0.99075,0.08,-0.74,0.04,31880.0,-4070.0,-32690.0
32.7643174,35.0164517,483.04,-0.0455,-0.0105,1.0005,0.32,-0.44,-0.04,31880.0,-3980.0,-32730.0
32.7643174,35.0164517,483.04,-0.05675,0.01375,0.992,0.38,0.3,0.06,31930.0,-4020.0,-32700.0
32.7643174,35.0164517,483.04,-0.05975,0.003,1.00225,0.02,0.7,0.1,31930.0,-4070.0,-32670.0
32.7643174,35.0164517,483.04,-0.06175,-0.0195,1.0035,-0.5,0.46,0.0,31910.0,-4110.0,-32660.0
32.7643174,35.0164517,483.04,-0.06925,-0.00475,0.9895,-0.3,0.06,0.04,31920.0,-4120.0,-32660.0
32.7643174,35.0164517,483.04,-0.06225,0.01625,0.98925,0.62,-0.16,-0.04,31980.0,-4140.0,-32630.0
32.7643174,35.0164517,483.04,-0.04625,0.00625,0.99675,0.5,-0.7,-0.02,31960.0,-4170.0,-32630.0
32.7643174,35.0164517,483.04,-0.04525,-0.014,1.00925,-0.78,-0.78,-0.08,31860.0,-4160.0,-32650.0
32.7643174,35.0164517,483.04,-0.0565,-0.004,0.9915,-0.94,0.12,-0.12,31870.0,-4140.0,-32650.0
32.7643174,35.0164517,483.04,-0.06,0.0005,0.97925,0.18,0.8,0.06,31900.0,-4110.0,-32670.0
32.7643174,35.0164517,483.04,-0.06125,-0.01075,1.0075,0.62,0.76,0.14,31870.0,-4110.0,-32670.0
32.7643174,35.0164517,483.04,-0.07,-0.00525,1.00275,-0.18,0.08,-0.02,31880.0,-4120.0,-32660.0
32.7643174,35.0164517,483.04,-0.07,0.00225,0.99525,-0.8,-0.18,-0.06,31900.0,-4130.0,-32650.0
32.7643174,35.0164517,483.04,-0.05175,-0.01725,0.98925,-0.52,-0.68,-0.08,31880.0,-4140.0,-32650.0
32.7643174,35.0164517,483.04,-0.0465,-0.0285,1.00025,0.0,-0.66,-0.1,31910.0,-4150.0,-32640.0
32.7643174,35.0164517,483.04,-0.0535,-0.0085,0.996,0.2,-0.08,-0.06,31900.0,-4100.0,-32670.0
32.7643174,35.0164517,483.04,-0.05925,-0.001,0.998,0.14,0.66,0.04,31830.0,-4060.0,-32710.0
32.7643174,35.0164517,483.04,-0.06225,-0.02775,1.00725,-0.36,0.62,0.12,31810.0,-4080.0,-32700.0
32.7643174,35.0164517,483.04,-0.06925,-0.02925,1.00125,-0.6,0.26,0.02,31840.0,-4060.0,-32700.0
32.7643174,35.0164517,483.04,-0.071,-0.0055,0.98025,0.16,-0.06,-0.06,31820.0,-4020.0,-32730.0
32.7643174,35.0164517,483.04,-0.05325,-0.00175,1.00425,0.74,-0.3,0.02,31810.0,-3960.0,-32750.0
32.7643174,35.0164517,483.04,-0.0495,-0.02175,1.00525,-0.06,-0.5,0.04,31790.0,-4020.0,-32720.0
32.7643174,35.0164517,483.04,-0.05825,-0.0215,1.004,-0.9,-0.26,0.04,31800.0,-4010.0,-32720.0
32.7643174,35.0164517,483.04,-0.061,-0.01225,0.988,-0.22,0.32,0.0,31810.0,-3970.0,-32740.0
32.7643174,35.0164517,483.04,-0.06425,-0.01875,0.98975,0.8,0.46,0.12,31840.0,-3950.0,-32750.0
32.7643174,35.0164517,483.04,-0.06475,-0.01675,1.0095,0.54,0.0,0.12,31830.0,-3930.0,-32750.0
32.7643174,35.0164517,483.04,-0.0705,-0.00125,1.00175,-0.22,-0.06,0.02,31830.0,-3910.0,-32760.0
32.7643174,35.0164517,483.04,-0.05775,-0.0105,0.99225,-0.42,-0.28,0.02,31810.0,-3900.0,-32770.0
32.7643174,35.0164517,483.04,-0.04775,-0.02875,0.99425,-0.1,-0.54,0.02,31820.0,-3860.0,-32780.0
32.7643174,35.0164517,483.04,-0.05275,-0.01675,0.9945,0.3,-0.4,0.0,31850.0,-3850.0,-32780.0
32.7643174,35.0164517,483.04,-0.0585,0.003,0.99325,0.48,0.4,0.08,31830.0,-3870.0,-32780.0
32.7643174,35.0164517,483.04,-0.05975,-0.01325,1.00175,0.16,0.6,0.06,31820.0,-3890.0,-32770.0
32.7643174,35.0164517,483.04,-0.064,-0.0305,1.00575,-0.48,0.44,0.06,31840.0,-3870.0,-32760.0
32.7643174,35.0164517,483.04,-0.07175,-0.00575,0.984,-0.02,0.2,-0.02,31870.0,-3850.0,-32770.0
32.7643174,35.0164517,483.04,-0.05975,0.00675,0.9885,0.88,-0.42,0.06,31850.0,-3870.0,-32770.0
32.7643174,35.0164517,483.04,-0.04475,-0.01225,1.00475,0.4,-0.8,-0.08,31820.0,-3860.0,-32780.0
32.7643174,35.0164517,483.04,-0.048,-0.01725,1.00275,-0.68,-0.68,-0.12,31860.0,-3850.0,-32780.0
32.7643174,35.0164517,483.04,-0.05775,-0.00525,0.99025,-0.5,0.46,0.02,31880.0,-3910.0,-32730.0
32.7643174,35.0164517,483.04,-0.05875,-0.00525,0.986,0.56,1.0,0.08,31890.0,-3990.0,-32690.0
32.7643174,35.0164517,483.04,-0.06625,-0.01225,1.00625,0.68,0.7,0.14,31930.0,-3950.0,-32700.0
32.7643174,35.0164517,483.05,-0.072,0.0055,1.00125,-0.08,-0.04,0.02,31940.0,-3850.0,-32750.0
32.7643174,35.0164517,483.05,-0.0655,0.009,0.98825,-0.32,-0.46,0.0,31910.0,-3810.0,-32780.0
32.7643174,35.0164517,483.05,-0.04575,-0.01525,0.99775,-0.22,-0.88,0.0,31900.0,-3800.0,-32780.0
32.7643174,35.0164517,483.05,-0.04525,-0.01525,0.9945,0.04,-0.66,-0.1,31910.0,-3860.0,-32740.0
32.7643174,35.0164517,483.05,-0.055,0.00775,0.99375,0.3,0.24,-0.04,31850.0,-3920.0,-32740.0
32.7643174,35.0164517,483.05,-0.057,0.0035,0.99875,0.26,0.88,0.1,31840.0,-3950.0,-32720.0
32.7643174,35.0164517,483.05,-0.06475,-0.02075,1.00675,-0.36,0.62,0.1,31850.0,-3980.0,-32700.0
32.7643174,35.0164517,483.05,-0.07275,-0.01425,0.9995,-0.54,0.14,-0.02,31890.0,-3970.0,-32700.0
32.7643174,35.0164517,483.05,-0.06775,0.009,0.98425,0.32,-0.24,0.0,31920.0,-3990.0,-32670.0
32.7643174,35.0164517,483.05,-0.05,-0.004,1.002,0.64,-0.8,0.06,31900.0,-3970.0,-32690.0
32.7643174,35.0164517,483.05,-0.04575,-0.01925,1.01325,-0.3,-0.76,-0.1,31900.0,-3960.0,-32700.0
32.7643174,35.0164517,483.05,-0.056,-0.00625,0.992,-0.72,0.02,-0.1,31950.0,-3980.0,-32680.0
32.7643174,35.0164517,483.05,-0.058,-0.0005,0.9915,0.18,0.9,0.06,31970.0,-3990.0,-32680.0
32.7643174,35.0164517,483.05,-0.06225,-0.0115,1.0,0.64,0.76,0.12,31980.0,-4000.0,-32670.0
32.7643174,35.0164517,483.05,-0.07175,-0.007,1.00775,-0.06,0.24,0.02,31970.0,-4010.0,-32670.0
32.7643174,35.0164517,483.05,-0.07175,0.006,0.993,-0.46,-0.16,-0.06,31940.0,-4020.0,-32670.0
32.7643174,35.0164517,483.05,-0.05675,-0.01025,0.99,-0.32,-0.66,0.02,31950.0,-4000.0,-32680.0
32.7643174,35.0164517,483.05,-0.0475,-0.0265,0.9995,-0.18,-0.72,-0.1,31960.0,-3960.0,-32700.0
32.7643174,35.0164517,483.05,-0.055,-0.00625,0.99075,0.02,-0.24,-0.14,31980.0,-3970.0,-32690.0
32.7643174,35.0164517,483.05,-0.05825,-0.001,0.99575,0.14,0.66,0.04,31940.0,-3960.0,-32710.0
32.7643174,35.0164517,483.05,-0.0585,-0.02575,1.006,-0.2,0.72,0.1,31890.0,-3920.0,-32750.0
32.7643174,35.0164517,483.05,-0.06825,-0.03025,0.998,-0.48,0.24,-0.02,31930.0,-3970.0,-32710.0
32.7643174,35.0164517,483.05,-0.07,-0.005,0.99025,0.1,-0.06,-0.06,31970.0,-3960.0,-32710.0
32.7643174,35.0164517,483.05,-0.0555,-0.00225,0.98875,0.7,-0.56,0.0,31940.0,-3980.0,-32710.0
32.7643174,35.0164517,483.05,-0.04675,-0.0255,1.0125,0.04,-0.72,-0.08,31930.0,-4010.0,-32690.0
32.7643174,35.0164517,483.05,-0.05225,-0.02075,0.998,-0.68,-0.28,-0.04,31930.0,-4040.0,-32680.0
32.7643174,35.0164517,483.05,-0.05975,-0.0065,0.98625,-0.02,0.54,0.08,31900.0,-4090.0,-32670.0
32.7643174,35.0164517,483.05,-0.05775,-0.015,0.99925,0.72,0.76,0.1,31940.0,-4070.0,-32660.0
32.7643174,35.0164517,483.05,-0.0655,-0.017,1.006,0.36,0.26,0.08,31940.0,-4030.0,-32690.0
32.7643174,35.0164517,483.05,-0.06975,-0.00125,1.00025,-0.3,-0.08,-0.04,31940.0,-3940.0,-32740.0
32.7643174,35.0164517,483.05,-0.0575,-0.0015,0.988,-0.22,-0.44,-0.04,31960.0,-3910.0,-32750.0
32.7643174,35.0164517,483.05,-0.04725,-0.022,0.99625,0.14,-0.66,0.04,31930.0,-3920.0,-32750.0
32.7643174,35.0164517,483.05,-0.04975,-0.015,0.9985,0.04,-0.38,-0.04,31880.0,-3960.0,-32750.0
32.7643174,35.0164517,483.05,-0.06,0.0065,0.99,0.22,0.42,0.04,31840.0,-4020.0,-32730.0
32.7643174,35.0164517,483.05,-0.06025,-0.0075,1.0,0.06,0.68,0.16,31840.0,-4070.0,-32700.0
32.7643174,35.0164517,483.05,-0.06475,-0.024,1.0025,-0.34,0.38,0.06,31830.0,-4050.0,-32710.0
32.7643174,35.0164517,483.05,-0.07125,-0.004,0.99225,-0.16,-0.1,0.02,31840.0,-4000.0,-32730.0
32.7643174,35.0164517,483.05,-0.0605,0.01275,0.9875,0.48,-0.34,0.06,31840.0,-4040.0,-32710.0
32.7643174,35.0164517,483.05,-0.04625,-0.008,1.0025,0.26,-0.72,-0.08,31820.0,-4070.0,-32700.0
32.7643174,35.0164517,483.05,-0.0465,-0.02375,1.01075,-0.68,-0.56,-0.08,31790.0,-4030.0,-32730.0
32.7643174,35.0164517,483.05,-0.05675,-0.0035,0.985,-0.44,0.28,-0.02,31820.0,-4020.0,-32740.0
32.7643174,35.0164517,483.05,-0.06175,-0.001,0.9915,0.56,0.94,0.08,31880.0,-4270.0,-32670.0
32.7643174,35.0164517,483.05,-0.0635,-0.01625,1.009,0.56,0.62,0.16,31910.0,-4440.0,-32620.0
32.7643174,35.0164517,483.05,-0.073,-0.00675,1.00225,-0.3,0.02,-0.02,31930.0,-4510.0,-32610.0
32.7643174,35.0164517,483.05,-0.06775,0.00225,0.993,-0.38,-0.32,-0.04,31980.0,-4550.0,-32590.0
32.7643174,35.0164517,483.05,-0.05,-0.01275,0.98925,0.02,-0.64,-0.06,32010.0,-4580.0,-32570.0
32.7643174,35.0164517,483.05,-0.0465,-0.0225,1.0025,0.16,-0.66,-0.08,32020.0,-4610.0,-32560.0
32.7643174,35.0164517,483.05,-0.05475,0.0005,0.99625,0.02,0.14,-0.02,32020.0,-4630.0,-32560.0
32.7643174,35.0164517,483.05,-0.062,0.0025,0.9925,0.14,0.76,0.12,31930.0,-4500.0,-32600.0
32.7643174,35.0164517,483.05,-0.06225,-0.02425,1.01,-0.2,0.68,0.12,31900.0,-4280.0,-32650.0
32.7643174,35.0164517,483.05,-0.071,-0.0195,0.993,-0.36,0.12,-0.02,31880.0,-4160.0,-32690.0
32.7643174,35.0164517,483.05,-0.07,0.01,0.98825,0.32,-0.22,0.04,31810.0,-4150.0,-32680.0
32.7643174,35.0164517,483.05,-0.05225,0.00525,0.996,0.58,-0.66,0.04,31840.0,-4170.0,-32660.0
32.7643174,35.0164517,483.05,-0.04675,-0.02175,1.00875,-0.32,-0.74,0.0,31900.0,-4160.0,-32640.0
32.7643174,35.0164517,483.05,-0.05425,-0.019,0.99875,-0.98,-0.18,-0.1,31940.0,-4140.0,-32650.0
32.7643174,35.0164517,483.05,-0.06075,-0.0005,0.98125,0.12,0.76,0.06,31950.0,-4120.0,-32650.0
32.7643174,35.0164517,483.05,-0.0615,-0.01,1.0,0.84,0.82,0.1,31920.0,-4110.0,-32660.0
32.7643174,35.0164517,483.05,-0.06525,-0.01625,1.01225,0.12,0.1,0.02,31890.0,-4110.0,-32660.0
32.7643174,35.0164517,483.05,-0.0705,-0.0025,0.99575,-0.68,-0.26,-0.06,31880.0,-4120.0,-32650.0
32.7643174,35.0164517,483.04,-0.05525,-0.00875,0.99075,-0.38,-0.52,-0.02,31910.0,-4060.0,-32680.0
32.7643174,35.0164517,483.04,-0.04425,-0.02675,0.9955,0.22,-0.58,-0.04,31890.0,-3990.0,-32710.0
32.7643174,35.0164517,483.04,-0.04975,-0.017,1.001,0.22,-0.26,-0.02,31880.0,-4050.0,-32690.0
32.7643174,35.0164517,483.04,-0.0595,0.00325,0.99275,0.16,0.64,-0.02,31880.0,-4110.0,-32650.0
32.7643174,35.0164517,483.04,-0.06225,-0.016,1.001,-0.12,0.74,0.04,31910.0,-4130.0,-32640.0
32.7643174,35.0164517,483.04,-0.06475,-0.03625,1.006,-0.38,0.36,0.06,31910.0,-4100.0,-32640.0
32.7643174,35.0164517,483.04,-0.07175,-0.00975,0.98625,0.06,-0.06,-0.04,31880.0,-4110.0,-32650.0
32.7643174,35.0164517,483.04,-0.06025,0.009,0.9905,0.82,-0.38,0.0,31880.0,-4090.0,-32650.0
32.7643174,35.0164517,483.04,-0.04475,-0.0125,1.00525,0.32,-0.64,0.0,31920.0,-4060.0,-32660.0
32.7643174,35.0164517,483.04,-0.04925,-0.02775,1.008,-0.72,-0.58,-0.1,31940.0,-4030.0,-32660.0
32.7643174,35.0164517,483.04,-0.05925,-0.01275,0.98925,-0.48,0.38,-0.1,31920.0,-4010.0,-32680.0
32.7643174,35.0164517,483.04,-0.062,-0.0045,0.986,0.74,0.96,0.14,31870.0,-4000.0,-32700.0
32.7643174,35.0164517,483.04,-0.06525,-0.01625,1.01275,0.88,0.54,0.14,31910.0,-4040.0,-32660.0
32.7643174,35.0164517,483.04,-0.071,-0.00675,1.00525,-0.22,-0.02,0.0,31950.0,-4020.0,-32670.0
32.7643174,35.0164517,483.04,-0.06725,-0.00075,0.99325,-0.54,-0.48,-0.12,31920.0,-4020.0,-32670.0
32.7643174,35.0164517,483.04,-0.0485,-0.0185,0.99375,0.1,-0.68,-0.06,31960.0,-4020.0,-32660.0
32.7643174,35.0164517,483.04,-0.046,-0.02225,0.9965,0.4,-0.58,-0.06,31930.0,-4010.0,-32680.0
32.7643174,35.0164517,483.04,-0.0555,0.00025,1.002,0.42,0.14,0.0,31910.0,-3950.0,-32710.0
32.7643174,35.0164517,483.04,-0.062,0.0025,0.99575,0.16,0.84,0.04,31940.0,-3980.0,-32690.0
32.7643174,35.0164517,483.04,-0.06575,-0.023,1.0055,-0.18,0.6,0.1,32000.0,-3980.0,-32670.0
32.7643174,35.0164517,483.04,-0.0695,-0.01975,0.9965,-0.24,0.12,0.02,31970.0,-3950.0,-32690.0
32.7643174,35.0164517,483.04,-0.0695,0.01275,0.9835,0.64,-0.24,-0.02,31950.0,-3860.0,-32730.0
32.7643174,35.0164517,483.04,-0.05325,0.0095,0.99325,0.72,-0.62,-0.02,31940.0,-3860.0,-32740.0
32.7643174,35.0164517,483.04,-0.047,-0.01375,1.007,-0.34,-0.76,-0.06,31950.0,-3890.0,-32720.0
32.7643174,35.0164517,483.04,-0.05575,-0.0115,0.9925,-1.0,-0.16,-0.04,31990.0,-3960.0,-32670.0
32.7643174,35.0164517,483.04,-0.062,0.00075,0.98175,0.04,0.84,-0.02,31970.0,-4030.0,-32660.0
32.7643174,35.0164517,483.04,-0.0645,-0.007,0.99225,0.94,0.88,0.08,31940.0,-4050.0,-32660.0
32.7643174,35.0164517,483.04,-0.06775,-0.015,1.01425,0.26,0.12,0.06,31910.0,-4060.0,-32650.0
32.7643174,35.0164517,483.04,-0.0705,-0.00425,0.9985,-0.64,-0.38,-0.04,31930.0,-4050.0,-32640.0
32.7643174,35.0164517,483.04,-0.0575,-0.01675,0.99525,-0.36,-0.7,-0.06,31930.0,-4060.0,-32640.0
32.7643174,35.0164517,483.04,-0.04175,-0.0355,1.00025,0.28,-0.6,-0.06,31930.0,-4010.0,-32670.0
32.7643174,35.0164517,483.04,-0.04625,-0.0185,1.00625,0.66,-0.16,-0.02,31950.0,-3980.0,-32680.0
32.7643174,35.0164517,483.04,-0.058,-0.00475,1.00425,0.5,0.68,-0.02,31930.0,-4020.0,-32670.0
32.7643174,35.0164517,483.04,-0.06175,-0.026,1.01375,0.16,0.9,0.1,31970.0,-4010.0,-32670.0
32.7643174,35.0164517,483.04,-0.0685,-0.039,1.0095,-0.18,0.44,0.1,31990.0,-3980.0,-32680.0
32.7643174,35.0164517,483.04,-0.07075,-0.0165,1.0,0.44,-0.06,0.02,31970.0,-3980.0,-32690.0
32.7643174,35.0164517,483.04,-0.063,-0.0015,1.00075,1.3,-0.4,0.08,31960.0,-3950.0,-32700.0
32.7643174,35.0164517,483.04,-0.04925,-0.01675,1.0075,0.66,-0.68,0.02,31990.0,-4000.0,-32670.0
32.7643174,35.0164517,483.04,-0.05025,-0.02275,1.012,-0.42,-0.42,0.04,32000.0,-4050.0,-32650.0
32.7643174,35.0164517,483.04,-0.063,-0.00875,0.99025,-0.08,0.46,0.12,31940.0,-4050.0,-32660.0
32.7643174,35.0164517,483.04,-0.066,-0.0045,0.9865,0.94,1.08,0.2,31940.0,-4010.0,-32680.0
32.7643174,35.0164517,483.05,-0.07225,-0.0025,1.0025,0.96,0.58,0.22,31980.0,-3920.0,-32730.0
32.7643174,35.0164517,483.05,-0.07425,0.007,0.9995,-0.04,-0.06,0.14,31980.0,-3870.0,-32750.0
32.7643174,35.0164517,483.05,-0.0705,0.00425,0.9865,-0.44,-0.5,0.02,31980.0,-3910.0,-32740.0
32.7643174,35.0164517,483.05,-0.05475,-0.0165,0.987,-0.04,-0.78,0.0,31970.0,-4000.0,-32700.0
32.7643174,35.0164517,483.05,-0.04975,-0.013,0.99075,0.36,-0.58,0.02,31930.0,-4040.0,-32690.0
32.7643174,35.0164517,483.05,-0.05725,-0.0005,0.99275,0.54,0.2,-0.02,31960.0,-4060.0,-32670.0
32.7643174,35.0164517,483.05,-0.05975,-0.01625,1.00875,0.28,0.7,0.0,31980.0,-4100.0,-32650.0
32.7643174,35.0164517,483.05,-0.063,-0.0345,1.00375,-0.2,0.46,0.14,31950.0,-4080.0,-32660.0
32.7643174,35.0164517,483.05,-0.0665,-0.0275,0.996,0.12,0.08,-0.02,31920.0,-4050.0,-32680.0
32.7643174,35.0164517,483.05,-0.06175,-0.01,1.00225,1.28,-0.12,-0.1,31940.0,-4020.0,-32690.0
32.7643174,35.0164517,483.05,-0.0495,-0.01025,1.00225,1.3,-0.46,-0.02,31940.0,-4020.0,-32690.0
32.7643174,35.0164517,483.05,-0.044,-0.01825,1.0135,0.22,-0.5,-0.06,31980.0,-4060.0,-32660.0
32.7643174,35.0164517,483.05,-0.054,-0.01625,1.0025,-0.06,0.22,-0.04,31990.0,-4070.0,-32660.0
32.7643174,35.0164517,483.05,-0.06275,-0.01075,0.9955,0.82,1.0,0.12,31960.0,-4110.0,-32650.0
32.7643174,35.0164517,483.05,-0.06525,-0.00425,1.002,1.38,0.98,0.2,31930.0,-4130.0,-32640.0
32.7643174,35.0164517,483.05,-0.07,0.00525,1.00775,0.92,0.28,0.22,31950.0,-4120.0,-32640.0
32.7643174,35.0164517,483.05,-0.0675,0.00475,1.01025,0.02,-0.28,0.08,31980.0,-4060.0,-32660.0
32.7643174,35.0164517,483.05,-0.056,-0.007,1.0025,0.02,-0.54,0.04,31950.0,-4000.0,-32690.0
32.7643174,35.0164517,483.05,-0.046,-0.01675,0.9985,0.42,-0.36,0.16,31940.0,-4010.0,-32700.0
32.7643175,35.0164517,483.05,-0.049,-0.005,1.004,0.82,0.06,0.1,31970.0,-4000.0,-32700.0
32.7643175,35.0164517,483.05,-0.0605,0.001,1.01375,0.9,0.82,0.12,32000.0,-3940.0,-32710.0
32.7643175,35.0164517,483.05,-0.06275,-0.01825,1.0135,0.24,0.98,0.24,32010.0,-4000.0,-32680.0
32.7643175,35.0164517,483.05,-0.06925,-0.02625,1.00675,0.02,0.48,0.22,31990.0,-4070.0,-32650.0
32.7643175,35.0164517,483.05,-0.071,-0.0105,1.00175,0.72,0.12,0.06,31990.0,-4100.0,-32640.0
32.7643175,35.0164517,483.05,-0.06,-0.00175,1.00225,1.44,-0.18,-0.04,32030.0,-4110.0,-32620.0
32.7643175,35.0164517,483.05,-0.051,-0.0115,1.00825,0.84,-0.44,0.06,32020.0,-4100.0,-32620.0
32.7643175,35.0164517,483.05,-0.052,-0.015,1.00875,-0.04,-0.04,0.04,31970.0,-4140.0,-32620.0
32.7643175,35.0164517,483.05,-0.0635,-0.0085,0.98975,0.34,0.76,0.04,31990.0,-4130.0,-32620.0
32.7643175,35.0164517,483.05,-0.069,-0.009,0.99275,1.18,1.24,0.06,32040.0,-4140.0,-32610.0
32.7643175,35.0164517,483.05,-0.076,-0.0025,1.00025,1.26,0.84,0.22,32030.0,-4060.0,-32640.0
32.7643175,35.0164517,483.05,-0.08025,0.00775,0.99225,0.46,0.2,0.1,32030.0,-4010.0,-32660.0
32.7643175,35.0164517,483.05,-0.07375,0.00075,0.99675,0.12,-0.14,-0.04,32030.0,-4010.0,-32650.0
32.7643175,35.0164517,483.05,-0.0595,-0.0085,0.98325,0.22,-0.5,0.02,32020.0,-4000.0,-32660.0
32.7643175,35.0164517,483.05,-0.0545,-0.003,0.98475,0.64,-0.26,0.0,32050.0,-4050.0,-32640.0
32.7643175,35.0164517,483.05,-0.06125,0.01125,0.99325,0.8,0.3,-0.02,32120.0,-4030.0,-32630.0
32.7643175,35.0164517,483.05,-0.066,0.0025,0.99675,0.44,0.82,0.08,32090.0,-4010.0,-32640.0
32.7643175,35.0164517,483.05,-0.06575,-0.01025,0.99675,-0.14,0.54,0.08,32070.0,-4030.0,-32630.0
32.7643175,35.0164517,483.05,-0.0715,-0.00375,0.98675,0.08,0.24,-0.04,32070.0,-4040.0,-32630.0
32.7643175,35.0164517,483.05,-0.068,0.00675,0.98925,0.86,0.0,-0.06,32060.0,-4020.0,-32640.0
32.7643175,35.0164517,483.05,-0.05325,0.00775,0.99425,0.88,-0.36,0.06,32090.0,-3950.0,-32660.0
32.7643175,35.0164517,483.06,-0.0475,-0.00125,0.9985,0.0,-0.58,-0.04,32100.0,-3890.0,-32690.0
32.7643175,35.0164517,483.06,-0.052,-0.003,0.994,-0.38,-0.12,-0.08,32090.0,-3890.0,-32680.0
32.7643175,35.0164517,483.06,-0.0555,-0.002,0.98925,0.56,0.7,-0.02,32040.0,-3960.0,-32660.0
32.7643175,35.0164517,483.06,-0.05625,-0.001,0.994,1.0,0.8,0.06,32060.0,-3980.0,-32630.0
32.7643175,35.0164517,483.06,-0.0615,0.006,1.00025,0.6,0.34,0.1,32070.0,-4030.0,-32610.0
32.7643175,35.0164517,483.06,-0.06425,0.00975,1.00025,-0.06,-0.04,0.08,32060.0,-4010.0,-32620.0
32.7643175,35.0164517,483.06,-0.052,0.00025,0.987,-0.04,-0.38,-0.02,32080.0,-4040.0,-32600.0
32.7643175,35.0164517,483.06,-0.04425,-0.00125,0.98875,0.36,-0.52,0.04,32100.0,-4030.0,-32600.0
32.7643175,35.0164517,483.06,-0.0455,0.0115,0.988,0.48,-0.2,0.06,32160.0,-4200.0,-32560.0
32.7643175,35.0164517,483.06,-0.05275,0.0175,0.995,0.42,0.5,0.0,32250.0,-4310.0,-32550.0
32.7643175,35.0164517,483.06,-0.0585,0.0015,0.9925,-0.18,0.72,0.16,32270.0,-4360.0,-32550.0
32.7643175,35.0164517,483.06,-0.06325,-0.0015,0.99125,-0.52,0.46,0.18,32260.0,-4480.0,-32520.0
32.7643175,35.0164517,483.06,-0.06925,0.0125,0.9755,0.16,0.1,0.04,32290.0,-4510.0,-32500.0
32.7643175,35.0164517,483.06,-0.058,0.01775,0.9905,0.6,-0.3,-0.04,32310.0,-4550.0,-32480.0
32.7643175,35.0164517,483.06,-0.04625,0.00825,0.98875,0.02,-0.74,0.04,32310.0,-4540.0,-32470.0
32.7643175,35.0164517,483.06,-0.04825,0.00025,0.988,-0.88,-0.5,0.0,32280.0,-4460.0,-32500.0
32.7643175,35.0164517,483.06,-0.05625,0.001,0.9855,-0.58,0.32,-0.02,32210.0,-4220.0,-32570.0
32.7643175,35.0164517,483.06,-0.06175,0.002,0.97675,0.36,0.84,0.04,32160.0,-4130.0,-32580.0
32.7643175,35.0164517,483.06,-0.06475,0.00225,0.9925,0.32,0.56,0.06,32160.0,-4080.0,-32580.0
32.7643175,35.0164517,483.05,-0.07175,0.0075,0.99275,-0.38,0.0,-0.02,32160.0,-3980.0,-32620.0
32.7643175,35.0164517,483.05,-0.0675,-0.00025,0.98425,-0.74,-0.42,-0.14,32120.0,-3900.0,-32660.0
32.7643175,35.0164517,483.05,-0.0495,-0.01275,0.98525,-0.4,-0.76,-0.14,32120.0,-3930.0,-32640.0
32.7643175,35.0164517,483.05,-0.04775,-0.0105,0.98575,-0.02,-0.58,-0.14,32120.0,-3980.0,-32610.0
32.7643175,35.0164517,483.05,-0.0535,-0.00075,0.992,0.08,0.02,-0.14,32110.0,-4010.0,-32610.0
32.7643175,35.0164517,483.05,-0.057,-0.005,0.997,-0.1,0.64,0.0,32120.0,-4040.0,-32590.0
32.7643175,35.0164517,483.05,-0.06125,-0.02325,1.00025,-0.54,0.5,0.04,32110.0,-4050.0,-32590.0
32.7643175,35.0164517,483.05,-0.069,-0.02075,0.99175,-0.4,0.14,-0.12,32090.0,-4070.0,-32580.0
32.7643175,35.0164517,483.05,-0.06925,-0.00375,0.9915,0.32,-0.12,-0.08,32050.0,-4050.0,-32600.0
32.7643175,35.0164517,483.05,-0.05275,-0.00475,1.0025,0.52,-0.6,0.04,32070.0,-4050.0,-32600.0
32.7643175,35.0164517,483.05,-0.04675,-0.016,1.00075,-0.32,-0.64,-0.1,32110.0,-3980.0,-32620.0
32.7643175,35.0164517,483.05,-0.0515,-0.018,1.004,-0.8,-0.24,0.0,32110.0,-3980.0,-32620.0
32.7643175,35.0164517,483.05,-0.05925,-0.0095,0.99475,0.1,0.7,0.02,32150.0,-4020.0,-32600.0
32.7643175,35.0164517,483.05,-0.065,-0.008,0.99675,0.68,0.82,0.18,32150.0,-4060.0,-32580.0
32.7643175,35.0164517,483.05,-0.0655,-0.009,1.01275,0.08,0.3,0.2,32140.0,-4070.0,-32580.0
32.7643175,35.0164517,483.05,-0.07075,-0.00225,1.0055,-0.36,-0.18,-0.02,32140.0,-4080.0,-32580.0
32.7643175,35.0164517,483.05,-0.06025,-0.00725,0.993,-0.38,-0.48,0.04,32140.0,-4030.0,-32600.0
32.7643175,35.0164517,483.05,-0.04975,-0.01575,1.002,0.1,-0.56,0.02,32110.0,-4020.0,-32620.0
32.7643175,35.0164517,483.05,-0.05375,-0.009,0.9945,0.24,-0.3,0.1,32110.0,-4030.0,-32620.0
32.7643175,35.0164517,483.05,-0.06125,0.00225,1.007,0.1,0.4,0.06,32140.0,-4050.0,-32600.0
32.7643174,35.0164518,483.06,-0.0635,-0.0095,0.998,-0.06,0.66,0.08,32090.0,-4020.0,-32630.0
32.7643174,35.0164518,483.06,-0.0675,-0.02325,1.00375,-0.38,0.32,0.08,32070.0,-3970.0,-32670.0
32.7643174,35.0164518,483.06,-0.073,-0.004,0.989,0.12,-0.02,-0.02,32080.0,-3950.0,-32670.0
32.7643174,35.0164518,483.06,-0.0645,0.014,0.99225,0.76,-0.28,-0.12,32040.0,-3990.0,-32660.0
32.7643174,35.0164518,483.06,-0.04975,-0.00675,1.00075,0.26,-0.68,-0.04,32040.0,-4050.0,-32630.0
32.7643174,35.0164518,483.06,-0.05225,-0.01775,1.00075,-0.7,-0.52,-0.04,32080.0,-4090.0,-32610.0
32.7643174,35.0164518,483.06,-0.06225,-0.0045,0.98425,-0.42,0.26,-0.08,32080.0,-4110.0,-32600.0
32.7643174,35.0164518,483.06,-0.065,0.00425,0.98575,0.76,0.9,0.08,32070.0,-4130.0,-32590.0
32.7643174,35.0164518,483.06,-0.0685,-0.0075,1.002,0.68,0.54,0.14,32040.0,-4120.0,-32600.0
32.7643174,35.0164518,483.06,-0.07175,0.0,1.00275,-0.38,-0.1,-0.04,32060.0,-4110.0,-32600.0
32.7643174,35.0164518,483.06,-0.07,0.00725,0.985,-0.58,-0.38,-0.16,32070.0,-4070.0,-32610.0
32.7643174,35.0164518,483.06,-0.05,-0.00825,0.991,0.06,-0.68,0.0,32050.0,-4060.0,-32630.0
32.7643174,35.0164518,483.06,-0.04575,-0.01375,0.99525,0.22,-0.62,-0.02,32040.0,-4100.0,-32620.0
32.7643174,35.0164518,483.06,-0.0555,0.0085,0.99675,0.24,-0.02,0.02,32040.0,-4080.0,-32630.0
32.7643174,35.0164518,483.06,-0.05975,0.0085,0.997,0.02,0.7,0.0,32060.0,-4080.0,-32620.0
32.7643174,35.0164518,483.06,-0.0625,-0.0175,1.0055,-0.36,0.54,0.12,32070.0,-4110.0,-32590.0
32.7643174,35.0164518,483.06,-0.068,-0.017,1.00025,-0.28,0.18,0.06,32020.0,-4100.0,-32610.0
32.7643174,35.0164518,483.06,-0.06725,0.016,0.98525,0.48,-0.2,-0.04,32000.0,-4070.0,-32630.0
32.7643174,35.0164518,483.06,-0.0515,0.0125,1.002,0.68,-0.58,-0.02,32010.0,-4090.0,-32620.0
32.7643174,35.0164518,483.06,-0.04325,-0.0145,1.01625,-0.38,-0.74,-0.08,32000.0,-4100.0,-32610.0
32.7643174,35.0164518,483.06,-0.055,-0.0115,0.994,-0.9,-0.1,-0.06,32020.0,-4050.0,-32640.0
32.7643175,35.0164518,483.06,-0.06075,0.00425,0.98925,0.0,0.86,0.12,32060.0,-3960.0,-32670.0
32.7643175,35.0164518,483.06,-0.06075,0.001,0.9985,0.98,0.94,0.14,32040.0,-3940.0,-32700.0
32.7643175,35.0164518,483.06,-0.0695,-0.007,1.01525,0.2,0.22,0.1,32040.0,-3920.0,-32700.0
32.7643175,35.0164518,483.06,-0.0735,0.00475,0.99725,-0.8,-0.18,-0.04,32060.0,-3960.0,-32670.0
32.7643175,35.0164518,483.06,-0.06,0.00025,0.98675,-0.42,-0.54,0.0,32030.0,-4020.0,-32650.0
32.7643175,35.0164518,483.06,-0.04675,-0.02025,1.00025,0.22,-0.64,-0.04,32050.0,-4060.0,-32620.0
32.7643175,35.0164518,483.06,-0.05325,-0.0075,0.99225,0.26,-0.3,-0.02,32040.0,-4090.0,-32610.0
32.7643175,35.0164518,483.06,-0.0635,0.00925,0.998,0.04,0.54,0.02,32020.0,-4090.0,-32610.0
32.7643175,35.0164518,483.06,-0.06275,-0.00925,0.99975,-0.28,0.72,0.02,32060.0,-4100.0,-32600.0
32.7643175,35.0164518,483.06,-0.0705,-0.02925,1.001,-0.56,0.3,-0.02,32090.0,-4070.0,-32610.0
32.7643175,35.0164518,483.06,-0.074,-0.00625,0.98775,-0.04,0.02,-0.04,32070.0,-4020.0,-32640.0
32.7643175,35.0164518,483.06,-0.06375,0.01425,0.987,0.72,-0.36,0.0,32050.0,-4050.0,-32630.0
32.7643175,35.0164518,483.06,-0.0505,-0.011,1.00575,0.26,-0.76,-0.02,32070.0,-4020.0,-32620.0
32.7643175,35.0164518,483.06,-0.0505,-0.025,1.00425,-0.98,-0.52,-0.02,32060.0,-4040.0,-32620.0
32.7643175,35.0164518,483.06,-0.0625,-0.00725,0.98275,-0.58,0.34,-0.06,32070.0,-4040.0,-32610.0
32.7643175,35.0164518,483.06,-0.0615,-0.00225,0.98875,0.76,0.9,0.08,32070.0,-4070.0,-32600.0
32.7643175,35.0164518,483.06,-0.06625,-0.012,1.00575,0.82,0.58,0.12,32060.0,-4040.0,-32610.0
32.7643175,35.0164518,483.06,-0.072,-0.004,1.00575,-0.34,-0.08,0.0,32110.0,-3960.0,-32640.0
32.7643175,35.0164518,483.06,-0.068,0.004,0.98925,-0.64,-0.44,-0.08,32140.0,-3950.0,-32630.0
32.7643175,35.0164518,483.05,-0.0525,-0.01325,0.989,-0.04,-0.66,-0.04,32130.0,-3940.0,-32640.0
32.7643175,35.0164518,483.05,-0.04525,-0.0195,1.002,0.28,-0.5,-0.04,32060.0,-3890.0,-32680.0
32.7643175,35.0164518,483.05,-0.055,0.00775,0.99425,0.3,0.02,0.0,32080.0,-3920.0,-32660.0
32.7643175,35.0164518,483.05,-0.06125,0.0075,1.0015,0.02,0.68,0.04,32130.0,-3960.0,-32630.0
32.7643175,35.0164518,483.05,-0.062,-0.02,1.005,-0.4,0.56,0.1,32110.0,-4000.0,-32610.0
32.7643175,35.0164518,483.05,-0.07,-0.01775,0.997,-0.32,0.12,0.0,32110.0,-4000.0,-32610.0
32.7643175,35.0164518,483.05,-0.068,0.0135,0.98725,0.52,-0.22,0.02,32100.0,-4000.0,-32610.0
32.7643175,35.0164518,483.05,-0.053,0.013,0.9935,0.74,-0.62,-0.06,32050.0,-4020.0,-32610.0
32.7643175,35.0164518,483.05,-0.04625,-0.01725,1.01675,-0.36,-0.7,-0.08,32080.0,-4010.0,-32610.0
32.7643175,35.0164518,483.05,-0.055,-0.013,0.9945,-1.1,-0.1,-0.06,32110.0,-4000.0,-32620.0
32.7643175,35.0164518,483.05,-0.06425,0.00325,0.9825,0.14,0.8,0.06,32080.0,-3920.0,-32650.0
32.7643175,35.0164518,483.05,-0.06175,-0.00225,0.99875,1.04,0.86,0.1,32060.0,-3940.0,-32660.0
32.7643175,35.0164518,483.05,-0.0685,-0.00575,1.0095,0.3,0.14,0.06,32090.0,-3970.0,-32630.0
32.7643175,35.0164518,483.05,-0.0705,0.00625,1.0,-0.78,-0.38,-0.08,32110.0,-3920.0,-32640.0
32.7643175,35.0164518,483.05,-0.058,0.00175,0.98625,-0.52,-0.6,0.02,32140.0,-3910.0,-32640.0
32.7643175,35.0164518,483.05,-0.04825,-0.01925,0.99625,0.18,-0.52,0.0,32150.0,-3940.0,-32630.0
32.7643175,35.0164518,483.05,-0.05075,-0.00775,0.998,0.34,-0.2,-0.02,32130.0,-3920.0,-32640.0
32.7643175,35.0164518,483.05,-0.0635,0.016,0.99375,0.18,0.54,0.02,32120.0,-3910.0,-32650.0
32.7643175,35.0164518,483.05,-0.0635,-0.00275,1.00375,-0.18,0.7,0.06,32120.0,-3930.0,-32640.0
32.7643175,35.0164518,483.05,-0.0665,-0.0255,1.00175,-0.52,0.22,0.08,32100.0,-3960.0,-32640.0
32.7643175,35.0164518,483.05,-0.07125,-0.00375,0.99025,-0.12,-0.12,-0.04,32110.0,-3910.0,-32650.0
32.7643174,35.0164518,483.06,-0.061,0.02075,0.98775,0.8,-0.36,0.0,32150.0,-3860.0,-32670.0
32.7643174,35.0164518,483.06,-0.04825,0.00175,1.00425,0.38,-0.66,0.02,32130.0,-3930.0,-32640.0
32.7643174,35.0164518,483.06,-0.0485,-0.02175,1.012,-0.94,-0.46,-0.06,32120.0,-3950.0,-32630.0
32.7643174,35.0164518,483.06,-0.0615,-0.00475,0.98475,-0.8,0.4,-0.04,32110.0,-3960.0,-32640.0
32.7643174,35.0164518,483.06,-0.06675,0.0035,0.98475,0.58,0.98,0.14,32110.0,-3980.0,-32630.0
32.7643174,35.0164518,483.06,-0.06775,-0.008,1.009,0.92,0.6,0.14,32080.0,-3970.0,-32640.0
32.7643174,35.0164518,483.06,-0.072,-0.00325,1.00325,-0.26,-0.24,-0.04,32080.0,-4010.0,-32620.0
32.7643174,35.0164518,483.06,-0.0685,0.00575,0.99625,-0.84,-0.5,-0.14,32110.0,-4000.0,-32620.0
32.7643174,35.0164518,483.06,-0.05125,-0.01075,0.9835,-0.22,-0.54,-0.02,32060.0,-4020.0,-32630.0
32.7643174,35.0164518,483.06,-0.04725,-0.024,1.00275,0.3,-0.46,0.02,32070.0,-3980.0,-32640.0
32.7643174,35.0164518,483.06,-0.05625,0.00125,0.99425,0.24,0.1,-0.1,32090.0,-3940.0,-32660.0
32.7643174,35.0164518,483.06,-0.06525,0.00875,0.998,0.12,0.7,0.02,32040.0,-4020.0,-32640.0
32.7643174,35.0164518,483.06,-0.06325,-0.021,1.007,-0.36,0.52,0.14,32050.0,-4060.0,-32620.0
32.7643174,35.0164518,483.06,-0.06875,-0.024,0.99975,-0.52,0.08,-0.02,32030.0,-4060.0,-32620.0
32.7643174,35.0164518,483.06,-0.06825,0.006,0.98575,0.3,-0.26,-0.04,32020.0,-4070.0,-32620.0
32.7643174,35.0164518,483.06,-0.05225,0.01175,0.9965,0.78,-0.54,0.04,32100.0,-4120.0,-32600.0
32.7643174,35.0164518,483.06,-0.04575,-0.01625,1.00975,-0.1,-0.68,-0.02,32180.0,-4290.0,-32560.0
32.7643174,35.0164518,483.06,-0.05025,-0.019,1.00225,-1.1,-0.2,0.0,32200.0,-4410.0,-32540.0
32.7643174,35.0164518,483.06,-0.06125,0.002,0.98025,-0.12,0.68,0.04,32160.0,-4520.0,-32530.0
32.7643175,35.0164518,483.06,-0.06275,-0.00225,0.99475,0.98,0.9,0.14,32190.0,-4530.0,-32520.0
32.7643175,35.0164518,483.06,-0.067,-0.01025,1.01275,0.5,0.36,0.1,32260.0,-4470.0,-32550.0
32.7643175,35.0164518,483.06,-0.073,0.00275,0.9975,-0.66,-0.22,-0.02,32280.0,-4490.0,-32540.0
32.7643175,35.0164518,483.06,-0.062,0.00175,0.989,-0.46,-0.48,-0.08,32250.0,-4530.0,-32520.0
32.7643175,35.0164518,483.06,-0.04825,-0.017,0.99025,0.18,-0.5,-0.06,32160.0,-4390.0,-32540.0
32.7643175,35.0164518,483.06,-0.048,-0.01325,1.001,0.4,-0.34,0.02,32120.0,-4290.0,-32560.0
32.7643175,35.0164518,483.06,-0.06,0.01225,0.99325,0.2,0.5,0.0,32100.0,-4230.0,-32570.0
32.7643175,35.0164518,483.06,-0.066,-0.0015,0.99775,-0.1,0.8,0.1,32090.0,-4200.0,-32570.0
32.7643175,35.0164518,483.06,-0.06675,-0.02825,1.00525,-0.48,0.48,0.0,32090.0,-4110.0,-32600.0
32.7643175,35.0164518,483.06,-0.0735,-0.0095,0.986,-0.16,0.0,-0.04,32110.0,-4100.0,-32600.0
32.7643175,35.0164518,483.06,-0.067,0.016,0.987,0.8,-0.36,0.0,32110.0,-4060.0,-32620.0
32.7643175,35.0164518,483.06,-0.05125,0.00125,0.99975,0.54,-0.68,-0.04,32090.0,-4080.0,-32620.0
32.7643175,35.0164518,483.06,-0.05025,-0.022,1.00925,-0.66,-0.66,-0.06,32090.0,-4110.0,-32600.0
32.7643175,35.0164518,483.06,-0.0595,-0.0105,0.99075,-0.88,0.16,0.0,32090.0,-4120.0,-32600.0
32.7643175,35.0164518,483.06,-0.066,0.003,0.98025,0.54,0.88,0.12,32100.0,-4110.0,-32600.0
32.7643175,35.0164518,483.06,-0.06475,-0.0105,1.00625,1.0,0.66,0.22,32110.0,-4120.0,-32590.0
32.7643175,35.0164518,483.06,-0.0695,-0.00625,1.00925,-0.1,-0.16,0.02,32130.0,-4080.0,-32600.0
32.7643175,35.0164518,483.06,-0.0705,0.00425,0.9925,-0.72,-0.5,-0.02,32080.0,-4020.0,-32640.0
32.7643175,35.0164518,483.06,-0.052,-0.00975,0.99125,-0.18,-0.58,0.02,32070.0,-4000.0,-32650.0
32.7643175,35.0164518,483.06,-0.04625,-0.02075,1.0005,0.38,-0.54,-0.04,32090.0,-4020.0,-32640.0
32.7643175,35.0164518,483.06,-0.05225,-0.0005,1.001,0.34,-0.04,0.04,32090.0,-4000.0,-32640.0
32.7643175,35.0164518,483.06,-0.06175,0.01325,0.99775,0.16,0.72,0.06,32110.0,-3950.0,-32670.0
32.7643175,35.0164518,483.06,-0.06325,-0.014,1.009,-0.28,0.58,0.2,32100.0,-3990.0,-32650.0
32.7643175,35.0164518,483.06,-0.06575,-0.023,1.002,-0.48,0.1,0.0,32090.0,-4040.0,-32620.0
32.7643175,35.0164518,483.06,-0.0705,0.0085,0.98575,0.28,-0.14,-0.06,32110.0,-4070.0,-32600.0
32.7643175,35.0164518,483.06,-0.056,0.01825,0.995,0.96,-0.42,0.04,32140.0,-4070.0,-32600.0
32.7643175,35.0164518,483.06,-0.04625,-0.006,1.00975,0.06,-0.56,0.0,32130.0,-4030.0,-32610.0
32.7643175,35.0164518,483.06,-0.05425,-0.014,1.00225,-1.08,-0.24,-0.1,32090.0,-4070.0,-32610.0
32.7643175,35.0164518,483.06,-0.06275,0.004,0.98175,-0.34,0.66,0.0,32090.0,-4070.0,-32600.0
32.7643175,35.0164518,483.06,-0.06625,0.0045,0.9905,0.9,0.94,0.12,32100.0,-4070.0,-32590.0
32.7643175,35.0164518,483.06,-0.06725,-0.00525,1.01175,0.52,0.28,0.08,32080.0,-4040.0,-32610.0
32.7643175,35.0164518,483.06,-0.07275,0.00675,0.9975,-0.62,-0.22,-0.14,32100.0,-4020.0,-32610.0
32.7643175,35.0164518,483.06,-0.065,0.006,0.99075,-0.68,-0.6,-0.1,32070.0,-4060.0,-32600.0
32.7643175,35.0164518,483.06,-0.04675,-0.015,0.99025,0.04,-0.6,-0.02,32070.0,-4050.0,-32610.0
32.7643175,35.0164518,483.06,-0.049,-0.01325,0.99725,0.38,-0.38,-0.12,32110.0,-4060.0,-32590.0
32.7643175,35.0164518,483.06,-0.06,0.00975,0.9965,0.22,0.38,-0.06,32130.0,-4060.0,-32590.0
32.7643175,35.0164518,483.06,-0.06425,0.00225,0.99625,-0.08,0.76,0.1,32050.0,-4030.0,-32620.0
32.7643175,35.0164518,483.06,-0.0675,-0.02725,1.007,-0.54,0.42,0.1,32070.0,-3980.0,-32640.0
32.7643175,35.0164518,483.06,-0.0715,-0.01625,0.98925,-0.28,-0.02,0.0,32110.0,-3970.0,-32630.0
32.7643175,35.0164518,483.06,-0.067,0.01425,0.98375,0.66,-0.38,-0.04,32110.0,-4020.0,-32610.0
32.7643175,35.0164518,483.06,-0.04925,0.00325,1.00225,0.58,-0.64,0.06,32150.0,-3970.0,-32620.0
32.7643175,35.0164518,483.06,-0.0465,-0.02225,1.0085,-0.6,-0.68,-0.08,32150.0,-3890.0,-32660.0
32.7643175,35.0164518,483.06,-0.05825,-0.0145,0.993,-1.08,0.08,-0.02,32150.0,-3840.0,-32680.0
32.7643175,35.0164518,483.06,-0.06275,0.00075,0.982,0.3,0.94,0.08,32140.0,-3820.0,-32690.0
32.7643175,35.0164518,483.06,-0.06575,-0.0075,1.00025,1.1,0.74,0.2,32130.0,-3870.0,-32670.0
32.7643175,35.0164518,483.06,-0.068,-0.00975,1.0125,0.02,-0.04,0.12,32080.0,-3920.0,-32660.0
32.7643175,35.0164518,483.06,-0.07,0.00475,0.99425,-0.82,-0.46,-0.02,32090.0,-3950.0,-32640.0
32.7643175,35.0164518,483.06,-0.05575,-0.006,0.99075,-0.44,-0.66,-0.02,32110.0,-3970.0,-32630.0
32.7643175,35.0164518,483.06,-0.044,-0.02375,0.9985,0.24,-0.42,-0.02,32090.0,-4000.0,-32620.0
32.7643175,35.0164518,483.06,-0.0525,-0.0045,0.9985,0.4,0.0,0.08,32060.0,-4000.0,-32620.0
32.7643175,35.0164518,483.06,-0.06225,0.01225,0.99925,0.16,0.7,0.0,32070.0,-3970.0,-32640.0
32.7643175,35.0164518,483.06,-0.0635,-0.0105,1.0035,-0.24,0.66,0.12,32060.0,-3950.0,-32650.0
32.7643175,35.0164518,483.06,-0.067,-0.0285,1.006,-0.5,0.2,0.0,32060.0,-4000.0,-32630.0
32.7643175,35.0164518,483.06,-0.06975,0.00075,0.9865,0.04,-0.18,-0.08,32090.0,-4000.0,-32620.0
32.7643175,35.0164518,483.06,-0.061,0.01875,0.9895,0.94,-0.44,-0.06,32080.0,-4030.0,-32600.0
32.7643175,35.0164518,483.06,-0.04725,-0.006,1.01075,0.2,-0.64,-0.04,32050.0,-4030.0,-32610.0
32.7643175,35.0164518,483.06,-0.053,-0.01925,1.00275,-0.98,-0.3,-0.12,32080.0,-4030.0,-32610.0
32.7643175,35.0164518,483.06,-0.0645,-0.0025,0.98675,-0.54,0.52,-0.06,32120.0,-3960.0,-32630.0
32.7643175,35.0164518,483.06,-0.06475,0.00325,0.98425,0.84,1.02,-0.02,32090.0,-3920.0,-32650.0
32.7643175,35.0164518,483.06,-0.067,-0.007,1.01,0.78,0.32,0.12,32080.0,-3920.0,-32660.0
32.7643175,35.0164518,483.06,-0.07,0.00125,1.00525,-0.46,-0.2,-0.04,32060.0,-3900.0,-32670.0
32.7643175,35.0164518,483.06,-0.06725,0.0085,0.9865,-0.7,-0.5,-0.06,32080.0,-3850.0,-32700.0
32.7643175,35.0164518,483.06,-0.05075,-0.0135,0.99275,-0.14,-0.5,-0.06,32100.0,-3920.0,-32660.0
32.7643175,35.0164518,483.06,-0.04875,-0.0185,0.997,0.36,-0.34,0.02,32080.0,-3990.0,-32630.0
32.7643175,35.0164518,483.06,-0.06075,0.00775,0.994,0.3,0.3,0.06,32040.0,-4020.0,-32630.0
32.7643175,35.0164518,483.06,-0.06475,0.009,0.997,0.04,0.68,0.06,32050.0,-4060.0,-32610.0
32.7643175,35.0164518,483.06,-0.066,-0.019,1.00375,-0.38,0.36,0.12,32090.0,-4050.0,-32600.0
32.7643175,35.0164518,483.06,-0.069,-0.0195,0.99825,-0.48,-0.02,0.0,32070.0,-4080.0,-32600.0
32.7643175,35.0164518,483.06,-0.06825,0.01375,0.9815,0.4,-0.22,0.0,32080.0,-4050.0,-32610.0
32.7643175,35.0164518,483.06,-0.05425,0.01,0.99775,0.72,-0.5,0.04,32070.0,-4050.0,-32610.0
32.7643175,35.0164518,483.06,-0.0465,-0.01675,1.01175,-0.3,-0.48,-0.04,32060.0,-3990.0,-32640.0
32.7643175,35.0164518,483.06,-0.0575,-0.0115,0.99175,-1.04,-0.12,0.02,32110.0,-3970.0,-32640.0
32.7643175,35.0164518,483.06,-0.06375,0.00425,0.985,0.06,0.7,0.08,32130.0,-4010.0,-32620.0
32.7643175,35.0164518,483.06,-0.06375,-0.00275,0.99475,0.92,0.78,0.12,32100.0,-4020.0,-32630.0
32.7643175,35.0164518,483.06,-0.06875,-0.0095,1.01425,0.14,0.06,0.08,32070.0,-4050.0,-32630.0
32.7643175,35.0164518,483.06,-0.07175,0.004,0.997,-0.8,-0.3,0.02,32090.0,-4020.0,-32640.0
32.7643175,35.0164518,483.06,-0.06025,-0.002,0.986,-0.46,-0.6,-0.06,32070.0,-4010.0,-32650.0
32.7643175,35.0164518,483.06,-0.04575,-0.02325,1.00125,0.14,-0.52,-0.06,32110.0,-4020.0,-32640.0
32.7643175,35.0164518,483.06,-0.04925,-0.00925,0.99625,0.22,-0.32,0.06,32110.0,-4000.0,-32640.0
32.7643175,35.0164518,483.06,-0.06025,0.01,1.0005,0.1,0.42,-0.04,32060.0,-4040.0,-32630.0
32.7643174,35.0164518,483.06,-0.06125,-0.009,1.0035,-0.22,0.74,0.08,32030.0,-3980.0,-32670.0
32.7643174,35.0164518,483.06,-0.06625,-0.03025,1.00375,-0.5,0.34,0.08,32110.0,-3940.0,-32670.0
32.7643174,35.0164518,483.06,-0.07025,-0.00875,0.994,-0.12,-0.08,-0.06,32120.0,-3990.0,-32650.0
32.7643174,35.0164518,483.06,-0.06175,0.015,0.985,0.86,-0.3,-0.06,32080.0,-4050.0,-32630.0
32.7643174,35.0164518,483.06,-0.0485,-0.0075,1.008,0.38,-0.64,-0.02,32070.0,-4080.0,-32620.0
32.7643174,35.0164518,483.06,-0.049,-0.02225,1.00925,-0.82,-0.46,-0.06,32070.0,-4110.0,-32600.0
32.7643174,35.0164518,483.06,-0.06125,-0.0055,0.9845,-0.6,0.36,-0.02,32050.0,-4120.0,-32600.0
32.7643174,35.0164518,483.06,-0.0615,-0.00125,0.98925,0.66,0.96,0.1,32030.0,-4150.0,-32600.0
32.7643174,35.0164518,483.06,-0.064,-0.01075,1.00525,0.8,0.54,0.04,32070.0,-4130.0,-32590.0
32.7643174,35.0164518,483.06,-0.06875,-0.00325,1.00575,-0.2,-0.06,0.02,32090.0,-4090.0,-32600.0
32.7643174,35.0164518,483.06,-0.066,0.00675,0.9875,-0.66,-0.42,-0.02,32120.0,-4050.0,-32610.0
32.7643174,35.0164518,483.06,-0.0525,-0.012,0.98825,-0.04,-0.56,0.0,32100.0,-3990.0,-32650.0
32.7643174,35.0164518,483.06,-0.04825,-0.02075,1.00025,0.24,-0.3,-0.02,32030.0,-4060.0,-32630.0
32.7643174,35.0164518,483.06,-0.06025,0.00425,0.992,0.32,0.12,0.0,32020.0,-4100.0,-32610.0
32.7643174,35.0164518,483.06,-0.06625,0.00575,0.997,0.1,0.74,0.12,32040.0,-4120.0,-32600.0
32.7643174,35.0164518,483.06,-0.06475,-0.0195,1.00275,-0.3,0.44,0.1,32040.0,-4110.0,-32610.0
32.7643174,35.0164518,483.06,-0.069,-0.017,0.99625,-0.36,-0.08,0.04,32050.0,-4070.0,-32620.0
32.7643174,35.0164518,483.06,-0.06575,0.0135,0.9875,0.48,-0.36,-0.04,32080.0,-4020.0,-32640.0
32.7643174,35.0164518,483.06,-0.05075,0.0135,0.993,0.78,-0.64,0.04,32030.0,-4080.0,-32620.0
32.7643174,35.0164518,483.06,-0.047,-0.0145,1.01625,-0.34,-0.54,-0.02,32000.0,-4090.0,-32620.0
32.7643175,35.0164518,483.06,-0.05925,-0.01,0.99475,-0.86,0.04,0.04,32060.0,-4010.0,-32640.0
32.7643175,35.0164518,483.06,-0.069,0.00525,0.98275,0.08,0.92,0.08,32050.0,-3960.0,-32670.0
32.7643175,35.0164518,483.06,-0.06475,-0.0005,0.99975,0.9,0.78,0.14,32030.0,-4000.0,-32650.0
32.7643175,35.0164518,483.06,-0.06975,-0.002,1.0085,0.26,0.02,0.08,32070.0,-4080.0,-32620.0
32.7643175,35.0164518,483.06,-0.07025,0.009,1.0005,-0.72,-0.42,-0.08,32180.0,-4260.0,-32560.0
32.7643175,35.0164518,483.06,-0.056,0.00525,0.98725,-0.46,-0.58,-0.06,32270.0,-4440.0,-32510.0
32.7643175,35.0164518,483.06,-0.048,-0.01575,0.998,0.06,-0.6,0.02,32270.0,-4520.0,-32490.0
32.7643175,35.0164518,483.06,-0.05375,-0.006,1.00025,0.16,-0.12,-0.02,32240.0,-4580.0,-32480.0
32.7643175,35.0164518,483.06,-0.06475,0.012,0.99475,0.14,0.6,-0.08,32250.0,-4560.0,-32500.0
32.7643175,35.0164518,483.06,-0.066,-0.0075,1.006,-0.18,0.76,0.0,32260.0,-4590.0,-32490.0
32.7643175,35.0164518,483.06,-0.06875,-0.023,1.001,-0.56,0.26,0.04,32300.0,-4540.0,-32500.0
32.7643175,35.0164518,483.06,-0.07075,0.00125,0.991,-0.08,-0.24,-0.06,32190.0,-4360.0,-32550.0
32.7643175,35.0164518,483.06,-0.05675,0.015,0.9905,0.7,-0.62,-0.02,32130.0,-4240.0,-32570.0
32.7643175,35.0164518,483.06,-0.046,-0.0075,1.0065,0.18,-0.78,-0.06,32150.0,-4190.0,-32560.0
32.7643175,35.0164518,483.06,-0.0505,-0.02325,1.007,-0.98,-0.3,-0.08,32150.0,-4130.0,-32570.0
32.7643175,35.0164518,483.06,-0.0615,-0.00425,0.985,-0.54,0.62,0.02,32160.0,-4090.0,-32580.0
32.7643175,35.0164518,483.06,-0.06625,-0.003,0.98525,0.7,1.0,0.08,32130.0,-4030.0,-32610.0
32.7643175,35.0164518,483.06,-0.06575,-0.013,1.01175,0.58,0.42,0.06,32100.0,-4050.0,-32610.0
32.7643175,35.0164518,483.06,-0.0715,-0.001,0.9985,-0.4,-0.32,0.0,32110.0,-4050.0,-32600.0
32.7643175,35.0164518,483.06,-0.06125,0.00125,0.99325,-0.64,-0.56,0.0,32120.0,-4040.0,-32600.0
32.7643174,35.0164518,483.06,-0.04575,-0.019,0.98925,-0.14,-0.76,-0.02,32070.0,-3990.0,-32630.0
32.7643174,35.0164518,483.06,-0.047,-0.021,0.99775,0.24,-0.32,-0.02,32080.0,-3920.0,-32670.0
32.7643174,35.0164518,483.06,-0.0575,0.00425,0.994,0.36,0.4,0.12,32090.0,-3930.0,-32650.0
32.7643174,35.0164518,483.06,-0.065,-0.0005,0.99575,0.14,0.94,0.12,32050.0,-3980.0,-32640.0
32.7643174,35.0164518,483.06,-0.06575,-0.0265,1.008,-0.46,0.54,0.0,32040.0,-4030.0,-32620.0
32.7643174,35.0164518,483.06,-0.07175,-0.01475,0.99075,-0.34,0.06,0.0,32080.0,-4030.0,-32600.0
32.7643174,35.0164518,483.06,-0.06475,0.0115,0.98775,0.62,-0.44,-0.02,32080.0,-4010.0,-32610.0
32.7643174,35.0164518,483.06,-0.0475,0.00175,1.00025,0.66,-0.68,-0.02,32090.0,-4040.0,-32600.0
32.7643174,35.0164518,483.06,-0.04725,-0.0185,1.0085,-0.48,-0.58,-0.04,32100.0,-4060.0,-32590.0
32.7643174,35.0164518,483.06,-0.05725,-0.01,0.9965,-0.78,0.22,-0.06,32090.0,-4060.0,-32590.0
32.7643174,35.0164518,483.06,-0.0635,0.00225,0.98225,0.3,0.92,0.06,32080.0,-4010.0,-32610.0
32.7643174,35.0164518,483.06,-0.0665,-0.008,1.00375,0.92,0.84,0.16,32080.0,-3990.0,-32620.0
32.7643174,35.0164518,483.06,-0.07125,-0.00275,1.00875,0.14,0.04,0.02,32070.0,-4010.0,-32610.0
32.7643174,35.0164518,483.06,-0.07175,0.00975,0.9945,-0.58,-0.4,-0.08,32090.0,-4000.0,-32600.0
32.7643174,35.0164518,483.06,-0.0535,-0.00475,0.9925,-0.36,-0.66,-0.08,32120.0,-4010.0,-32600.0
32.7643174,35.0164518,483.06,-0.04675,-0.01775,0.99525,0.16,-0.62,-0.08,32100.0,-4050.0,-32590.0
32.7643174,35.0164518,483.06,-0.05475,0.00125,0.99775,0.32,0.0,0.02,32040.0,-4020.0,-32620.0
32.7643174,35.0164518,483.06,-0.0625,0.013,0.99625,0.16,0.8,0.06,32090.0,-3970.0,-32630.0
32.7643174,35.0164518,483.06,-0.067,-0.01125,1.00575,-0.2,0.64,0.1,32130.0,-3970.0,-32630.0
32.7643174,35.0164518,483.06,-0.0705,-0.01925,1.00075,-0.6,0.18,0.02,32090.0,-4020.0,-32610.0
32.7643174,35.0164518,483.06,-0.07175,0.0105,0.9855,0.24,-0.2,-0.06,32100.0,-3960.0,-32640.0
32.7643174,35.0164518,483.06,-0.0555,0.01475,0.99125,0.84,-0.6,0.04,32110.0,-3870.0,-32680.0
32.7643174,35.0164518,483.06,-0.04575,-0.0095,1.00975,0.02,-0.78,-0.08,32080.0,-3840.0,-32710.0
32.7643174,35.0164518,483.06,-0.05475,-0.012,1.0,-1.0,-0.28,0.0,32090.0,-3870.0,-32700.0
32.7643174,35.0164518,483.06,-0.06275,0.001,0.986,-0.44,0.74,0.06,32080.0,-3930.0,-32670.0
32.7643174,35.0164518,483.06,-0.065,-0.00375,0.9905,0.82,0.98,0.18,32050.0,-3980.0,-32650.0
32.7643174,35.0164518,483.06,-0.06875,-0.00925,1.01075,0.44,0.3,0.1,32100.0,-4000.0,-32620.0
32.7643174,35.0164518,483.06,-0.07025,0.00825,0.99625,-0.44,-0.32,-0.08,32130.0,-4040.0,-32600.0
32.7643174,35.0164518,483.06,-0.06025,0.00475,0.9905,-0.48,-0.7,-0.1,32110.0,-4050.0,-32600.0
32.7643174,35.0164518,483.06,-0.0445,-0.02075,0.996,-0.1,-0.72,-0.06,32030.0,-4050.0,-32620.0
32.7643174,35.0164518,483.06,-0.04975,-0.0135,0.99625,0.14,-0.22,-0.02,32060.0,-4010.0,-32630.0
32.7643174,35.0164518,483.06,-0.061,0.0075,0.995,0.3,0.64,0.0,32070.0,-3990.0,-32650.0
32.7643174,35.0164518,483.06,-0.0645,-0.0035,0.99975,0.12,0.94,0.1,32080.0,-4020.0,-32630.0
32.7643174,35.0164518,483.06,-0.0695,-0.025,1.0065,-0.44,0.3,0.08,32080.0,-4030.0,-32630.0
32.7643174,35.0164518,483.06,-0.07075,-0.007,0.99275,-0.34,-0.2,-0.04,32060.0,-4030.0,-32630.0
32.7643174,35.0164518,483.06,-0.0595,0.0135,0.986,0.62,-0.58,-0.1,32060.0,-4030.0,-32630.0
32.7643174,35.0164518,483.06,-0.044,-0.0085,1.00725,0.46,-0.74,-0.02,32100.0,-4090.0,-32600.0
32.7643174,35.0164518,483.06,-0.04575,-0.02075,1.00825,-0.62,-0.44,-0.04,32120.0,-4070.0,-32600.0
32.7643174,35.0164518,483.06,-0.0605,-0.00525,0.9895,-0.68,0.42,0.06,32060.0,-4010.0,-32650.0
32.7643174,35.0164518,483.06,-0.06425,-0.002,0.98925,0.44,1.04,0.08,32070.0,-4040.0,-32630.0
32.7643174,35.0164518,483.06,-0.06825,-0.01325,1.00225,0.76,0.64,0.14,32100.0,-4000.0,-32640.0
32.7643174,35.0164518,483.06,-0.073,-0.0045,1.0085,-0.16,-0.1,-0.08,32100.0,-3950.0,-32680.0
32.7643174,35.0164518,483.06,-0.06725,0.0065,0.9885,-0.48,-0.5,-0.06,32110.0,-3950.0,-32670.0
32.7643174,35.0164518,483.06,-0.0525,-0.01175,0.994,-0.2,-0.82,0.0,32070.0,-4030.0,-32640.0
32.7643174,35.0164518,483.06,-0.0455,-0.022,0.999,0.08,-0.52,-0.04,32030.0,-4060.0,-32640.0
32.7643174,35.0164518,483.06,-0.0565,0.0035,0.99375,0.22,0.22,-0.02,32050.0,-4080.0,-32620.0
32.7643174,35.0164518,483.06,-0.063,0.0055,0.9955,0.3,0.78,0.04,32060.0,-4120.0,-32610.0
32.7643174,35.0164518,483.06,-0.065,-0.01875,1.00775,-0.24,0.62,0.14,32030.0,-4120.0,-32600.0
32.7643174,35.0164518,483.06,-0.0725,-0.01725,0.9945,-0.38,0.08,0.0,32010.0,-4120.0,-32610.0
32.7643174,35.0164518,483.06,-0.06925,0.0115,0.9895,0.3,-0.26,0.0,32020.0,-4110.0,-32620.0
32.7643174,35.0164518,483.06,-0.05475,0.00925,0.9905,0.76,-0.64,-0.04,32090.0,-4140.0,-32610.0
32.7643174,35.0164518,483.06,-0.04675,-0.0165,1.01325,-0.18,-0.64,-0.08,32200.0,-4290.0,-32580.0
32.7643174,35.0164518,483.06,-0.056,-0.0095,0.99275,-0.84,-0.08,-0.04,32200.0,-4340.0,-32560.0
32.7643174,35.0164518,483.06,-0.064,0.00575,0.98475,0.04,0.76,0.08,32140.0,-4210.0,-32590.0
32.7643174,35.0164518,483.06,-0.063,-0.00475,0.99775,0.84,0.86,0.16,32090.0,-4180.0,-32590.0
32.7643174,35.0164518,483.06,-0.07,-0.00625,1.0075,0.22,0.12,0.06,32100.0,-4140.0,-32600.0
32.7643174,35.0164518,483.06,-0.07125,0.0075,0.999,-0.52,-0.28,0.0,32090.0,-4080.0,-32620.0
32.7643174,35.0164518,483.06,-0.05875,0.0035,0.986,-0.36,-0.62,-0.02,32080.0,-4010.0,-32650.0
32.7643174,35.0164518,483.06,-0.048,-0.0185,0.99875,0.12,-0.6,-0.06,32080.0,-4010.0,-32650.0
32.7643174,35.0164518,483.06,-0.05025,-0.0065,0.99825,0.08,-0.28,-0.02,32090.0,-4020.0,-32640.0
32.7643174,35.0164518,483.06,-0.06225,0.013,0.9925,0.18,0.52,0.06,32070.0,-3970.0,-32670.0
32.7643174,35.0164518,483.06,-0.06325,-0.00675,1.0055,-0.06,0.74,0.06,32080.0,-3950.0,-32680.0
32.7643174,35.0164518,483.06,-0.06775,-0.0235,1.00125,-0.44,0.36,0.08,32060.0,-3990.0,-32660.0
32.7643174,35.0164518,483.06,-0.0715,-0.00075,0.99275,-0.14,-0.16,-0.04,32090.0,-4040.0,-32630.0
32.7643174,35.0164518,483.06,-0.0595,0.0165,0.98875,0.78,-0.48,0.02,32090.0,-4050.0,-32620.0
32.7643174,35.0164518,483.06,-0.047,-0.00575,1.005,0.28,-0.78,-0.04,32060.0,-4050.0,-32610.0
32.7643174,35.0164518,483.06,-0.04775,-0.0215,1.009,-0.86,-0.5,-0.1,32010.0,-4070.0,-32620.0
32.7643174,35.0164518,483.06,-0.05925,-0.002,0.98475,-0.62,0.46,0.02,32040.0,-4100.0,-32610.0
32.7643174,35.0164518,483.06,-0.064,0.00125,0.989,0.62,1.04,0.08,32080.0,-4080.0,-32600.0
32.7643174,35.0164518,483.06,-0.066,-0.011,1.00875,0.6,0.6,0.14,32090.0,-4080.0,-32600.0
32.7643174,35.0164518,483.06,-0.07325,-0.00175,1.003,-0.34,-0.14,0.02,32110.0,-4020.0,-32620.0
32.7643174,35.0164518,483.06,-0.0675,0.00475,0.9915,-0.62,-0.48,-0.06,32100.0,-3950.0,-32660.0
32.7643174,35.0164518,483.06,-0.0505,-0.01275,0.98975,-0.08,-0.66,-0.08,32050.0,-4010.0,-32630.0
32.7643174,35.0164518,483.06,-0.0465,-0.02175,1.00225,0.14,-0.48,-0.06,32060.0,-4040.0,-32620.0
32.7643174,35.0164518,483.06,-0.0555,0.0035,0.99275,0.18,0.18,-0.04,32100.0,-3980.0,-32630.0
32.7643174,35.0164518,483.06,-0.064,0.0055,0.996,0.08,0.74,0.08,32090.0,-3970.0,-32640.0
32.7643174,35.0164518,483.06,-0.064,-0.02275,1.008,-0.24,0.58,0.12,32090.0,-3960.0,-32640.0
32.7643174,35.0164518,483.06,-0.0725,-0.01875,0.99375,-0.4,0.12,0.0,32070.0,-3990.0,-32630.0
32.7643174,35.0164518,483.06,-0.071,0.01,0.98925,0.38,-0.24,0.04,32040.0,-4000.0,-32630.0
32.7643174,35.0164518,483.06,-0.05425,0.00675,0.994,0.74,-0.54,0.02,32020.0,-4040.0,-32610.0
32.7643174,35.0164518,483.05,-0.0485,-0.019,1.01125,-0.34,-0.74,-0.04,32050.0,-3990.0,-32630.0
32.7643174,35.0164518,483.05,-0.055,-0.013,0.9975,-0.92,-0.12,-0.08,32060.0,-3890.0,-32680.0
32.7643174,35.0164518,483.05,-0.06175,0.00575,0.97975,0.08,0.74,0.02,32060.0,-3920.0,-32660.0
32.7643174,35.0164518,483.05,-0.062,-0.00625,1.002,0.88,0.78,0.08,32060.0,-3990.0,-32630.0
32.7643174,35.0164518,483.05,-0.068,-0.00975,1.01025,0.18,0.2,0.04,32060.0,-3980.0,-32630.0
32.7643174,35.0164518,483.05,-0.0745,0.0055,0.9955,-0.58,-0.24,-0.1,32060.0,-4000.0,-32610.0
32.7643174,35.0164518,483.05,-0.05975,-0.00125,0.99025,-0.4,-0.52,-0.04,32060.0,-3980.0,-32620.0
32.7643174,35.0164518,483.05,-0.048,-0.0195,0.995,0.24,-0.56,-0.04,32060.0,-4020.0,-32600.0
32.7643174,35.0164518,483.05,-0.05,-0.009,1.0005,0.2,-0.26,-0.04,32070.0,-3990.0,-32620.0
32.7643174,35.0164518,483.05,-0.05875,0.01375,0.9925,0.22,0.44,0.04,32100.0,-4000.0,-32610.0
32.7643174,35.0164518,483.05,-0.06275,-0.0065,1.002,-0.04,0.6,0.08,32090.0,-3970.0,-32630.0
32.7643174,35.0164518,483.05,-0.06625,-0.02525,1.0065,-0.46,0.3,0.06,32140.0,-4130.0,-32590.0
32.7643174,35.0164518,483.05,-0.07175,0.00025,0.9865,-0.04,-0.06,-0.02,32210.0,-4350.0,-32530.0
32.7643174,35.0164518,483.05,-0.062,0.01575,0.992,0.72,-0.28,-0.02,32260.0,-4480.0,-32500.0
32.7643174,35.0164518,483.05,-0.04825,-0.00475,1.00225,0.26,-0.7,-0.04,32270.0,-4530.0,-32480.0
32.7643174,35.0164518,483.05,-0.05075,-0.017,1.00725,-0.82,-0.48,-0.06,32290.0,-4540.0,-32480.0
32.7643174,35.0164518,483.05,-0.06,-0.00025,0.9855,-0.56,0.38,-0.04,32320.0,-4530.0,-32490.0
32.7643174,35.0164518,483.05,-0.0625,0.0035,0.9895,0.64,0.86,0.06,32320.0,-4460.0,-32530.0
32.7643174,35.0164518,483.05,-0.06475,-0.01,1.0085,0.62,0.56,0.12,32260.0,-4390.0,-32550.0
32.7643174,35.0164518,483.05,-0.07075,0.00175,1.0025,-0.34,-0.08,0.02,32180.0,-4270.0,-32570.0
32.7643174,35.0164518,483.06,-0.06925,0.00675,0.98975,-0.58,-0.38,-0.02,32130.0,-4130.0,-32610.0
32.7643174,35.0164518,483.06,-0.051,-0.01275,0.9925,-0.06,-0.6,-0.06,32150.0,-4000.0,-32640.0
32.7643174,35.0164518,483.06,-0.0485,-0.01775,0.99725,0.14,-0.54,-0.08,32160.0,-4010.0,-32630.0
32.7643174,35.0164518,483.06,-0.05725,0.00575,0.99775,0.12,0.16,-0.1,32110.0,-4030.0,-32620.0
32.7643174,35.0164518,483.06,-0.06225,0.00575,0.99325,0.08,0.78,0.06,32050.0,-4050.0,-32630.0
32.7643174,35.0164518,483.06,-0.066,-0.02325,1.009,-0.4,0.56,0.18,32090.0,-4070.0,-32600.0
32.7643174,35.0164518,483.06,-0.0705,-0.01825,0.9955,-0.4,0.12,0.0,32100.0,-4070.0,-32600.0
32.7643174,35.0164518,483.06,-0.0695,0.0125,0.9835,0.44,-0.2,0.02,32130.0,-4080.0,-32590.0
32.7643174,35.0164518,483.06,-0.0525,0.0055,0.99975,0.62,-0.64,0.08,32130.0,-4050.0,-32600.0
32.7643174,35.0164518,483.06,-0.04725,-0.0185,1.00925,-0.42,-0.64,-0.14,32140.0,-4050.0,-32600.0
32.7643174,35.0164518,483.06,-0.058,-0.01225,0.9965,-0.94,-0.08,-0.02,32160.0,-4020.0,-32620.0
32.7643174,35.0164518,483.06,-0.063,0.00175,0.984,0.18,0.9,0.08,32140.0,-4030.0,-32630.0
32.7643174,35.0164518,483.06,-0.06525,-0.0075,0.99725,0.86,0.8,0.16,32090.0,-4080.0,-32620.0
32.7643174,35.0164518,483.06,-0.06925,-0.00925,1.014,0.16,0.1,0.04,32090.0,-4070.0,-32610.0
32.7643174,35.0164518,483.06,-0.07125,0.00775,0.9925,-0.62,-0.28,-0.02,32110.0,-4090.0,-32600.0
32.7643174,35.0164518,483.06,-0.05775,-0.004,0.99075,-0.34,-0.64,-0.04,32130.0,-4100.0,-32590.0
32.7643174,35.0164518,483.06,-0.04575,-0.02375,0.9995,0.08,-0.6,-0.06,32100.0,-4070.0,-32610.0
32.7643174,35.0164518,483.06,-0.05325,-0.0045,0.994,0.28,-0.14,0.02,32090.0,-4040.0,-32630.0
32.7643174,35.0164518,483.06,-0.0615,0.01025,0.99725,0.26,0.64,0.1,32080.0,-4060.0,-32620.0
32.7643174,35.0164518,483.06,-0.0635,-0.0095,1.001,-0.02,0.7,0.12,32070.0,-4080.0,-32620.0
32.7643174,35.0164518,483.06,-0.06975,-0.025,1.00475,-0.54,0.26,0.04,32080.0,-4050.0,-32640.0
32.7643174,35.0164518,483.06,-0.07225,0.00175,0.9885,0.0,-0.14,0.0,32090.0,-3940.0,-32680.0
32.7643174,35.0164518,483.06,-0.06075,0.0155,0.987,0.82,-0.46,-0.02,32050.0,-3920.0,-32700.0
32.7643174,35.0164518,483.06,-0.047,-0.0105,1.0115,0.18,-0.78,-0.04,32090.0,-3930.0,-32690.0
32.7643174,35.0164518,483.06,-0.05175,-0.0155,1.00025,-0.86,-0.44,-0.08,32150.0,-4000.0,-32650.0
32.7643174,35.0164518,483.06,-0.0605,0.0015,0.9875,-0.42,0.46,0.04,32130.0,-4040.0,-32640.0
32.7643174,35.0164518,483.06,-0.06025,-0.00125,0.98875,0.7,0.82,0.14,32140.0,-4070.0,-32620.0
32.7643174,35.0164518,483.06,-0.06725,-0.01,1.0105,0.56,0.46,0.04,32100.0,-4100.0,-32610.0
32.7643174,35.0164518,483.06,-0.0725,0.00225,1.0025,-0.38,-0.04,0.02,32040.0,-4080.0,-32630.0
32.7643174,35.0164518,483.06,-0.06575,0.00675,0.988,-0.46,-0.38,-0.04,32030.0,-4080.0,-32630.0
32.7643174,35.0164518,483.06,-0.051,-0.017,0.99525,-0.06,-0.76,-0.04,32050.0,-4060.0,-32630.0
32.7643174,35.0164518,483.06,-0.04825,-0.01375,0.998,0.16,-0.58,-0.08,32030.0,-4050.0,-32650.0
32.7643174,35.0164518,483.06,-0.0585,0.011,0.99425,0.34,0.18,-0.04,32030.0,-4090.0,-32620.0
32.7643174,35.0164518,483.06,-0.0595,0.00025,1.002,0.02,0.76,0.1,32020.0,-4100.0,-32620.0
32.7643174,35.0164518,483.06,-0.0655,-0.0225,1.00375,-0.5,0.58,0.06,32080.0,-4100.0,-32600.0
32.7643174,35.0164518,483.06,-0.072,-0.00875,0.996,-0.28,0.08,0.08,32070.0,-4090.0,-32610.0
32.7643174,35.0164518,483.06,-0.06575,0.0155,0.9835,0.6,-0.3,-0.08,32050.0,-4110.0,-32600.0
32.7643174,35.0164518,483.06,-0.052,0.00075,1.00125,0.54,-0.74,0.08,32010.0,-4060.0,-32630.0
32.7643174,35.0164518,483.06,-0.04775,-0.018,1.011,-0.62,-0.78,-0.06,32060.0,-4000.0,-32650.0
32.7643174,35.0164518,483.06,-0.058,-0.00275,0.98725,-0.78,0.18,-0.06,32100.0,-4020.0,-32630.0
32.7643174,35.0164518,483.06,-0.061,0.0,0.98825,0.38,0.94,0.14,32120.0,-4000.0,-32640.0
32.7643174,35.0164518,483.06,-0.064,-0.01,1.00175,0.82,0.74,0.08,32090.0,-3940.0,-32670.0
32.7643174,35.0164518,483.06,-0.073,-0.001,1.005,-0.06,0.1,0.1,32070.0,-3990.0,-32650.0
32.7643174,35.0164518,483.06,-0.0715,0.00725,0.99675,-0.62,-0.34,-0.1,32080.0,-4050.0,-32620.0
32.7643174,35.0164518,483.06,-0.05325,-0.01,0.986,-0.32,-0.76,0.0,32080.0,-4050.0,-32610.0
32.7643174,35.0164518,483.06,-0.046,-0.023,1.0035,0.0,-0.66,-0.1,32110.0,-4090.0,-32590.0
32.7643174,35.0164518,483.06,-0.05275,0.00275,0.99075,0.2,0.0,-0.08,32100.0,-4070.0,-32600.0
32.7643174,35.0164518,483.06,-0.06125,0.00825,0.99725,0.26,0.76,0.02,32040.0,-4070.0,-32620.0
32.7643174,35.0164518,483.06,-0.0635,-0.02025,1.00925,-0.26,0.78,0.12,32050.0,-4060.0,-32610.0
32.7643174,35.0164518,483.06,-0.07325,-0.02,0.9975,-0.5,0.3,-0.02,32120.0,-4020.0,-32610.0
32.7643174,35.0164518,483.06,-0.07225,0.0065,0.98575,0.28,-0.08,-0.1,32090.0,-3960.0,-32640.0
32.7643174,35.0164518,483.06,-0.05475,0.00825,0.99325,0.82,-0.66,0.02,32080.0,-3950.0,-32650.0
32.7643174,35.0164518,483.06,-0.04775,-0.0155,1.0095,-0.1,-0.86,-0.02,32080.0,-4010.0,-32620.0
32.7643174,35.0164518,483.06,-0.054,-0.0115,1.0015,-0.92,-0.26,-0.12,32050.0,-4000.0,-32630.0
32.7643174,35.0164518,483.06,-0.062,0.00075,0.981,-0.12,0.72,0.08,32090.0,-4040.0,-32600.0
32.7643174,35.0164518,483.06,-0.063,-0.0105,0.99925,0.68,0.98,0.1,32110.0,-4010.0,-32600.0
32.7643174,35.0164518,483.06,-0.06975,-0.009,1.0055,0.42,0.4,0.1,32080.0,-3970.0,-32630.0
32.7643174,35.0164518,483.06,-0.07425,0.00975,0.99775,-0.42,-0.22,-0.04,32120.0,-3960.0,-32630.0
32.7643174,35.0164518,483.06,-0.05925,0.00025,0.99175,-0.42,-0.64,0.0,32120.0,-3910.0,-32650.0
32.7643174,35.0164518,483.06,-0.04775,-0.0215,0.995,-0.12,-0.8,-0.12,32080.0,-3930.0,-32660.0
32.7643174,35.0164518,483.06,-0.05125,-0.01,0.99875,0.1,-0.3,-0.06,32080.0,-3840.0,-32690.0
32.7643174,35.0164518,483.06,-0.05875,0.01225,0.9895,0.46,0.6,0.02,32100.0,-3850.0,-32690.0
32.7643174,35.0164518,483.06,-0.063,-0.006,1.00475,0.12,0.78,0.12,32090.0,-3910.0,-32660.0
32.7643174,35.0164518,483.06,-0.067,-0.022,1.0065,-0.48,0.36,0.0,32100.0,-3970.0,-32630.0
32.7643174,35.0164518,483.06,-0.074,0.0015,0.9865,-0.22,-0.1,0.02,32110.0,-3960.0,-32630.0
32.7643174,35.0164518,483.06,-0.06175,0.0125,0.99125,0.7,-0.52,-0.04,32080.0,-3980.0,-32620.0
32.7643174,35.0164518,483.06,-0.0465,-0.0075,1.0035,0.38,-0.72,0.0,32050.0,-3990.0,-32620.0
32.7643174,35.0164518,483.06,-0.05,-0.01425,1.00675,-0.72,-0.52,-0.1,32100.0,-4010.0,-32600.0
32.7643174,35.0164518,483.06,-0.058,0.0015,0.9895,-0.5,0.44,-0.02,32120.0,-3970.0,-32610.0
32.7643174,35.0164518,483.06,-0.06175,-0.0005,0.98825,0.42,0.96,0.14,32060.0,-3990.0,-32630.0
32.7643174,35.0164518,483.06,-0.066,-0.0135,1.01,0.44,0.54,0.06,32060.0,-3950.0,-32650.0
32.7643174,35.0164518,483.06,-0.07375,0.003,1.00025,-0.22,0.0,0.0,32100.0,-3890.0,-32670.0
32.7643174,35.0164518,483.06,-0.06825,0.00725,0.99175,-0.42,-0.4,-0.02,32080.0,-3960.0,-32640.0
32.7643174,35.0164518,483.06,-0.05,-0.0155,0.99625,-0.16,-0.72,-0.04,32110.0,-3990.0,-32620.0
32.7643174,35.0164518,483.06,-0.04975,-0.01675,0.9965,0.0,-0.64,-0.08,32100.0,-4010.0,-32610.0
32.7643174,35.0164518,483.06,-0.058,0.0055,0.9955,0.18,0.2,-0.06,32040.0,-3990.0,-32640.0
32.7643174,35.0164518,483.06,-0.06125,0.00225,0.996,0.2,0.84,0.08,32000.0,-3990.0,-32650.0
32.7643174,35.0164518,483.06,-0.06675,-0.0225,1.00875,-0.3,0.54,0.08,32070.0,-3960.0,-32650.0
32.7643174,35.0164518,483.06,-0.07275,-0.012,0.995,-0.44,0.1,0.0,32060.0,-3990.0,-32640.0
32.7643174,35.0164518,483.06,-0.07,0.01375,0.98475,0.38,-0.28,0.0,32040.0,-4030.0,-32630.0
32.7643174,35.0164518,483.06,-0.052,-0.0005,0.99975,0.54,-0.68,-0.04,32060.0,-3990.0,-32640.0
32.7643174,35.0164518,483.06,-0.049,-0.01875,1.00825,-0.42,-0.72,-0.08,32100.0,-3940.0,-32670.0
32.7643174,35.0164518,483.06,-0.0595,-0.00625,0.9925,-0.78,0.06,-0.02,32130.0,-3990.0,-32640.0
32.7643174,35.0164518,483.06,-0.06175,0.0035,0.98375,0.24,0.86,0.12,32140.0,-4040.0,-32610.0
32.7643174,35.0164518,483.06,-0.0655,-0.0085,1.001,0.76,0.72,0.16,32130.0,-4060.0,-32600.0
32.7643174,35.0164518,483.06,-0.0705,-0.006,1.0085,0.0,0.12,0.08,32140.0,-4080.0,-32590.0
32.7643174,35.0164518,483.06,-0.07175,0.0085,0.99125,-0.52,-0.38,-0.08,32130.0,-4090.0,-32590.0
32.7643174,35.0164518,483.06,-0.055,-0.00675,0.99275,-0.24,-0.72,-0.02,32100.0,-4120.0,-32590.0
32.7643174,35.0164518,483.06,-0.04525,-0.021,0.9985,0.12,-0.64,0.0,32090.0,-4100.0,-32590.0
32.7643174,35.0164518,483.06,-0.05325,0.00075,0.9935,0.16,-0.14,0.0,32110.0,-4110.0,-32600.0
32.7643174,35.0164518,483.06,-0.0585,0.01025,0.9975,0.2,0.6,0.04,32150.0,-4060.0,-32610.0
32.7643174,35.0164518,483.06,-0.06025,-0.014,1.00175,-0.1,0.64,0.08,32160.0,-4050.0,-32620.0
32.7643174,35.0164518,483.06,-0.06875,-0.0225,1.0045,-0.56,0.28,0.0,32160.0,-4080.0,-32610.0
32.7643174,35.0164518,483.06,-0.0715,0.00575,0.985,0.12,-0.04,-0.04,32140.0,-4100.0,-32600.0
32.7643174,35.0164518,483.06,-0.057,0.01175,0.989,0.76,-0.54,-0.02,32130.0,-4110.0,-32600.0
32.7643174,35.0164518,483.06,-0.0465,-0.0145,1.01425,-0.02,-0.76,-0.08,32150.0,-4120.0,-32590.0
32.7643174,35.0164518,483.06,-0.05275,-0.0125,0.9965,-0.9,-0.38,-0.08,32170.0,-4090.0,-32610.0
32.7643174,35.0164518,483.06,-0.05925,0.00225,0.98675,-0.28,0.58,0.02,32130.0,-4090.0,-32620.0
32.7643174,35.0164518,483.06,-0.05925,-0.00425,0.9945,0.74,0.86,0.12,32170.0,-4200.0,-32590.0
32.7643174,35.0164518,483.06,-0.067,-0.00825,1.00825,0.36,0.38,0.14,32260.0,-4370.0,-32550.0
32.7643174,35.0164518,483.06,-0.07275,0.00475,1.00125,-0.4,-0.04,-0.08,32280.0,-4390.0,-32570.0
32.7643174,35.0164518,483.06,-0.062,0.00375,0.988,-0.42,-0.44,0.02,32330.0,-4390.0,-32580.0
32.7643174,35.0164518,483.06,-0.05075,-0.02,0.99575,-0.08,-0.72,-0.04,32330.0,-4470.0,-32550.0
32.7643174,35.0164518,483.06,-0.0525,-0.01175,0.9995,0.1,-0.38,0.02,32330.0,-4550.0,-32510.0
32.7643174,35.0164518,483.06,-0.0595,0.01075,0.99075,0.38,0.4,0.02,32310.0,-4580.0,-32490.0
32.7643174,35.0164518,483.06,-0.06075,-0.00725,1.00325,0.02,0.72,0.06,32330.0,-4600.0,-32480.0
32.7643174,35.0164518,483.06,-0.06675,-0.02275,1.0055,-0.44,0.36,0.06,32250.0,-4410.0,-32520.0
32.7643174,35.0164518,483.06,-0.073,-0.0005,0.988,-0.14,0.0,-0.02,32180.0,-4290.0,-32540.0
32.7643174,35.0164518,483.06,-0.06325,0.01025,0.98925,0.66,-0.36,0.12,32160.0,-4200.0,-32570.0
32.7643174,35.0164518,483.06,-0.05,-0.009,1.00575,0.22,-0.72,-0.06,32130.0,-4130.0,-32600.0
32.7643174,35.0164518,483.06,-0.0535,-0.01625,1.00225,-0.72,-0.6,-0.08,32180.0,-4040.0,-32620.0
32.7643174,35.0164518,483.06,-0.06175,-0.0015,0.99125,-0.34,0.44,-0.02,32170.0,-4040.0,-32630.0
32.7643174,35.0164518,483.06,-0.06175,-0.0035,0.98775,0.58,0.84,0.06,32140.0,-4080.0,-32610.0
32.7643174,35.0164518,483.06,-0.0675,-0.013,1.00775,0.5,0.54,0.1,32160.0,-4080.0,-32600.0
32.7643174,35.0164518,483.06,-0.074,0.0025,1.0055,-0.18,0.04,0.0,32190.0,-4080.0,-32590.0
32.7643174,35.0164518,483.06,-0.06275,0.00325,0.98475,-0.28,-0.48,0.06,32200.0,-4090.0,-32580.0
32.7643174,35.0164518,483.06,-0.05,-0.01975,1.0005,-0.16,-0.78,-0.06,32140.0,-4070.0,-32600.0
32.7643174,35.0164518,483.06,-0.0495,-0.01175,0.99725,0.04,-0.46,-0.04,32140.0,-4020.0,-32630.0
32.7643174,35.0164518,483.06,-0.05825,0.00525,0.98775,0.28,0.2,0.02,32190.0,-4030.0,-32610.0
32.7643174,35.0164518,483.06,-0.062,-0.00725,1.01075,0.18,0.82,0.08,32160.0,-4070.0,-32600.0
32.7643174,35.0164518,483.06,-0.06525,-0.01975,0.9995,-0.38,0.5,0.08,32170.0,-4020.0,-32620.0
32.7643174,35.0164518,483.06,-0.0735,-0.00325,0.9905,-0.14,0.04,-0.04,32160.0,-3900.0,-32680.0
32.7643174,35.0164518,483.06,-0.06275,0.012,0.99625,0.58,-0.36,0.0,32130.0,-3860.0,-32700.0
32.7643174,35.0164518,483.06,-0.0455,-0.0045,0.992,0.38,-0.88,0.02,32170.0,-3850.0,-32700.0
32.7643174,35.0164518,483.06,-0.05175,-0.01475,1.01325,-0.66,-0.6,-0.2,32230.0,-3890.0,-32650.0
32.7643174,35.0164518,483.06,-0.0585,-0.00025,0.99075,-0.44,0.46,-0.02,32180.0,-3930.0,-32650.0
32.7643174,35.0164518,483.06,-0.0595,-0.002,0.9785,0.44,0.92,0.12,32160.0,-3970.0,-32640.0
32.7643174,35.0164518,483.06,-0.0685,-0.01125,1.01875,0.52,0.6,0.1,32160.0,-4000.0,-32620.0
32.7643174,35.0164518,483.06,-0.07325,0.00625,0.99475,-0.08,0.18,-0.06,32180.0,-4000.0,-32600.0
32.7643174,35.0164518,483.06,-0.06525,0.00575,0.98875,-0.4,-0.5,-0.02,32200.0,-4010.0,-32600.0
32.7643174,35.0164518,483.06,-0.05025,-0.01625,1.00975,-0.24,-0.84,-0.1,32200.0,-3970.0,-32620.0
32.7643174,35.0164518,483.06,-0.0475,-0.01125,0.9805,0.02,-0.6,-0.06,32150.0,-3910.0,-32650.0
32.7643174,35.0164518,483.06,-0.056,0.00625,1.0,0.26,0.1,0.0,32150.0,-3950.0,-32630.0
32.7643174,35.0164518,483.06,-0.06025,-0.003,1.0075,0.22,0.86,0.04,32170.0,-3950.0,-32630.0
32.7643174,35.0164518,483.06,-0.06525,-0.01775,0.991,-0.36,0.6,0.14,32180.0,-3970.0,-32620.0
32.7643174,35.0164518,483.06,-0.07725,-0.00475,1.005,-0.34,0.22,0.0,32130.0,-3960.0,-32630.0
32.7643174,35.0164518,483.06,-0.0665,0.012,0.98475,0.6,-0.2,-0.04,32130.0,-3990.0,-32620.0
32.7643174,35.0164518,483.06,-0.048,-0.00275,0.99175,0.34,-0.96,-0.06,32140.0,-3980.0,-32620.0
32.7643174,35.0164518,483.06,-0.0515,-0.01375,1.022,-0.56,-0.82,-0.06,32180.0,-3900.0,-32650.0
32.7643174,35.0164518,483.06,-0.05675,-0.00075,0.9815,-0.54,0.24,-0.04,32210.0,-3880.0,-32660.0
32.7643174,35.0164518,483.06,-0.05675,-0.0035,0.98675,0.2,0.84,0.14,32180.0,-3890.0,-32660.0
32.7643174,35.0164518,483.06,-0.067,-0.01175,1.01575,0.46,0.76,0.1,32160.0,-3830.0,-32700.0
32.7643174,35.0164518,483.06,-0.0745,0.0045,0.99,-0.02,0.32,-0.06,32170.0,-3850.0,-32680.0
32.7643174,35.0164518,483.06,-0.065,0.00625,0.99575,-0.4,-0.46,0.02,32190.0,-3890.0,-32650.0
32.7643174,35.0164518,483.06,-0.0525,-0.0155,1.00375,-0.3,-0.86,-0.08,32150.0,-3940.0,-32640.0
32.7643174,35.0164518,483.06,-0.04925,-0.015,0.9865,-0.18,-0.68,-0.12,32150.0,-3950.0,-32630.0
32.7643174,35.0164518,483.06,-0.0545,0.004,0.99675,0.28,0.14,-0.02,32180.0,-3970.0,-32620.0
32.7643174,35.0164518,483.06,-0.06075,-0.004,1.00275,0.3,0.92,0.08,32160.0,-4000.0,-32610.0
32.7643174,35.0164518,483.06,-0.066,-0.02,1.0015,-0.38,0.72,0.1,32130.0,-4010.0,-32620.0
32.7643174,35.0164518,483.06,-0.07475,-0.005,0.997,-0.34,0.2,0.04,32130.0,-3990.0,-32630.0
32.7643174,35.0164518,483.06,-0.06875,0.0085,0.98775,0.42,-0.26,0.02,32140.0,-3920.0,-32660.0
32.7643174,35.0164518,483.06,-0.05,-0.0075,0.99725,0.42,-0.84,0.0,32170.0,-3910.0,-32650.0
32.7643174,35.0164518,483.06,-0.0495,-0.0135,1.0085,-0.44,-0.78,-0.06,32160.0,-3960.0,-32640.0
32.7643174,35.0164518,483.06,-0.06025,-0.0015,0.99075,-0.54,0.12,-0.06,32120.0,-3970.0,-32650.0
32.7643174,35.0164518,483.06,-0.0605,-0.0055,0.989,0.36,1.06,0.14,32130.0,-3980.0,-32640.0
32.7643174,35.0164518,483.06,-0.066,-0.01375,1.00325,0.42,0.72,0.12,32150.0,-4010.0,-32620.0
32.7643174,35.0164518,483.06,-0.0785,0.0015,1.00125,0.06,0.18,0.04,32150.0,-3970.0,-32640.0
32.7643174,35.0164518,483.06,-0.06925,0.00525,0.99175,-0.14,-0.3,-0.02,32170.0,-3950.0,-32650.0
32.7643174,35.0164518,483.06,-0.05225,-0.013,0.99425,-0.2,-1.02,0.02,32140.0,-3960.0,-32650.0
32.7643174,35.0164518,483.06,-0.05125,-0.01325,0.99825,-0.14,-0.78,-0.14,32130.0,-3960.0,-32660.0
32.7643174,35.0164518,483.06,-0.0545,0.00375,0.9915,0.24,0.04,-0.08,32150.0,-3920.0,-32680.0
32.7643174,35.0164518,483.06,-0.057,-0.00475,0.99675,0.24,0.76,0.08,32210.0,-3900.0,-32690.0
32.7643174,35.0164518,483.06,-0.0655,-0.019,1.01125,-0.2,0.68,0.06,32200.0,-3950.0,-32660.0
32.7643174,35.0164518,483.06,-0.0745,-0.00275,0.9925,-0.22,0.36,-0.06,32170.0,-4000.0,-32640.0
32.7643174,35.0164518,483.06,-0.06575,0.01175,0.985,0.34,-0.38,0.1,32160.0,-4020.0,-32640.0
32.7643174,35.0164518,483.06,-0.048,-0.00475,1.005,0.36,-0.96,0.0,32140.0,-4050.0,-32630.0
32.7643174,35.0164518,483.06,-0.04775,-0.013,1.0065,-0.4,-0.76,-0.12,32130.0,-4060.0,-32620.0
32.7643174,35.0164518,483.06,-0.0545,-0.002,0.9865,-0.46,0.18,0.04,32140.0,-4080.0,-32610.0
32.7643174,35.0164518,483.06,-0.05875,-0.001,0.99525,0.3,0.88,0.12,32130.0,-4080.0,-32610.0
32.7643174,35.0164518,483.06,-0.06525,-0.011,1.0035,0.54,0.86,0.14,32120.0,-4090.0,-32620.0
32.7643174,35.0164518,483.06,-0.07425,0.0015,0.999,-0.1,0.3,0.02,32130.0,-4030.0,-32640.0
32.7643174,35.0164518,483.06,-0.0665,0.00875,0.99275,-0.3,-0.36,0.04,32140.0,-3980.0,-32660.0
32.7643174,35.0164518,483.06,-0.0505,-0.00875,0.9995,-0.14,-0.94,0.0,32100.0,-4040.0,-32640.0
32.7643174,35.0164518,483.06,-0.0485,-0.014,0.99,-0.12,-0.74,-0.1,32110.0,-4080.0,-32620.0
32.7643174,35.0164518,483.06,-0.054,0.00325,1.00025,0.06,0.06,-0.04,32120.0,-4090.0,-32610.0
32.7643174,35.0164518,483.06,-0.059,-0.00225,0.99675,0.22,0.72,0.12,32080.0,-4080.0,-32630.0
32.7643174,35.0164518,483.06,-0.0665,-0.01975,1.0025,-0.14,0.88,0.06,32110.0,-4060.0,-32630.0
32.7643174,35.0164518,483.06,-0.07525,-0.007,0.99675,-0.24,0.36,0.02,32140.0,-4030.0,-32640.0
32.7643174,35.0164518,483.06,-0.0665,0.01375,0.9875,0.36,-0.26,0.02,32080.0,-4050.0,-32650.0
32.7643174,35.0164518,483.06,-0.05025,-0.0025,0.99725,0.38,-1.02,-0.02,32040.0,-4100.0,-32620.0
32.7643174,35.0164518,483.06,-0.04725,-0.0175,1.0095,-0.44,-0.86,-0.08,32100.0,-4050.0,-32630.0
32.7643174,35.0164518,483.06,-0.056,-0.00325,0.992,-0.58,0.06,0.0,32100.0,-3980.0,-32670.0
32.7643174,35.0164518,483.06,-0.0615,-0.001,0.986,0.32,1.06,0.04,32100.0,-4030.0,-32650.0
32.7643174,35.0164518,483.06,-0.06725,-0.01275,1.00575,0.52,0.92,0.14,32100.0,-4070.0,-32630.0
32.7643174,35.0164518,483.06,-0.076,-0.00075,1.004,-0.1,0.22,0.06,32110.0,-4060.0,-32630.0
32.7643174,35.0164518,483.06,-0.071,0.0065,0.9905,-0.4,-0.34,0.0,32110.0,-4080.0,-32620.0
32.7643174,35.0164518,483.06,-0.052,-0.01275,0.99575,-0.2,-0.98,-0.04,32110.0,-4070.0,-32610.0
32.7643174,35.0164518,483.06,-0.04575,-0.0175,0.99825,-0.14,-0.82,-0.1,32100.0,-4090.0,-32610.0
32.7643174,35.0164518,483.06,-0.054,0.00275,0.9935,0.22,0.02,-0.04,32140.0,-4050.0,-32620.0
32.7643174,35.0164518,483.06,-0.06075,-0.00225,0.99775,0.2,0.92,0.12,32180.0,-4030.0,-32620.0
32.7643174,35.0164518,483.06,-0.06625,-0.0215,1.00675,-0.26,0.88,0.12,32190.0,-3990.0,-32630.0
32.7643174,35.0164518,483.06,-0.07675,-0.009,0.99625,-0.36,0.36,0.02,32130.0,-3980.0,-32650.0
32.7643174,35.0164518,483.06,-0.071,0.01225,0.98675,0.46,-0.26,-0.06,32100.0,-4030.0,-32630.0
32.7643174,35.0164518,483.06,-0.05225,-0.0015,0.99875,0.46,-0.94,-0.08,32140.0,-4030.0,-32620.0
32.7643174,35.0164518,483.06,-0.04625,-0.016,1.01075,-0.42,-0.98,-0.1,32170.0,-4030.0,-32600.0
32.7643174,35.0164518,483.06,-0.05475,-0.005,0.99,-0.6,-0.1,-0.08,32200.0,-4050.0,-32590.0
32.7643174,35.0164518,483.06,-0.05775,-0.001,0.98775,0.34,0.98,0.06,32180.0,-4010.0,-32610.0
32.7643174,35.0164518,483.06,-0.06375,-0.01125,1.004,0.64,0.92,0.08,32130.0,-3970.0,-32650.0
32.7643174,35.0164518,483.06,-0.07475,-0.00025,1.00275,0.16,0.32,0.02,32140.0,-3970.0,-32650.0
32.7643174,35.0164518,483.06,-0.0725,0.00825,0.99375,-0.4,-0.26,0.0,32170.0,-3980.0,-32630.0
32.7643174,35.0164518,483.06,-0.0535,-0.00875,0.99425,-0.2,-0.96,0.0,32150.0,-3940.0,-32650.0
32.7643174,35.0164518,483.06,-0.0455,-0.0185,0.997,-0.1,-0.88,-0.12,32120.0,-3880.0,-32680.0
32.7643174,35.0164518,483.06,-0.0515,0.0015,0.994,0.16,-0.18,-0.08,32130.0,-3910.0,-32660.0
32.7643174,35.0164518,483.06,-0.0565,0.0035,0.99525,0.28,0.74,0.12,32150.0,-3970.0,-32630.0
32.7643174,35.0164518,483.06,-0.063,-0.018,1.0075,-0.2,0.86,0.14,32200.0,-4010.0,-32600.0
32.7643174,35.0164518,483.06,-0.07575,-0.0115,0.996,-0.38,0.46,0.0,32200.0,-4060.0,-32590.0
32.7643174,35.0164518,483.06,-0.07175,0.012,0.988,0.26,-0.12,-0.04,32240.0,-4260.0,-32550.0
32.7643174,35.0164518,483.06,-0.0535,0.0025,0.9955,0.54,-0.84,0.0,32300.0,-4400.0,-32510.0
32.7643174,35.0164518,483.06,-0.046,-0.016,1.011,-0.38,-1.02,-0.06,32340.0,-4480.0,-32490.0
32.7643174,35.0164518,483.06,-0.05325,-0.0055,0.992,-0.68,-0.2,-0.16,32350.0,-4510.0,-32490.0
32.7643174,35.0164518,483.06,-0.05725,0.00225,0.9865,0.14,0.84,0.12,32340.0,-4470.0,-32520.0
32.7643174,35.0164518,483.06,-0.063,-0.00975,0.99975,0.58,0.96,0.14,32380.0,-4460.0,-32520.0
32.7643174,35.0164518,483.06,-0.0745,-0.0035,1.00575,0.1,0.44,-0.04,32400.0,-4490.0,-32490.0
32.7643174,35.0164518,483.06,-0.0735,0.008,0.99325,-0.4,-0.1,-0.06,32320.0,-4330.0,-32530.0
32.7643174,35.0164518,483.06,-0.05625,-0.00575,0.992,-0.2,-0.86,-0.02,32260.0,-4180.0,-32570.0
32.7643174,35.0164518,483.06,-0.04775,-0.018,0.99875,-0.16,-0.98,-0.12,32230.0,-4050.0,-32600.0
32.7643174,35.0164518,483.06,-0.0535,0.0015,0.99475,0.1,-0.3,-0.12,32220.0,-3970.0,-32630.0
32.7643174,35.0164518,483.06,-0.05525,0.004,0.99375,0.26,0.62,0.14,32200.0,-3970.0,-32630.0
32.7643174,35.0164518,483.06,-0.06125,-0.018,1.01025,-0.14,0.8,0.1,32180.0,-3990.0,-32620.0
32.7643174,35.0164518,483.06,-0.072,-0.0155,0.996,-0.4,0.58,0.08,32150.0,-4020.0,-32610.0
32.7643174,35.0164518,483.06,-0.0715,0.01175,0.98825,0.24,-0.02,-0.04,32160.0,-3960.0,-32630.0
32.7643174,35.0164518,483.06,-0.05475,0.00475,0.99375,0.6,-0.78,-0.04,32180.0,-3860.0,-32670.0
32.7643174,35.0164518,483.06,-0.04725,-0.01675,1.0125,-0.22,-1.0,-0.06,32180.0,-3830.0,-32700.0
32.7643174,35.0164518,483.06,-0.05425,-0.00925,0.993,-0.8,-0.14,-0.1,32170.0,-3860.0,-32680.0
32.7643174,35.0164518,483.06,-0.05875,0.00125,0.9875,0.0,0.88,0.1,32140.0,-3940.0,-32650.0
32.7643174,35.0164518,483.06,-0.06225,-0.01025,0.99725,0.72,0.96,0.16,32110.0,-3980.0,-32640.0
32.7643174,35.0164518,483.06,-0.0735,-0.006,1.009,0.16,0.4,0.02,32090.0,-3980.0,-32640.0
32.7643174,35.0164518,483.06,-0.0755,0.0075,0.993,-0.38,-0.1,-0.04,32140.0,-4020.0,-32610.0
32.7643174,35.0164518,483.06,-0.05825,-0.004,0.99325,-0.3,-0.74,0.06,32150.0,-4020.0,-32610.0
32.7643174,35.0164518,483.06,-0.04775,-0.01925,0.99575,-0.08,-0.86,-0.12,32130.0,-4040.0,-32610.0
32.7643174,35.0164518,483.06,-0.054,-0.00325,0.995,0.16,-0.28,-0.14,32150.0,-3990.0,-32630.0
32.7643174,35.0164518,483.06,-0.06025,0.0055,0.99525,0.28,0.66,0.14,32120.0,-4010.0,-32640.0
32.7643174,35.0164518,483.06,-0.06375,-0.01475,1.004,-0.12,0.86,0.08,32160.0,-4040.0,-32610.0
32.7643174,35.0164518,483.06,-0.074,-0.019,1.00025,-0.54,0.46,0.04,32170.0,-4060.0,-32600.0
32.7643174,35.0164518,483.06,-0.07625,0.00575,0.98775,0.1,0.02,-0.04,32130.0,-4080.0,-32600.0
32.7643174,35.0164518,483.06,-0.0595,0.00775,0.99125,0.68,-0.7,-0.06,32090.0,-4080.0,-32610.0
32.7643174,35.0164518,483.06,-0.04675,-0.0135,1.00725,-0.02,-1.0,-0.08,32150.0,-4070.0,-32600.0
32.7643174,35.0164518,483.06,-0.052,-0.01175,0.9985,-0.82,-0.52,-0.12,32160.0,-4040.0,-32620.0
32.7643174,35.0164518,483.06,-0.05925,-0.00025,0.987,-0.14,0.62,0.02,32140.0,-4020.0,-32640.0
32.7643174,35.0164518,483.06,-0.06225,-0.008,0.996,0.62,1.0,0.16,32140.0,-4020.0,-32630.0
32.7643174,35.0164518,483.07,-0.07025,-0.00775,1.00625,0.36,0.48,0.14,32140.0,-4000.0,-32640.0
32.7643174,35.0164518,483.07,-0.076,0.00725,0.99875,-0.3,-0.04,-0.06,32150.0,-3940.0,-32670.0
32.7643174,35.0164518,483.07,-0.06175,0.00075,0.993,-0.32,-0.7,0.0,32170.0,-3970.0,-32660.0
32.7643174,35.0164518,483.07,-0.04575,-0.019,0.998,-0.14,-0.94,-0.06,32150.0,-4040.0,-32620.0
32.7643174,35.0164518,483.07,-0.04525,-0.00775,0.99525,0.1,-0.58,-0.08,32140.0,-4090.0,-32600.0
32.7643174,35.0164518,483.07,-0.05375,0.00825,0.9965,0.28,0.46,0.04,32160.0,-4120.0,-32590.0
32.7643174,35.0164518,483.07,-0.05875,-0.00775,1.003,0.12,0.92,0.14,32170.0,-4140.0,-32580.0
32.7643174,35.0164518,483.07,-0.06875,-0.01925,1.00425,-0.44,0.7,0.04,32140.0,-4130.0,-32590.0
32.7643174,35.0164518,483.07,-0.07475,0.0035,0.99,-0.16,0.14,-0.02,32140.0,-4130.0,-32590.0
32.7643174,35.0164518,483.07,-0.063,0.01175,0.99125,0.6,-0.5,-0.06,32170.0,-4130.0,-32580.0
32.7643174,35.0164518,483.07,-0.04625,-0.01,1.00425,0.18,-0.98,-0.02,32160.0,-4060.0,-32620.0
32.7643174,35.0164518,483.07,-0.04875,-0.0125,1.007,-0.72,-0.56,-0.06,32140.0,-4050.0,-32640.0
32.7643174,35.0164518,483.07,-0.055,0.0035,0.98075,-0.42,0.38,-0.02,32140.0,-4090.0,-32610.0
32.7643174,35.0164518,483.07,-0.059,0.00025,0.9975,0.62,1.0,0.1,32110.0,-4090.0,-32620.0
32.7643174,35.0164518,483.07,-0.06725,-0.01125,1.00425,0.42,0.76,0.14,32110.0,-4120.0,-32600.0
32.7643174,35.0164518,483.07,-0.07575,0.00275,1.001,-0.38,0.24,0.04,32140.0,-4110.0,-32600.0
32.7643174,35.0164518,483.07,-0.0685,0.00575,0.98675,-0.38,-0.42,-0.1,32120.0,-4050.0,-32630.0
32.7643174,35.0164518,483.07,-0.052,-0.01275,0.9955,0.02,-0.9,-0.06,32110.0,-4020.0,-32650.0
32.7643174,35.0164518,483.07,-0.051,-0.015,0.9975,0.04,-0.68,-0.04,32120.0,-4020.0,-32650.0
32.7643174,35.0164518,483.07,-0.05725,0.007,0.99375,0.12,0.28,0.04,32140.0,-4020.0,-32650.0
32.7643174,35.0164518,483.07,-0.0605,-0.003,0.99725,0.08,0.78,0.1,32170.0,-3980.0,-32660.0
32.7643174,35.0164518,483.06,-0.0655,-0.02425,1.0085,-0.28,0.66,0.1,32170.0,-3910.0,-32680.0
32.7643174,35.0164518,483.06,-0.07475,-0.00875,0.9925,-0.26,0.2,0.02,32120.0,-3960.0,-32670.0
32.7643174,35.0164518,483.06,-0.066,0.01425,0.9875,0.5,-0.32,0.0,32150.0,-4000.0,-32640.0
32.7643174,35.0164518,483.06,-0.05075,-0.0025,1.00075,0.38,-0.82,-0.04,32160.0,-4030.0,-32620.0
32.7643174,35.0164518,483.06,-0.04925,-0.01975,1.00925,-0.64,-0.76,-0.1,32170.0,-4060.0,-32610.0
32.7643174,35.0164518,483.06,-0.0605,-0.008,0.99025,-0.66,0.2,-0.02,32120.0,-4050.0,-32620.0
32.7643174,35.0164518,483.06,-0.0645,0.0005,0.988,0.42,1.02,0.08,32140.0,-4080.0,-32600.0
32.7643174,35.0164518,483.06,-0.0675,-0.01175,1.005,0.72,0.74,0.12,32170.0,-4060.0,-32600.0
32.7643174,35.0164518,483.06,-0.073,-0.004,1.005,-0.1,0.08,-0.04,32190.0,-4060.0,-32600.0
32.7643174,35.0164518,483.06,-0.07,0.006,0.993,-0.46,-0.46,-0.08,32200.0,-4010.0,-32620.0
32.7643174,35.0164518,483.06,-0.05175,-0.01,0.99225,-0.14,-0.78,0.0,32210.0,-3940.0,-32650.0
32.7643174,35.0164518,483.06,-0.04425,-0.02075,0.998,0.08,-0.72,-0.12,32140.0,-4000.0,-32630.0
32.7643174,35.0164518,483.06,-0.05275,0.00125,0.9965,0.1,0.0,-0.02,32160.0,-4040.0,-32610.0
32.7643174,35.0164518,483.06,-0.0615,0.0055,0.99525,0.14,0.8,0.12,32140.0,-4070.0,-32600.0
32.7643174,35.0164518,483.06,-0.06575,-0.01925,1.00725,-0.18,0.72,0.16,32110.0,-4050.0,-32610.0
32.7643174,35.0164518,483.06,-0.073,-0.018,0.99675,-0.38,0.28,0.02,32120.0,-4030.0,-32620.0
32.7643174,35.0164518,483.06,-0.07075,0.0115,0.9855,0.28,-0.26,-0.06,32170.0,-3960.0,-32630.0
32.7643174,35.0164518,483.06,-0.05425,0.00925,0.995,0.76,-0.72,0.0,32170.0,-3940.0,-32640.0
32.7643174,35.0164518,483.06,-0.04375,-0.01575,1.01075,-0.24,-0.92,-0.08,32150.0,-4000.0,-32620.0
32.7643174,35.0164518,483.06,-0.05175,-0.01225,0.99575,-0.92,-0.28,-0.12,32150.0,-3950.0,-32640.0
32.7643174,35.0164518,483.06,-0.0585,0.003,0.984,0.04,0.86,0.08,32150.0,-3880.0,-32680.0
32.7643174,35.0164518,483.06,-0.063,-0.00425,0.99525,0.9,1.04,0.14,32160.0,-3900.0,-32660.0
32.7643174,35.0164518,483.06,-0.07275,-0.005,1.00875,0.34,0.44,0.08,32200.0,-3970.0,-32620.0
32.7643174,35.0164518,483.06,-0.07625,0.00675,0.998,-0.54,-0.14,-0.04,32170.0,-3970.0,-32620.0
32.7643174,35.0164518,483.06,-0.05925,0.0,0.98675,-0.42,-0.72,-0.04,32160.0,-4000.0,-32610.0
32.7643174,35.0164518,483.06,-0.04575,-0.019,0.998,0.02,-0.78,-0.08,32140.0,-4010.0,-32610.0
32.7643174,35.0164518,483.06,-0.048,-0.005,0.99575,0.26,-0.4,-0.06,32140.0,-4010.0,-32600.0
32.7643174,35.0164518,483.06,-0.05725,0.0125,0.994,0.28,0.56,0.06,32180.0,-3960.0,-32620.0
32.7643174,35.0164518,483.06,-0.062,-0.0075,1.00625,-0.14,0.96,0.14,32180.0,-3980.0,-32620.0
32.7643174,35.0164518,483.06,-0.06875,-0.02225,0.9995,-0.44,0.58,0.06,32170.0,-3940.0,-32630.0
32.7643174,35.0164518,483.06,-0.07475,0.002,0.9905,-0.06,0.02,0.04,32110.0,-3930.0,-32650.0
32.7643174,35.0164518,483.06,-0.062,0.015,0.988,0.8,-0.54,-0.02,32120.0,-3980.0,-32630.0
32.7643174,35.0164518,483.06,-0.04725,-0.00725,1.00875,0.22,-0.9,-0.1,32150.0,-4000.0,-32610.0
32.7643174,35.0164518,483.06,-0.05075,-0.01575,1.00525,-0.84,-0.56,-0.04,32140.0,-4010.0,-32600.0
32.7643174,35.0164518,483.06,-0.05825,-0.00025,0.987,-0.56,0.48,-0.04,32160.0,-4000.0,-32610.0
32.7643174,35.0164518,483.06,-0.0605,-0.0005,0.9905,0.66,0.96,0.1,32160.0,-3970.0,-32630.0
32.7643174,35.0164518,483.06,-0.0675,-0.01025,1.011,0.46,0.62,0.16,32140.0,-3930.0,-32650.0
32.7643174,35.0164518,483.06,-0.075,0.002,1.0035,-0.42,0.04,0.0,32170.0,-3940.0,-32630.0
32.7643174,35.0164518,483.06,-0.0665,0.0035,0.99,-0.6,-0.46,-0.02,32170.0,-3960.0,-32630.0
32.7643174,35.0164518,483.06,-0.0515,-0.01825,0.996,-0.14,-0.8,0.02,32150.0,-3920.0,-32650.0
32.7643174,35.0164518,483.06,-0.04975,-0.016,0.996,0.1,-0.48,-0.04,32190.0,-3860.0,-32670.0
32.7643174,35.0164518,483.06,-0.059,0.00725,0.9945,0.34,0.22,-0.04,32210.0,-3930.0,-32640.0
32.7643174,35.0164518,483.06,-0.063,-0.00225,1.00175,0.12,0.8,0.02,32170.0,-3980.0,-32630.0
32.7643174,35.0164518,483.06,-0.0675,-0.027,1.00525,-0.54,0.52,0.12,32110.0,-4000.0,-32630.0
32.7643174,35.0164518,483.06,-0.07475,-0.013,0.99275,-0.34,0.12,-0.04,32120.0,-4030.0,-32620.0
32.7643174,35.0164518,483.06,-0.06775,0.014,0.9835,0.58,-0.32,0.0,32140.0,-4040.0,-32600.0
32.7643174,35.0164518,483.06,-0.05125,0.0005,0.99875,0.66,-0.8,0.02,32130.0,-4060.0,-32600.0
32.7643174,35.0164518,483.06,-0.0495,-0.01975,1.0125,-0.58,-0.78,-0.1,32140.0,-4070.0,-32590.0
32.7643174,35.0164518,483.06,-0.06025,-0.00925,0.98825,-0.9,0.14,-0.02,32120.0,-4080.0,-32600.0
32.7643174,35.0164518,483.06,-0.0635,-0.00125,0.9845,0.36,0.94,0.06,32120.0,-4010.0,-32640.0
32.7643174,35.0164518,483.06,-0.06575,-0.01,1.00225,0.88,0.8,0.12,32180.0,-4010.0,-32630.0
32.7643174,35.0164518,483.06,-0.0715,-0.00075,1.00525,0.1,-0.02,0.08,32190.0,-4030.0,-32610.0
32.7643174,35.0164518,483.06,-0.06975,0.00725,0.995,-0.64,-0.46,-0.08,32220.0,-4170.0,-32600.0
32.7643174,35.0164518,483.06,-0.05225,-0.0115,0.99325,-0.46,-0.8,-0.02,32290.0,-4340.0,-32550.0
32.7643174,35.0164518,483.06,-0.0445,-0.022,0.995,0.06,-0.68,-0.1,32330.0,-4450.0,-32520.0
32.7643174,35.0164518,483.06,-0.0515,0.003,0.99675,0.46,-0.06,-0.02,32380.0,-4490.0,-32500.0
32.7643174,35.0164518,483.06,-0.05775,0.009,0.998,0.36,0.82,0.04,32380.0,-4500.0,-32510.0
32.7643174,35.0164518,483.06,-0.06225,-0.01825,1.01,-0.3,0.7,0.1,32350.0,-4540.0,-32500.0
32.7643174,35.0164518,483.06,-0.07,-0.0195,0.99825,-0.64,0.28,-0.02,32320.0,-4560.0,-32500.0
32.7643174,35.0164518,483.06,-0.07,0.0095,0.98625,0.34,-0.16,-0.06,32290.0,-4430.0,-32540.0
32.7643174,35.0164518,483.06,-0.05275,0.011,0.99025,0.9,-0.7,0.02,32270.0,-4170.0,-32610.0
32.7643174,35.0164518,483.06,-0.04375,-0.01075,1.01575,-0.02,-0.82,-0.08,32180.0,-4040.0,-32670.0
32.7643174,35.0164518,483.06,-0.05175,-0.011,0.996,-1.0,-0.22,-0.08,32140.0,-3950.0,-32710.0
32.7643174,35.0164518,483.06,-0.06075,0.0025,0.986,-0.28,0.92,0.06,32160.0,-3940.0,-32690.0
32.7643174,35.0164518,483.06,-0.0645,-0.00525,0.99225,0.86,1.08,0.16,32150.0,-4000.0,-32650.0
32.7643174,35.0164518,483.06,-0.071,-0.005,1.0095,0.5,0.38,0.08,32180.0,-4040.0,-32630.0
32.7643174,35.0164518,483.06,-0.07375,0.0095,0.99625,-0.42,-0.26,-0.04,32160.0,-4080.0,-32610.0
32.7643174,35.0164518,483.06,-0.05875,0.003,0.99225,-0.54,-0.74,-0.02,32120.0,-4080.0,-32610.0
32.7643174,35.0164518,483.06,-0.0465,-0.02025,0.993,-0.12,-0.74,-0.02,32140.0,-4090.0,-32600.0
32.7643174,35.0164518,483.06,-0.05075,-0.0085,0.997,0.16,-0.22,-0.08,32150.0,-4060.0,-32620.0
32.7643174,35.0164518,483.06,-0.062,0.012,0.99125,0.44,0.74,0.02,32140.0,-4030.0,-32640.0
32.7643174,35.0164518,483.06,-0.06475,-0.00425,1.00575,0.02,0.88,0.12,32120.0,-4070.0,-32620.0
32.7643174,35.0164518,483.06,-0.07025,-0.02425,1.00275,-0.56,0.34,0.06,32140.0,-4020.0,-32650.0
32.7643174,35.0164518,483.06,-0.0735,-0.002,0.9885,-0.2,-0.1,-0.04,32120.0,-4040.0,-32630.0
32.7643174,35.0164518,483.06,-0.0615,0.0145,0.987,0.8,-0.5,0.02,32120.0,-4060.0,-32620.0
32.7643174,35.0164518,483.06,-0.0465,-0.0055,1.005,0.44,-0.78,-0.1,32130.0,-4090.0,-32600.0
32.7643174,35.0164518,483.06,-0.04925,-0.01725,1.0085,-0.76,-0.46,-0.06,32110.0,-4060.0,-32620.0
32.7643174,35.0164518,483.06,-0.0615,-0.002,0.98775,-0.72,0.52,0.0,32090.0,-4010.0,-32650.0
32.7643174,35.0164518,483.06,-0.06525,-0.00275,0.9875,0.5,1.08,0.14,32100.0,-4040.0,-32640.0
32.7643174,35.0164518,483.06,-0.06875,-0.01275,1.00925,0.7,0.54,0.12,32160.0,-3990.0,-32640.0
32.7643174,35.0164518,483.06,-0.074,0.001,1.00075,-0.22,-0.16,-0.02,32150.0,-3920.0,-32680.0
32.7643174,35.0164518,483.06,-0.0665,0.0075,0.99375,-0.58,-0.66,-0.04,32110.0,-3960.0,-32670.0
32.7643174,35.0164518,483.06,-0.04875,-0.014,0.99375,-0.18,-0.76,-0.04,32130.0,-3990.0,-32640.0
32.7643174,35.0164518,483.06,-0.0455,-0.021,0.99775,0.08,-0.52,-0.02,32100.0,-4050.0,-32620.0
32.7643174,35.0164518,483.06,-0.05725,0.00375,0.995,0.3,0.26,-0.02,32160.0,-4050.0,-32610.0
32.7643174,35.0164518,483.06,-0.06475,0.00375,0.998,0.26,1.02,0.08,32130.0,-4060.0,-32620.0
32.7643174,35.0164518,483.06,-0.068,-0.02275,1.00775,-0.3,0.62,0.16,32100.0,-4080.0,-32610.0
32.7643174,35.0164518,483.06,-0.07325,-0.01675,0.99625,-0.48,0.06,-0.02,32120.0,-4050.0,-32610.0
32.7643174,35.0164518,483.06,-0.06725,0.0115,0.98475,0.38,-0.42,-0.02,32170.0,-4030.0,-32600.0
32.7643174,35.0164518,483.06,-0.05,0.0055,0.99625,0.7,-0.82,-0.04,32120.0,-3970.0,-32650.0
32.7643174,35.0164518,483.06,-0.045,-0.01825,1.01225,-0.3,-0.72,-0.08,32140.0,-3920.0,-32670.0
32.7643174,35.0164518,483.06,-0.0565,-0.0105,0.99525,-0.9,0.14,-0.04,32160.0,-3900.0,-32680.0
32.7643174,35.0164518,483.06,-0.063,0.002,0.983,-0.02,1.0,0.02,32140.0,-3850.0,-32700.0
32.7643174,35.0164518,483.06,-0.0655,-0.00825,0.9995,0.84,0.92,0.18,32180.0,-3830.0,-32700.0
32.7643174,35.0164518,483.06,-0.071,-0.00725,1.008,0.24,0.08,0.06,32170.0,-3840.0,-32710.0
32.7643174,35.0164518,483.06,-0.071,0.00875,0.995,-0.48,-0.44,-0.04,32160.0,-3840.0,-32710.0
32.7643174,35.0164518,483.06,-0.0545,-0.00225,0.99,-0.3,-0.8,-0.08,32190.0,-3820.0,-32700.0
32.7643174,35.0164518,483.06,-0.0425,-0.022,0.998,0.1,-0.68,-0.1,32220.0,-3820.0,-32700.0
32.7643174,35.0164518,483.06,-0.05025,-0.00575,0.99575,0.18,-0.12,0.02,32200.0,-3810.0,-32710.0
32.7643174,35.0164518,483.06,-0.06025,0.0115,0.994,0.26,0.76,0.04,32160.0,-3790.0,-32720.0
32.7643174,35.0164518,483.06,-0.06325,-0.01025,1.00375,-0.12,0.86,0.14,32180.0,-3790.0,-32720.0
32.7643174,35.0164518,483.06,-0.069,-0.02275,1.004,-0.52,0.3,0.02,32200.0,-3790.0,-32710.0
32.7643174,35.0164518,483.06,-0.07025,0.004,0.986,-0.02,-0.24,-0.04,32200.0,-3790.0,-32710.0
32.7643174,35.0164518,483.06,-0.057,0.0155,0.9885,0.84,-0.58,-0.02,32190.0,-3770.0,-32720.0
32.7643174,35.0164518,483.06,-0.04475,-0.009,1.00975,0.18,-0.78,0.0,32160.0,-3790.0,-32710.0
32.7643174,35.0164518,483.06,-0.051,-0.01525,1.003,-0.88,-0.24,-0.06,32140.0,-3830.0,-32710.0
32.7643174,35.0164518,483.06,-0.062,0.001,0.98475,-0.48,0.76,0.04,32190.0,-3830.0,-32690.0
32.7643174,35.0164518,483.06,-0.065,-0.00025,0.9915,0.72,1.08,0.2,32210.0,-3820.0,-32690.0
32.7643174,35.0164518,483.06,-0.07,-0.00875,1.0075,0.54,0.46,0.1,32190.0,-3810.0,-32700.0
32.7643174,35.0164518,483.06,-0.07575,0.00425,1.00275,-0.4,-0.16,-0.02,32170.0,-3790.0,-32720.0
32.7643174,35.0164518,483.06,-0.06625,0.0055,0.9905,-0.62,-0.62,0.0,32170.0,-3780.0,-32720.0
32.7643174,35.0164518,483.06,-0.05025,-0.0175,0.99625,-0.1,-0.68,-0.04,32160.0,-3820.0,-32700.0
32.7643174,35.0164518,483.06,-0.051,-0.01525,0.9975,0.14,-0.34,-0.06,32150.0,-3910.0,-32660.0
32.7643174,35.0164518,483.06,-0.0605,0.009,0.99375,0.32,0.36,0.02,32150.0,-3960.0,-32630.0
32.7643174,35.0164518,483.06,-0.06525,0.001,1.001,0.1,0.86,0.08,32090.0,-4000.0,-32630.0
32.7643174,35.0164518,483.06,-0.06875,-0.02325,1.00625,-0.42,0.48,0.1,32080.0,-3960.0,-32650.0
32.7643174,35.0164518,483.06,-0.075,-0.01025,0.99175,-0.4,-0.04,-0.02,32130.0,-3920.0,-32660.0
32.7643174,35.0164518,483.06,-0.06875,0.01275,0.98675,0.52,-0.34,0.0,32120.0,-3950.0,-32640.0
32.7643174,35.0164518,483.06,-0.053,0.0,0.999,0.56,-0.74,0.02,32140.0,-3990.0,-32620.0
32.7643174,35.0164519,483.06,-0.05,-0.01875,1.00875,-0.52,-0.68,-0.1,32120.0,-3970.0,-32640.0
32.7643174,35.0164519,483.06,-0.05875,-0.0055,0.991,-0.78,0.04,-0.08,32110.0,-3900.0,-32680.0
32.7643174,35.0164519,483.06,-0.06125,0.00225,0.9845,0.32,0.8,0.04,32120.0,-3960.0,-32650.0
32.7643174,35.0164519,483.06,-0.06225,-0.011,1.00425,0.76,0.62,0.04,32140.0,-3990.0,-32630.0
32.7643174,35.0164519,483.06,-0.0685,-0.0055,1.00625,-0.12,0.04,0.04,32160.0,-4000.0,-32620.0
32.7643174,35.0164519,483.06,-0.068,0.007,0.99175,-0.54,-0.36,-0.1,32130.0,-4020.0,-32620.0
32.7643174,35.0164519,483.06,-0.05225,-0.008,0.991,-0.16,-0.68,-0.08,32120.0,-4050.0,-32610.0
32.7643174,35.0164519,483.06,-0.04475,-0.02175,0.99775,0.06,-0.58,-0.08,32120.0,-4080.0,-32600.0
32.7643174,35.0164519,483.06,-0.05375,-0.00225,0.997,0.14,-0.04,-0.06,32150.0,-4020.0,-32620.0
32.7643174,35.0164519,483.06,-0.061,0.00675,0.99575,0.22,0.8,0.04,32160.0,-4000.0,-32630.0
32.7643174,35.0164519,483.06,-0.06225,-0.01675,1.00525,-0.16,0.66,0.1,32140.0,-3980.0,-32640.0
32.7643174,35.0164519,483.06,-0.06725,-0.02125,1.0005,-0.38,0.22,0.0,32080.0,-4000.0,-32650.0
32.7643174,35.0164519,483.06,-0.06775,0.00825,0.9865,0.26,-0.22,-0.08,32140.0,-4040.0,-32620.0
32.7643174,35.0164519,483.06,-0.05375,0.011,0.99325,0.7,-0.58,0.0,32180.0,-4070.0,-32600.0
32.7643174,35.0164519,483.06,-0.045,-0.016,1.011,-0.08,-0.64,-0.06,32150.0,-4080.0,-32600.0
32.7643174,35.0164519,483.06,-0.0545,-0.01525,0.99925,-0.8,-0.06,0.0,32150.0,-4090.0,-32600.0
32.7643174,35.0164519,483.06,-0.06475,0.00475,0.98275,-0.06,0.86,-0.02,32150.0,-4060.0,-32620.0
32.7643174,35.0164519,483.06,-0.06625,-0.00075,0.99425,0.84,0.98,0.2,32120.0,-4020.0,-32640.0
32.7643174,35.0164519,483.06,-0.07075,-0.0085,1.011,0.38,0.16,0.04,32150.0,-4030.0,-32630.0
32.7643174,35.0164519,483.06,-0.0745,0.00525,0.99825,-0.62,-0.3,-0.06,32150.0,-4030.0,-32630.0
32.7643174,35.0164518,483.06,-0.06175,0.003,0.98825,-0.42,-0.7,-0.04,32150.0,-4000.0,-32640.0
32.7643174,35.0164518,483.06,-0.047,-0.018,0.9975,0.12,-0.62,-0.1,32190.0,-3940.0,-32670.0
32.7643174,35.0164518,483.06,-0.0505,-0.0095,0.99775,0.24,-0.3,-0.06,32190.0,-4000.0,-32640.0
32.7643174,35.0164518,483.06,-0.06125,0.01325,0.995,0.18,0.56,0.0,32150.0,-4060.0,-32620.0
32.7643174,35.0164518,483.06,-0.0645,-0.003,1.00175,-0.02,0.78,0.06,32140.0,-4080.0,-32610.0
32.7643174,35.0164518,483.06,-0.06825,-0.025,1.00525,-0.54,0.32,0.08,32170.0,-4100.0,-32590.0
32.7643174,35.0164518,483.06,-0.07375,-0.00425,0.991,-0.16,-0.14,0.0,32160.0,-4090.0,-32600.0
32.7643174,35.0164518,483.06,-0.064,0.016,0.98675,0.7,-0.48,-0.02,32120.0,-4130.0,-32590.0
32.7643174,35.0164518,483.06,-0.04825,-0.00475,1.00575,0.42,-0.68,-0.06,32130.0,-4120.0,-32590.0
32.7643174,35.0164518,483.06,-0.04925,-0.01925,1.007,-0.78,-0.54,-0.04,32120.0,-4120.0,-32600.0
32.7643174,35.0164518,483.06,-0.05925,-0.00275,0.9875,-0.7,0.36,0.02,32110.0,-4070.0,-32620.0
32.7643174,35.0164518,483.06,-0.0615,0.0005,0.988,0.6,0.9,0.14,32120.0,-4070.0,-32630.0
32.7643174,35.0164518,483.06,-0.06475,-0.011,1.00675,0.66,0.6,0.14,32120.0,-4110.0,-32600.0
32.7643174,35.0164518,483.06,-0.0715,-0.00125,1.0045,-0.26,0.0,0.02,32090.0,-4070.0,-32630.0
32.7643174,35.0164518,483.06,-0.06775,0.00575,0.98925,-0.58,-0.4,-0.04,32110.0,-4090.0,-32610.0
32.7643174,35.0164518,483.06,-0.05125,-0.0135,0.9915,-0.2,-0.68,-0.02,32160.0,-4090.0,-32600.0
32.7643174,35.0164518,483.06,-0.04825,-0.01875,0.99725,0.18,-0.54,-0.06,32170.0,-4030.0,-32620.0
32.7643174,35.0164518,483.06,-0.05725,0.0055,0.995,0.26,0.12,-0.02,32180.0,-3980.0,-32650.0
32.7643174,35.0164518,483.06,-0.06275,0.00375,0.99875,0.16,0.72,0.1,32140.0,-4040.0,-32630.0
32.7643174,35.0164518,483.06,-0.06425,-0.02275,1.00625,-0.4,0.56,0.1,32110.0,-4080.0,-32620.0
32.7643174,35.0164518,483.06,-0.0705,-0.01575,0.9955,-0.38,0.1,-0.02,32170.0,-4110.0,-32620.0
32.7643174,35.0164518,483.07,-0.06675,0.013,0.986,0.56,-0.26,-0.02,32270.0,-4200.0,-32610.0
32.7643174,35.0164518,483.07,-0.0505,0.0055,0.9965,0.72,-0.74,-0.06,32250.0,-4280.0,-32620.0
32.7643174,35.0164518,483.07,-0.04675,-0.0175,1.01225,-0.44,-0.7,-0.06,32260.0,-4370.0,-32600.0
32.7643174,35.0164518,483.07,-0.057,-0.01025,0.99375,-0.94,0.02,-0.04,32330.0,-4450.0,-32550.0
32.7643174,35.0164518,483.07,-0.0635,0.001,0.98325,0.14,0.92,0.1,32350.0,-4480.0,-32530.0
32.7643174,35.0164518,483.07,-0.06525,-0.00875,0.9995,0.82,0.84,0.14,32380.0,-4520.0,-32510.0
32.7643174,35.0164518,483.07,-0.071,-0.0055,1.0085,0.18,0.14,0.04,32340.0,-4520.0,-32510.0
32.7643174,35.0164518,483.07,-0.07025,0.008,0.9945,-0.58,-0.36,-0.06,32280.0,-4300.0,-32550.0
32.7643174,35.0164518,483.07,-0.0525,-0.0045,0.991,-0.36,-0.78,0.04,32260.0,-4210.0,-32550.0
32.7643174,35.0164518,483.07,-0.0435,-0.022,0.9975,-0.02,-0.68,-0.08,32250.0,-4100.0,-32590.0
32.7643174,35.0164518,483.07,-0.0515,-0.00325,0.9965,0.2,0.0,-0.02,32210.0,-4020.0,-32620.0
32.7643174,35.0164518,483.07,-0.06225,0.009,0.99425,0.32,0.78,0.04,32200.0,-4020.0,-32610.0
32.7643174,35.0164518,483.07,-0.06575,-0.01375,1.00525,-0.1,0.86,0.2,32190.0,-4030.0,-32600.0
32.7643174,35.0164518,483.07,-0.073,-0.02225,1.00125,-0.46,0.24,0.04,32190.0,-4030.0,-32600.0
32.7643174,35.0164518,483.07,-0.0735,0.00525,0.98575,0.08,-0.22,-0.04,32210.0,-4030.0,-32600.0
32.7643174,35.0164518,483.07,-0.05675,0.0115,0.991,0.72,-0.74,0.02,32200.0,-3970.0,-32620.0
32.7643174,35.0164518,483.07,-0.04475,-0.01325,1.0105,0.12,-0.84,-0.06,32180.0,-3960.0,-32630.0
32.7643174,35.0164518,483.07,-0.05275,-0.014,1.00075,-0.88,-0.32,-0.12,32150.0,-3930.0,-32650.0
32.7643174,35.0164518,483.07,-0.0625,0.0035,0.98375,-0.26,0.64,0.0,32170.0,-3940.0,-32640.0
32.7643174,35.0164518,483.06,-0.0645,-0.004,0.9955,0.74,1.04,0.14,32190.0,-3920.0,-32650.0
32.7643174,35.0164518,483.06,-0.07075,-0.00925,1.0065,0.42,0.44,0.1,32190.0,-3840.0,-32680.0
32.7643174,35.0164518,483.06,-0.07625,0.0065,1.00275,-0.38,-0.1,-0.02,32170.0,-3890.0,-32660.0
32.7643174,35.0164518,483.06,-0.06425,0.0045,0.98725,-0.5,-0.68,0.0,32170.0,-3960.0,-32630.0
32.7643174,35.0164518,483.06,-0.0495,-0.01875,0.99975,-0.16,-0.8,-0.06,32140.0,-3980.0,-32620.0
32.7643174,35.0164518,483.06,-0.051,-0.01075,0.995,0.1,-0.46,-0.04,32170.0,-4010.0,-32610.0
32.7643174,35.0164518,483.06,-0.05875,0.01075,0.99375,0.38,0.48,-0.02,32150.0,-4000.0,-32610.0
32.7643174,35.0164518,483.06,-0.0625,-0.0035,1.00475,0.06,0.84,0.1,32110.0,-4020.0,-32620.0
32.7643174,35.0164518,483.06,-0.068,-0.023,1.003,-0.48,0.5,0.06,32110.0,-3990.0,-32620.0
32.7643174,35.0164518,483.06,-0.07425,-0.00575,0.99325,-0.22,0.0,0.02,32130.0,-3980.0,-32630.0
32.7643174,35.0164518,483.06,-0.0645,0.014,0.9855,0.6,-0.44,-0.02,32120.0,-3930.0,-32650.0
32.7643174,35.0164518,483.06,-0.048,-0.00475,1.0045,0.42,-0.84,-0.08,32140.0,-3910.0,-32660.0
32.7643174,35.0164518,483.06,-0.0495,-0.01675,1.00725,-0.66,-0.62,-0.04,32140.0,-3980.0,-32640.0
32.7643174,35.0164518,483.06,-0.0585,-0.002,0.98875,-0.7,0.34,-0.08,32120.0,-3970.0,-32640.0
32.7643174,35.0164518,483.06,-0.061,-0.00025,0.989,0.4,0.9,0.04,32150.0,-3990.0,-32620.0
32.7643174,35.0164518,483.06,-0.06475,-0.01225,1.0055,0.58,0.62,0.12,32150.0,-4000.0,-32620.0
32.7643174,35.0164518,483.06,-0.07125,-0.0005,1.00425,-0.16,-0.08,0.06,32130.0,-3960.0,-32640.0
32.7643174,35.0164518,483.06,-0.066,0.0075,0.99025,-0.48,-0.42,0.0,32180.0,-3920.0,-32650.0
32.7643174,35.0164518,483.06,-0.04925,-0.013,0.99425,-0.12,-0.82,-0.06,32220.0,-3920.0,-32640.0
32.7643174,35.0164518,483.06,-0.04625,-0.02075,0.998,0.0,-0.6,-0.1,32180.0,-3950.0,-32640.0
32.7643174,35.0164518,483.06,-0.0555,0.003,0.9925,0.24,0.18,0.02,32120.0,-3900.0,-32680.0
32.7643174,35.0164518,483.06,-0.06175,0.00375,0.99775,0.2,0.86,0.04,32130.0,-3870.0,-32700.0
32.7643174,35.0164518,483.06,-0.0655,-0.0215,1.00525,-0.24,0.72,0.12,32150.0,-3920.0,-32670.0
32.7643174,35.0164518,483.06,-0.0725,-0.01475,0.99725,-0.5,0.14,-0.02,32140.0,-3990.0,-32640.0
32.7643174,35.0164518,483.06,-0.06825,0.012,0.9845,0.44,-0.32,-0.02,32150.0,-3990.0,-32630.0
32.7643174,35.0164518,483.06,-0.05075,0.00325,0.996,0.58,-0.78,-0.04,32140.0,-4040.0,-32620.0
32.7643174,35.0164518,483.06,-0.046,-0.01775,1.0115,-0.26,-0.74,-0.12,32120.0,-4000.0,-32640.0
32.7643174,35.0164518,483.06,-0.056,-0.0075,0.9925,-0.72,0.02,-0.02,32170.0,-4010.0,-32630.0
32.7643174,35.0164518,483.06,-0.06275,0.00425,0.9855,0.16,0.96,0.06,32190.0,-4020.0,-32620.0
32.7643174,35.0164518,483.06,-0.06625,-0.0075,1.0005,0.74,0.9,0.14,32140.0,-4030.0,-32630.0
32.7643174,35.0164518,483.06,-0.07325,-0.00575,1.00775,0.06,0.2,0.04,32150.0,-4010.0,-32640.0
32.7643174,35.0164518,483.06,-0.073,0.00825,0.9945,-0.52,-0.3,-0.04,32160.0,-3940.0,-32670.0
32.7643174,35.0164518,483.06,-0.05575,-0.003,0.992,-0.26,-0.86,-0.06,32150.0,-4000.0,-32640.0
32.7643174,35.0164518,483.06,-0.04525,-0.01925,0.9985,-0.04,-0.82,-0.1,32170.0,-4060.0,-32620.0
32.7643174,35.0164518,483.06,-0.05075,-0.0025,0.998,0.14,-0.16,-0.02,32150.0,-4070.0,-32610.0
32.7643174,35.0164518,483.06,-0.05875,0.0095,0.99475,0.28,0.72,0.02,32110.0,-4080.0,-32620.0
32.7643174,35.0164518,483.06,-0.06275,-0.013,1.00675,-0.08,0.84,0.14,32060.0,-4060.0,-32640.0
32.7643174,35.0164518,483.06,-0.07075,-0.0215,1.001,-0.52,0.32,0.04,32110.0,-4010.0,-32650.0
32.7643174,35.0164518,483.06,-0.07325,0.00575,0.988,0.1,-0.08,-0.08,32100.0,-3970.0,-32670.0
32.7643174,35.0164518,483.06,-0.05775,0.0105,0.98875,0.68,-0.66,0.02,32080.0,-4020.0,-32660.0
32.7643174,35.0164519,483.07,-0.04525,-0.01225,1.01,0.08,-0.88,-0.02,32130.0,-4010.0,-32650.0
32.7643174,35.0164519,483.07,-0.05125,-0.014,0.99875,-0.8,-0.32,-0.12,32160.0,-3960.0,-32680.0
32.7643174,35.0164519,483.07,-0.0595,0.00175,0.9865,-0.28,0.66,0.06,32190.0,-4010.0,-32640.0
32.7643174,35.0164519,483.07,-0.062,-0.00425,0.9925,0.68,1.02,0.14,32180.0,-4070.0,-32610.0
32.7643174,35.0164519,483.07,-0.06775,-0.01025,1.009,0.38,0.48,0.06,32170.0,-4090.0,-32600.0
32.7643174,35.0164519,483.07,-0.0725,0.00475,0.99725,-0.46,-0.14,-0.02,32180.0,-4100.0,-32590.0
32.7643174,35.0164519,483.07,-0.0615,0.00375,0.98925,-0.44,-0.62,-0.04,32180.0,-4110.0,-32580.0
32.7643174,35.0164519,483.07,-0.048,-0.0185,0.995,-0.02,-0.82,-0.02,32160.0,-4120.0,-32580.0
32.7643174,35.0164519,483.07,-0.05,-0.01125,0.99675,0.06,-0.38,-0.04,32130.0,-4090.0,-32600.0
32.7643174,35.0164519,483.07,-0.05925,0.009,0.994,0.22,0.42,0.02,32170.0,-4090.0,-32600.0
32.7643174,35.0164519,483.07,-0.06325,-0.00475,1.0015,0.12,0.94,0.14,32150.0,-4040.0,-32630.0
32.7643174,35.0164519,483.07,-0.06875,-0.0235,1.0065,-0.44,0.54,0.1,32140.0,-4070.0,-32620.0
32.7643174,35.0164519,483.07,-0.0745,-0.003,0.9915,-0.18,-0.04,-0.02,32160.0,-4080.0,-32600.0
32.7643174,35.0164519,483.07,-0.06425,0.0155,0.98825,0.62,-0.48,0.0,32160.0,-4100.0,-32590.0
32.7643174,35.0164519,483.07,-0.046,-0.005,1.00275,0.44,-0.84,-0.08,32120.0,-4100.0,-32600.0
32.7643174,35.0164519,483.07,-0.04775,-0.018,1.0105,-0.66,-0.62,-0.1,32110.0,-4130.0,-32600.0
32.7643174,35.0164519,483.07,-0.05825,-0.004,0.987,-0.68,0.38,-0.08,32170.0,-4100.0,-32600.0
32.7643174,35.0164519,483.07,-0.064,0.0015,0.99,0.56,1.16,0.14,32130.0,-4070.0,-32610.0
32.7643174,35.0164519,483.07,-0.0675,-0.0105,1.00425,0.64,0.68,0.08,32110.0,-4080.0,-32620.0
32.7643174,35.0164519,483.07,-0.07425,-0.0005,1.008,-0.16,-0.04,0.0,32120.0,-4040.0,-32620.0
32.7643174,35.0164518,483.06,-0.06675,0.007,0.98725,-0.54,-0.56,-0.1,32120.0,-3980.0,-32650.0
32.7643174,35.0164518,483.06,-0.0475,-0.01175,0.99725,-0.18,-0.86,0.0,32180.0,-3910.0,-32670.0
32.7643174,35.0164518,483.06,-0.0435,-0.0195,0.99575,0.12,-0.64,-0.06,32150.0,-3900.0,-32680.0
32.7643174,35.0164518,483.06,-0.05225,0.004,0.99725,0.2,0.12,-0.02,32100.0,-3970.0,-32660.0
32.7643174,35.0164518,483.06,-0.06125,0.00425,0.99575,0.2,0.96,0.1,32090.0,-4050.0,-32620.0
32.7643174,35.0164518,483.06,-0.06525,-0.02125,1.00775,-0.28,0.78,0.12,32130.0,-4070.0,-32600.0
32.7643174,35.0164518,483.06,-0.074,-0.01725,0.996,-0.34,0.22,-0.02,32120.0,-4090.0,-32590.0
32.7643174,35.0164518,483.06,-0.0705,0.012,0.9845,0.4,-0.28,0.0,32120.0,-4100.0,-32580.0
32.7643174,35.0164518,483.06,-0.05325,0.00575,0.996,0.64,-0.8,0.0,32130.0,-4100.0,-32580.0
32.7643174,35.0164518,483.06,-0.04575,-0.0175,1.01075,-0.34,-0.84,-0.06,32110.0,-4070.0,-32600.0
32.7643174,35.0164518,483.06,-0.0555,-0.0105,0.995,-0.88,-0.06,-0.04,32140.0,-4010.0,-32620.0
32.7643174,35.0164518,483.06,-0.06225,0.0025,0.98275,0.1,0.96,0.1,32160.0,-4000.0,-32620.0
32.7643174,35.0164518,483.06,-0.0655,-0.0075,0.99975,0.76,1.02,0.16,32130.0,-4030.0,-32610.0
32.7643174,35.0164518,483.06,-0.07325,-0.0065,1.00825,0.22,0.3,0.14,32150.0,-4050.0,-32590.0
32.7643174,35.0164518,483.06,-0.07425,0.008,0.9935,-0.58,-0.32,-0.02,32190.0,-4050.0,-32580.0
32.7643174,35.0164518,483.06,-0.05875,-0.001,0.99175,-0.3,-0.84,-0.02,32210.0,-4060.0,-32570.0
32.7643174,35.0164518,483.06,-0.048,-0.0195,0.9965,0.08,-0.68,-0.08,32170.0,-4010.0,-32590.0
32.7643174,35.0164518,483.06,-0.05425,-0.0055,0.996,0.2,-0.16,0.02,32160.0,-3960.0,-32630.0
32.7643174,35.0164518,483.06,-0.06475,0.01025,0.99625,0.22,0.74,0.06,32200.0,-3980.0,-32610.0
32.7643174,35.0164518,483.06,-0.067,-0.01025,1.00425,-0.06,0.82,0.1,32190.0,-4020.0,-32590.0
32.7643174,35.0164518,483.06,-0.07175,-0.02325,1.00175,-0.48,0.28,0.04,32190.0,-3940.0,-32620.0
32.7643174,35.0164519,483.07,-0.07275,0.00375,0.98975,0.02,-0.28,-0.08,32190.0,-3830.0,-32680.0
32.7643174,35.0164519,483.07,-0.0585,0.0155,0.99,0.74,-0.74,-0.04,32160.0,-3790.0,-32710.0
32.7643174,35.0164519,483.07,-0.0445,-0.01025,1.009,0.18,-0.94,-0.06,32180.0,-3840.0,-32680.0
32.7643174,35.0164519,483.07,-0.049,-0.01875,1.0045,-0.88,-0.4,-0.16,32230.0,-3910.0,-32640.0
32.7643174,35.0164519,483.07,-0.0595,0.00075,0.985,-0.4,0.66,-0.02,32160.0,-3950.0,-32650.0
32.7643174,35.0164519,483.07,-0.063,0.00025,0.99075,0.8,0.98,0.14,32110.0,-3980.0,-32640.0
32.7643174,35.0164519,483.07,-0.0675,-0.00975,1.01025,0.56,0.46,0.06,32140.0,-4060.0,-32610.0
32.7643174,35.0164519,483.07,-0.073,0.002,1.00225,-0.46,-0.26,-0.06,32200.0,-4270.0,-32560.0
32.7643174,35.0164519,483.07,-0.06375,0.00525,0.98975,-0.6,-0.62,-0.04,32290.0,-4410.0,-32520.0
32.7643174,35.0164519,483.07,-0.04525,-0.017,0.99375,-0.06,-0.74,-0.08,32330.0,-4400.0,-32530.0
32.7643174,35.0164519,483.07,-0.0435,-0.01675,0.998,0.24,-0.42,-0.08,32290.0,-4440.0,-32550.0
32.7643174,35.0164519,483.07,-0.05475,0.009,0.99325,0.18,0.36,-0.06,32300.0,-4490.0,-32540.0
32.7643174,35.0164519,483.07,-0.06075,0.003,0.9985,0.06,0.86,0.12,32320.0,-4530.0,-32510.0
32.7643174,35.0164519,483.07,-0.066,-0.02525,1.00625,-0.48,0.64,0.16,32330.0,-4540.0,-32500.0
32.7643174,35.0164519,483.07,-0.0735,-0.01425,0.99175,-0.42,0.14,0.0,32240.0,-4390.0,-32540.0
32.7643174,35.0164519,483.07,-0.068,0.01475,0.983,0.54,-0.32,-0.02,32170.0,-4230.0,-32580.0
32.7643174,35.0164519,483.07,-0.05075,0.0045,0.99975,0.6,-0.78,-0.02,32180.0,-4100.0,-32610.0
32.7643174,35.0164519,483.07,-0.04675,-0.01825,1.00975,-0.5,-0.78,-0.02,32200.0,-4010.0,-32630.0
32.7643174,35.0164519,483.07,-0.05725,-0.00975,0.99175,-0.94,0.02,-0.1,32190.0,-4000.0,-32630.0
32.7643174,35.0164519,483.07,-0.06325,0.00375,0.98475,0.24,0.96,0.1,32160.0,-3980.0,-32650.0
32.7643174,35.0164519,483.07,-0.06475,-0.00675,1.002,0.88,0.92,0.16,32130.0,-3920.0,-32690.0
32.7643174,35.0164519,483.07,-0.0705,-0.00675,1.009,0.04,0.1,0.1,32140.0,-3960.0,-32660.0
32.7643174,35.0164519,483.07,-0.071,0.00775,0.9955,-0.62,-0.44,-0.1,32160.0,-4030.0,-32620.0
32.7643174,35.0164519,483.07,-0.056,-0.0035,0.98875,-0.38,-0.78,0.0,32130.0,-4070.0,-32610.0
32.7643174,35.0164519,483.07,-0.04775,-0.022,0.99975,0.1,-0.64,-0.1,32140.0,-4080.0,-32600.0
32.7643174,35.0164519,483.07,-0.0535,-0.005,0.99675,0.24,-0.06,0.0,32160.0,-4090.0,-32600.0
32.7643174,35.0164519,483.07,-0.0635,0.011,0.9975,0.24,0.8,0.14,32140.0,-4110.0,-32590.0
32.7643174,35.0164519,483.07,-0.065,-0.01425,1.00625,-0.14,0.76,0.08,32130.0,-4100.0,-32600.0
32.7643174,35.0164519,483.07,-0.069,-0.0255,1.0045,-0.5,0.22,0.04,32130.0,-4110.0,-32600.0
32.7643174,35.0164519,483.07,-0.06975,0.00375,0.9845,-0.02,-0.34,-0.02,32110.0,-4060.0,-32630.0
32.7643174,35.0164519,483.07,-0.05575,0.01475,0.99525,0.84,-0.6,-0.1,32150.0,-4000.0,-32650.0
32.7643174,35.0164519,483.07,-0.0445,-0.01075,1.00625,0.18,-0.74,0.02,32140.0,-4030.0,-32630.0
32.7643174,35.0164519,483.07,-0.05,-0.01825,1.005,-0.96,-0.26,-0.08,32100.0,-4050.0,-32640.0
32.7643174,35.0164519,483.07,-0.06325,0.0,0.98325,-0.44,0.68,0.04,32090.0,-4100.0,-32630.0
32.7643174,35.0164519,483.07,-0.06625,-0.001,0.989,0.82,1.02,0.14,32120.0,-4120.0,-32610.0
32.7643174,35.0164519,483.07,-0.07,-0.01025,1.0105,0.6,0.38,0.1,32130.0,-4100.0,-32610.0
32.7643174,35.0164519,483.07,-0.07275,0.0045,0.998,-0.42,-0.3,-0.02,32150.0,-4040.0,-32630.0
32.7643174,35.0164519,483.07,-0.06325,0.00625,0.98925,-0.62,-0.68,-0.02,32140.0,-4070.0,-32620.0
32.7643174,35.0164519,483.07,-0.0465,-0.0165,0.995,-0.02,-0.72,-0.08,32130.0,-4070.0,-32630.0
32.7643174,35.0164519,483.06,-0.04525,-0.01675,0.99675,0.24,-0.38,-0.02,32150.0,-4020.0,-32640.0
32.7643174,35.0164519,483.06,-0.057,0.00925,0.9935,0.26,0.44,-0.02,32160.0,-3970.0,-32670.0
32.7643174,35.0164519,483.06,-0.0635,0.00475,0.99875,0.14,0.88,0.06,32130.0,-4040.0,-32640.0
32.7643174,35.0164519,483.06,-0.06725,-0.0225,1.00525,-0.38,0.48,0.04,32120.0,-4080.0,-32630.0
32.7643174,35.0164519,483.06,-0.0735,-0.014,0.994,-0.38,-0.04,-0.04,32110.0,-4090.0,-32620.0
32.7643174,35.0164519,483.06,-0.069,0.014,0.985,0.58,-0.34,-0.02,32090.0,-4120.0,-32610.0
32.7643174,35.0164519,483.06,-0.0515,0.0045,0.99875,0.74,-0.72,-0.02,32080.0,-4130.0,-32600.0
32.7643174,35.0164519,483.06,-0.0455,-0.0195,1.01175,-0.48,-0.68,-0.06,32100.0,-4110.0,-32610.0
32.7643174,35.0164519,483.06,-0.0545,-0.00875,0.9925,-0.94,0.02,-0.06,32110.0,-4100.0,-32610.0
32.7643174,35.0164519,483.06,-0.06075,0.00575,0.98425,0.28,0.82,0.08,32110.0,-4120.0,-32600.0
32.7643174,35.0164519,483.06,-0.063,-0.00675,1.00225,0.88,0.82,0.14,32130.0,-4050.0,-32620.0
32.7643174,35.0164519,483.06,-0.07,-0.008,1.01025,0.12,0.16,0.02,32130.0,-4020.0,-32650.0
32.7643174,35.0164519,483.06,-0.07325,0.00575,0.99375,-0.76,-0.26,-0.12,32110.0,-4030.0,-32640.0
32.7643174,35.0164519,483.06,-0.0595,-0.004,0.99,-0.3,-0.66,-0.02,32100.0,-4080.0,-32620.0
32.7643174,35.0164519,483.06,-0.0475,-0.02375,0.999,0.14,-0.52,0.0,32110.0,-4090.0,-32610.0
32.7643174,35.0164519,483.06,-0.0515,-0.0055,0.996,0.2,-0.28,0.0,32080.0,-4070.0,-32610.0
32.7643174,35.0164519,483.06,-0.06025,0.01225,0.99575,0.16,0.58,0.06,32120.0,-4040.0,-32620.0
32.7643174,35.0164519,483.06,-0.06125,-0.01125,1.00375,-0.1,0.68,0.14,32130.0,-3990.0,-32650.0
32.7643174,35.0164519,483.06,-0.0665,-0.0265,1.00175,-0.48,0.3,0.02,32100.0,-4030.0,-32640.0
32.7643174,35.0164519,483.06,-0.07325,0.0005,0.98975,0.0,-0.12,-0.02,32110.0,-4080.0,-32610.0
32.7643174,35.0164519,483.06,-0.063,0.01525,0.98675,0.76,-0.34,0.0,32170.0,-4030.0,-32610.0
32.7643174,35.0164519,483.06,-0.0495,-0.0105,1.01075,0.2,-0.7,-0.04,32140.0,-3950.0,-32650.0
32.7643174,35.0164519,483.06,-0.05225,-0.01825,1.0015,-0.92,-0.4,-0.06,32110.0,-4000.0,-32630.0
32.7643174,35.0164519,483.06,-0.0615,0.00275,0.98325,-0.38,0.4,0.0,32100.0,-4040.0,-32620.0
32.7643174,35.0164519,483.06,-0.0625,0.00425,0.9905,0.78,0.84,0.08,32120.0,-4040.0,-32610.0
32.7643174,35.0164519,483.06,-0.06575,-0.01,1.01125,0.62,0.44,0.08,32140.0,-4060.0,-32590.0
32.7643174,35.0164519,483.06,-0.0725,-0.00125,1.002,-0.54,-0.1,-0.04,32150.0,-4060.0,-32590.0
32.7643174,35.0164519,483.06,-0.0695,0.007,0.988,-0.58,-0.38,-0.06,32150.0,-4060.0,-32590.0
32.7643174,35.0164519,483.06,-0.05375,-0.01175,0.99225,0.2,-0.46,-0.02,32170.0,-4020.0,-32600.0
32.7643174,35.0164519,483.06,-0.05,-0.01475,0.99975,0.32,-0.5,-0.06,32180.0,-4010.0,-32610.0
32.7643174,35.0164519,483.06,-0.05925,0.008,0.99775,0.12,0.1,-0.1,32190.0,-3960.0,-32620.0
32.7643174,35.0164519,483.06,-0.064,0.00325,0.99925,-0.12,0.62,0.08,32110.0,-3970.0,-32640.0
32.7643174,35.0164519,483.06,-0.064,-0.02375,1.005,-0.38,0.44,0.04,32110.0,-4010.0,-32610.0
32.7643174,35.0164519,483.06,-0.069,-0.0165,0.998,-0.32,0.08,0.04,32170.0,-3990.0,-32600.0
32.7643174,35.0164519,483.06,-0.068,0.01475,0.98275,0.48,-0.32,-0.08,32170.0,-4030.0,-32590.0
32.7643174,35.0164519,483.06,-0.05425,0.00675,0.9995,0.72,-0.6,0.0,32180.0,-4020.0,-32590.0
32.7643174,35.0164519,483.06,-0.05375,-0.02075,1.011,-0.42,-0.68,-0.02,32180.0,-3980.0,-32600.0
32.7643174,35.0164519,483.06,-0.05925,-0.01125,0.9935,-1.02,-0.02,-0.04,32150.0,-3930.0,-32640.0
32.7643174,35.0164519,483.06,-0.06275,0.004,0.98075,0.08,0.8,0.12,32160.0,-3970.0,-32620.0
32.7643174,35.0164519,483.06,-0.0635,-0.00475,1.002,1.04,0.86,0.14,32200.0,-3960.0,-32620.0
32.7643174,35.0164519,483.07,-0.0675,-0.0095,1.0095,0.14,0.0,0.14,32190.0,-3910.0,-32640.0
32.7643174,35.0164519,483.07,-0.07075,0.00575,0.9975,-0.78,-0.46,-0.16,32200.0,-3860.0,-32670.0
32.7643174,35.0164519,483.07,-0.0585,-0.00275,0.9865,-0.44,-0.64,-0.06,32180.0,-3920.0,-32640.0
32.7643174,35.0164519,483.07,-0.05175,-0.02175,0.999,0.16,-0.58,0.0,32170.0,-3990.0,-32610.0
32.7643174,35.0164519,483.07,-0.05225,-0.00675,0.9955,0.32,-0.14,0.02,32180.0,-3990.0,-32600.0
32.7643174,35.0164519,483.07,-0.06075,0.0125,0.9965,0.32,0.56,0.0,32210.0,-4020.0,-32590.0
32.7643174,35.0164519,483.07,-0.0625,-0.008,1.00175,-0.2,0.8,0.14,32200.0,-4030.0,-32590.0
32.7643174,35.0164519,483.07,-0.0665,-0.026,1.001,-0.66,0.32,0.02,32220.0,-4050.0,-32570.0
32.7643174,35.0164519,483.07,-0.0715,-0.00225,0.98275,0.0,-0.16,-0.02,32210.0,-4070.0,-32570.0
32.7643174,35.0164519,483.07,-0.062,0.01725,0.99025,0.86,-0.46,-0.06,32200.0,-4070.0,-32570.0
32.7643174,35.0164519,483.07,-0.0535,-0.006,1.00525,0.38,-0.78,0.0,32190.0,-4000.0,-32600.0
32.7643174,35.0164519,483.07,-0.04875,-0.02025,1.008,-0.94,-0.46,-0.08,32190.0,-4020.0,-32600.0
32.7643174,35.0164519,483.07,-0.059,-0.00225,0.987,-0.74,0.52,-0.02,32190.0,-4060.0,-32590.0
32.7643174,35.0164519,483.07,-0.06225,0.00375,0.98275,0.74,1.1,0.04,32200.0,-4060.0,-32590.0
32.7643174,35.0164519,483.07,-0.0655,-0.01075,1.013,0.9,0.62,0.14,32190.0,-4070.0,-32580.0
32.7643174,35.0164519,483.07,-0.0715,-0.001,1.00475,-0.32,-0.14,-0.04,32170.0,-4070.0,-32590.0
32.7643174,35.0164519,483.07,-0.0685,0.007,0.9885,-0.78,-0.48,-0.06,32160.0,-4040.0,-32610.0
32.7643174,35.0164519,483.07,-0.05325,-0.0115,0.9955,-0.14,-0.64,0.0,32170.0,-4040.0,-32610.0
32.7643174,35.0164519,483.07,-0.04775,-0.01825,0.99525,0.42,-0.34,0.0,32150.0,-4040.0,-32620.0
32.7643174,35.0164519,483.07,-0.05825,0.0065,0.99725,0.34,0.18,0.0,32130.0,-4040.0,-32620.0
32.7643174,35.0164519,483.07,-0.0645,0.00775,1.0,0.06,0.82,0.12,32150.0,-4020.0,-32630.0
32.7643174,35.0164519,483.06,-0.065,-0.02175,1.0045,-0.46,0.48,0.0,32160.0,-3930.0,-32680.0
32.7643174,35.0164519,483.06,-0.07,-0.01925,0.9965,-0.42,-0.04,-0.06,32130.0,-3890.0,-32700.0
32.7643174,35.0164519,483.06,-0.0685,0.0135,0.98475,0.56,-0.24,0.02,32080.0,-3930.0,-32690.0
32.7643174,35.0164519,483.06,-0.054,0.01,0.99725,0.78,-0.56,0.02,32100.0,-4000.0,-32660.0
32.7643174,35.0164519,483.06,-0.04775,-0.01825,1.014,-0.38,-0.54,-0.1,32090.0,-4030.0,-32650.0
32.7643174,35.0164519,483.06,-0.0565,-0.013,0.993,-1.12,-0.06,-0.04,32150.0,-4030.0,-32630.0
32.7643174,35.0164519,483.06,-0.064,0.00475,0.98075,0.06,0.76,0.04,32180.0,-4060.0,-32610.0
32.7643174,35.0164519,483.06,-0.0635,-0.00375,0.999,1.04,0.74,0.18,32150.0,-4070.0,-32610.0
32.7643174,35.0164519,483.06,-0.068,-0.00825,1.0105,0.2,0.02,0.12,32130.0,-4100.0,-32600.0
32.7643174,35.0164519,483.06,-0.07125,0.00475,0.99725,-0.76,-0.32,-0.06,32130.0,-4050.0,-32620.0
32.7643174,35.0164519,483.06,-0.0595,-0.001,0.98775,-0.48,-0.42,0.04,32110.0,-4050.0,-32640.0
32.7643174,35.0164519,483.06,-0.047,-0.02,0.994,0.28,-0.46,-0.02,32160.0,-4090.0,-32610.0
32.7643174,35.0164519,483.06,-0.05125,-0.0075,0.99925,0.32,-0.22,-0.04,32140.0,-4110.0,-32600.0
32.7643174,35.0164519,483.06,-0.06175,0.01225,0.9965,0.16,0.46,-0.04,32100.0,-4130.0,-32600.0
32.7643174,35.0164519,483.06,-0.06375,-0.00825,1.0025,-0.2,0.62,0.14,32120.0,-4310.0,-32570.0
32.7643174,35.0164519,483.06,-0.06625,-0.02875,1.00475,-0.52,0.28,0.02,32250.0,-4470.0,-32520.0
32.7643174,35.0164519,483.06,-0.0705,-0.0035,0.98775,0.12,-0.08,-0.12,32290.0,-4490.0,-32520.0
32.7643174,35.0164519,483.06,-0.0615,0.018,0.9885,0.84,-0.38,-0.06,32310.0,-4500.0,-32520.0
32.7643174,35.0164519,483.06,-0.04775,-0.00525,1.00775,0.32,-0.68,0.0,32320.0,-4520.0,-32520.0
32.7643174,35.0164519,483.07,-0.04875,-0.023,1.00575,-1.02,-0.5,-0.12,32320.0,-4500.0,-32530.0
