Lat_GNSS,Long_GNSS,Height_GNSS,Acc_X,Acc_Y,Acc_Z,Gyro_X,Gyro_Y,Gyro_Z,Magn_X,Magn_Y,Magn_Z
32.7588599,35.0228492,478.1,-0.0795,0.04,0.99375,-0.58,-0.38,-0.06,26970.0,17190.0,-33930.0
32.7588599,35.0228492,478.1,-0.06525,0.0305,0.98875,-0.46,-0.66,0.0,26950.0,17160.0,-33930.0
32.7588599,35.0228492,478.1,-0.05425,0.0085,0.995,-0.02,-0.58,-0.06,26990.0,17260.0,-33930.0
32.7588599,35.0228492,478.1,-0.06075,0.021,0.99525,0.28,-0.08,0.02,27020.0,17340.0,-33930.0
32.7588599,35.0228492,478.1,-0.07175,0.0395,0.99375,0.32,0.62,0.08,27060.0,17400.0,-33930.0
32.7588599,35.0228492,478.1,-0.075,0.02325,1.00125,0.1,0.76,0.04,27040.0,17430.0,-33940.0
32.7588599,35.0228492,478.1,-0.078,0.0105,1.002,-0.38,0.32,0.04,27040.0,17450.0,-33940.0
32.7588599,35.0228492,478.09,-0.0805,0.0355,0.989,-0.04,-0.2,-0.08,27060.0,17450.0,-33940.0
32.7588599,35.0228492,478.09,-0.06825,0.04875,0.9865,0.72,-0.5,-0.06,27050.0,17460.0,-33940.0
32.7588599,35.0228492,478.09,-0.05475,0.0275,1.00575,0.34,-0.62,-0.02,27030.0,17350.0,-33930.0
32.7588599,35.0228492,478.09,-0.06,0.02025,1.00175,-0.72,-0.34,-0.04,27030.0,17290.0,-33930.0
32.7588599,35.0228492,478.09,-0.07175,0.0365,0.98525,-0.52,0.56,0.06,27010.0,17220.0,-33930.0
32.7588599,35.0228492,478.09,-0.07425,0.03575,0.989,0.52,0.88,0.14,26980.0,17190.0,-33930.0
32.7588599,35.0228492,478.09,-0.07775,0.02575,1.00625,0.38,0.44,0.04,26980.0,17180.0,-33930.0
32.7588599,35.0228492,478.09,-0.08175,0.0335,1.00175,-0.4,-0.18,-0.08,26940.0,17190.0,-33930.0
32.7588599,35.0228492,478.09,-0.073,0.0315,0.99375,-0.6,-0.58,-0.02,26910.0,17200.0,-33930.0
32.7588599,35.0228492,478.09,-0.05775,0.0075,0.99925,-0.2,-0.66,-0.04,26930.0,17220.0,-33930.0
32.7588599,35.0228492,478.09,-0.05625,0.00325,1.00425,0.2,-0.42,-0.02,26980.0,17250.0,-33930.0
32.7588599,35.0228492,478.09,-0.066,0.02675,1.002,0.44,0.32,0.02,26990.0,17300.0,-33930.0
32.7588599,35.0228492,478.09,-0.073,0.025,1.0025,0.38,0.88,0.04,27030.0,17240.0,-33930.0
32.7588599,35.0228492,478.09,-0.076,0.0055,1.00975,-0.1,0.58,0.12,27050.0,17220.0,-33930.0
32.7588599,35.0228492,478.09,-0.083,0.01875,0.998,-0.06,0.12,0.0,27020.0,17210.0,-33930.0
32.7588599,35.0228492,478.09,-0.07775,0.0425,0.988,0.68,-0.26,-0.04,27040.0,17190.0,-33920.0
32.7588599,35.0228492,478.09,-0.064,0.033,0.998,0.72,-0.58,0.02,27040.0,17230.0,-33930.0
32.7588599,35.0228492,478.09,-0.06125,0.0155,1.005,-0.32,-0.5,-0.02,27020.0,17280.0,-33930.0
32.7588599,35.0228492,478.09,-0.06925,0.02325,0.9935,-0.66,0.06,0.04,27050.0,17250.0,-33930.0
32.7588599,35.0228492,478.09,-0.07475,0.025,0.98825,0.26,0.82,0.12,27040.0,17260.0,-33930.0
32.7588599,35.0228492,478.09,-0.07675,0.0115,1.0025,0.66,0.62,0.14,27010.0,17330.0,-33930.0
32.7588599,35.0228492,478.1,-0.0805,0.013,1.00975,0.12,0.1,0.08,27060.0,17470.0,-33940.0
32.7588599,35.0228492,478.1,-0.07775,0.01925,1.00125,-0.18,-0.3,-0.02,27080.0,17510.0,-33940.0
32.7588599,35.0228492,478.1,-0.06325,0.0025,0.99825,0.18,-0.58,0.08,27020.0,17410.0,-33930.0
32.7588599,35.0228492,478.1,-0.0575,-0.009,1.0055,0.5,-0.4,-0.02,26960.0,17320.0,-33930.0
32.7588599,35.0228492,478.1,-0.065,0.00875,1.00425,0.74,0.02,-0.02,26970.0,17260.0,-33930.0
32.7588599,35.0228492,478.1,-0.073,0.013,1.00825,0.98,0.76,0.08,26970.0,17230.0,-33930.0
32.7588599,35.0228492,478.1,-0.078,-0.0025,1.0135,0.64,0.82,0.18,26950.0,17230.0,-33930.0
32.7588599,35.0228492,478.1,-0.0835,0.0065,1.0035,0.52,0.32,0.08,26940.0,17230.0,-33930.0
32.7588599,35.0228492,478.1,-0.08275,0.03325,0.99725,1.22,-0.08,0.06,26960.0,17230.0,-33930.0
32.7588599,35.0228492,478.1,-0.07,0.034,1.0005,1.34,-0.46,0.12,26990.0,17280.0,-33930.0
32.7588599,35.0228492,478.1,-0.0615,0.01775,1.0085,0.56,-0.5,0.08,27020.0,17260.0,-33930.0
32.7588599,35.0228492,478.1,-0.07,0.02175,0.9985,-0.06,-0.12,0.1,27030.0,17220.0,-33930.0
32.7588599,35.0228492,478.1,-0.07875,0.035,0.98675,0.82,0.86,0.14,27020.0,17220.0,-33930.0
32.7588599,35.0228492,478.1,-0.08175,0.03725,0.992,1.38,0.94,0.26,27020.0,17190.0,-33930.0
32.7588599,35.0228492,478.1,-0.08525,0.043,0.9985,0.86,0.26,0.26,27020.0,17210.0,-33930.0
32.7588599,35.0228492,478.1,-0.0865,0.0515,0.9915,0.1,-0.24,0.02,27050.0,17330.0,-33930.0
32.7588599,35.0228492,478.1,-0.0715,0.04225,0.9845,0.0,-0.66,-0.02,27100.0,17410.0,-33930.0
32.7588599,35.0228492,478.1,-0.05725,0.035,0.983,0.4,-0.64,0.06,27130.0,17450.0,-33930.0
32.7588599,35.0228492,478.1,-0.05775,0.05,0.9835,0.62,-0.32,0.02,27100.0,17450.0,-33930.0
32.7588599,35.0228492,478.1,-0.064,0.05525,0.98875,0.52,0.46,0.04,27110.0,17470.0,-33940.0
32.7588599,35.0228492,478.1,-0.067,0.03825,0.99325,0.02,0.72,0.14,27150.0,17480.0,-33930.0
32.7588599,35.0228492,478.1,-0.0725,0.0325,0.9895,-0.2,0.4,0.06,27150.0,17410.0,-33930.0
32.7588599,35.0228492,478.1,-0.0755,0.0435,0.98375,0.34,0.14,-0.06,27110.0,17300.0,-33930.0
32.7588599,35.0228492,478.1,-0.065,0.04325,0.996,0.84,-0.32,-0.04,27100.0,17260.0,-33930.0
32.7588599,35.0228492,478.1,-0.05075,0.03,1.00225,0.32,-0.62,-0.08,27040.0,17190.0,-33930.0
32.7588599,35.0228492,478.1,-0.049,0.02575,0.9965,-0.28,-0.44,-0.1,27080.0,17150.0,-33920.0
32.7588599,35.0228492,478.1,-0.057,0.02975,0.99275,0.1,0.4,-0.1,27120.0,17110.0,-33920.0
32.7588599,35.0228492,478.1,-0.062,0.036,0.9975,0.96,1.02,0.02,27080.0,17080.0,-33920.0
32.7588599,35.0228492,478.1,-0.07,0.042,1.00225,0.82,0.88,0.14,27030.0,17070.0,-33920.0
32.7588599,35.0228492,478.1,-0.078,0.04475,1.003,0.04,0.3,0.06,27080.0,17160.0,-33920.0
32.7588599,35.0228492,478.1,-0.07725,0.037,0.99975,-0.32,0.04,-0.06,27140.0,17290.0,-33930.0
32.7588599,35.0228492,478.1,-0.06375,0.0285,0.99325,0.08,-0.38,0.16,27170.0,17310.0,-33930.0
32.7588599,35.0228492,478.1,-0.05875,0.0315,0.993,0.46,-0.34,0.06,27170.0,17320.0,-33930.0
32.7588599,35.0228492,478.1,-0.06325,0.03925,1.00325,0.36,0.12,0.08,27120.0,17320.0,-33930.0
32.7588599,35.0228492,478.1,-0.06975,0.02875,1.00975,0.02,0.72,0.12,27120.0,17340.0,-33930.0
32.7588599,35.0228492,478.1,-0.074,0.0095,1.007,-0.3,0.72,0.2,27150.0,17370.0,-33930.0
32.7588599,35.0228492,478.1,-0.082,0.0115,0.9965,-0.08,0.44,0.18,27180.0,17370.0,-33930.0
32.7588599,35.0228492,478.1,-0.08175,0.029,0.99925,0.8,0.16,0.1,27120.0,17390.0,-33930.0
32.7588599,35.0228492,478.1,-0.06975,0.026,1.00125,0.82,-0.4,0.1,27110.0,17380.0,-33930.0
32.7588599,35.0228492,478.1,-0.064,0.00975,1.009,-0.12,-0.52,0.08,27160.0,17380.0,-33930.0
32.7588599,35.0228492,478.1,-0.07325,0.00875,0.99825,-0.32,0.12,-0.02,27170.0,17400.0,-33930.0
32.7588599,35.0228492,478.1,-0.0795,0.014,0.99075,0.56,0.96,0.12,27190.0,17370.0,-33930.0
32.7588599,35.0228492,478.1,-0.08275,0.0185,0.99825,1.26,0.86,0.18,27160.0,17350.0,-33930.0
32.7588599,35.0228492,478.1,-0.0885,0.0275,1.0035,0.78,0.24,0.08,27130.0,17350.0,-33930.0
32.7588599,35.0228492,478.1,-0.089,0.029,0.997,-0.02,-0.16,0.0,27210.0,17250.0,-33930.0
32.7588599,35.0228492,478.1,-0.077,0.015,0.99325,-0.12,-0.4,0.04,27250.0,16920.0,-33920.0
32.7588599,35.0228492,478.1,-0.0675,0.0115,0.9895,0.58,-0.4,0.08,27220.0,16730.0,-33910.0
32.7588599,35.0228492,478.1,-0.07175,0.0275,0.98825,0.92,-0.1,-0.04,27240.0,16650.0,-33910.0
32.7588599,35.0228492,478.1,-0.07775,0.032,1.00125,0.84,0.54,0.1,27250.0,16600.0,-33910.0
32.7588599,35.0228492,478.1,-0.0795,0.01725,1.0015,0.18,0.58,0.1,27290.0,16600.0,-33910.0
32.7588599,35.0228492,478.1,-0.08275,0.0145,0.9925,-0.04,0.24,0.06,27280.0,16670.0,-33910.0
32.7588599,35.0228492,478.1,-0.08425,0.0285,0.989,0.68,-0.12,-0.04,27280.0,16590.0,-33910.0
32.7588599,35.0228492,478.1,-0.072,0.0335,0.997,1.28,-0.28,0.0,27190.0,16700.0,-33910.0
32.7588599,35.0228492,478.1,-0.059,0.02425,1.0065,0.62,-0.6,-0.04,27160.0,16900.0,-33910.0
32.7588599,35.0228492,478.1,-0.0595,0.01925,1.00125,-0.12,-0.44,-0.06,27140.0,16990.0,-33920.0
32.7588599,35.0228492,478.1,-0.06725,0.02325,0.99425,0.36,0.38,-0.02,27130.0,17080.0,-33920.0
32.7588599,35.0228492,478.1,-0.069,0.0285,0.99575,1.4,0.84,0.16,27150.0,17210.0,-33920.0
32.7588599,35.0228492,478.1,-0.07425,0.03825,1.00225,1.3,0.58,0.14,27210.0,17250.0,-33920.0
32.7588599,35.0228492,478.1,-0.0785,0.045,1.00225,0.56,0.06,0.1,27240.0,17300.0,-33920.0
32.7588599,35.0228492,478.1,-0.07325,0.03675,0.99925,0.1,-0.3,0.06,27250.0,17370.0,-33920.0
32.75886,35.0228493,478.1,-0.05925,0.02975,0.98875,0.44,-0.56,0.12,27270.0,17410.0,-33920.0
32.75886,35.0228493,478.1,-0.05725,0.04225,0.98825,0.96,-0.38,0.1,27250.0,17420.0,-33930.0
32.75886,35.0228493,478.1,-0.0625,0.06025,0.99375,1.0,0.12,0.14,27190.0,17370.0,-33930.0
32.75886,35.0228493,478.1,-0.06725,0.05425,0.99725,0.48,0.62,0.16,27190.0,17250.0,-33920.0
32.75886,35.0228493,478.1,-0.07175,0.04025,0.9965,-0.22,0.48,0.16,27210.0,17170.0,-33920.0
32.75886,35.0228493,478.1,-0.07775,0.047,0.98125,-0.08,0.22,0.14,27160.0,17120.0,-33920.0
32.75886,35.0228493,478.1,-0.07625,0.06225,0.98275,0.78,-0.04,0.12,27160.0,17130.0,-33920.0
32.75886,35.0228493,478.1,-0.0635,0.06125,0.99,0.76,-0.48,0.14,27180.0,17200.0,-33920.0
32.75886,35.0228493,478.1,-0.058,0.05175,0.9915,-0.28,-0.6,0.08,27150.0,17180.0,-33920.0
32.75886,35.0228493,478.1,-0.0635,0.04775,0.984,-0.8,-0.08,0.0,27200.0,17210.0,-33920.0
32.75886,35.0228493,478.1,-0.06975,0.0475,0.98075,-0.02,0.68,0.04,27200.0,17220.0,-33920.0
32.75886,35.0228493,478.1,-0.0725,0.0495,0.98425,0.58,0.76,0.12,27180.0,17190.0,-33920.0
32.75886,35.0228493,478.1,-0.07775,0.05525,0.99075,0.14,0.14,0.06,27180.0,17170.0,-33920.0
32.75886,35.0228493,478.1,-0.078,0.0545,0.9895,-0.62,-0.22,-0.16,27200.0,17140.0,-33910.0
32.75886,35.0228493,478.1,-0.06625,0.04,0.98275,-0.72,-0.54,-0.08,27180.0,17110.0,-33910.0
32.75886,35.0228493,478.1,-0.05725,0.03325,0.98075,-0.28,-0.56,-0.18,27180.0,17170.0,-33920.0
32.75886,35.0228493,478.1,-0.06075,0.0425,0.983,0.06,-0.22,-0.08,27190.0,17200.0,-33920.0
32.75886,35.0228493,478.1,-0.068,0.04375,0.9935,-0.02,0.44,-0.06,27170.0,17170.0,-33920.0
32.75886,35.0228493,478.1,-0.069,0.029,0.99475,-0.52,0.52,-0.04,27200.0,17140.0,-33910.0
32.75886,35.0228493,478.1,-0.074,0.02175,0.989,-0.8,0.18,-0.06,27210.0,17200.0,-33920.0
32.75886,35.0228493,478.1,-0.07825,0.032,0.98475,-0.2,-0.02,-0.14,27210.0,17340.0,-33920.0
32.75886,35.0228493,478.1,-0.0675,0.037,0.993,0.28,-0.3,-0.1,27200.0,17320.0,-33920.0
32.75886,35.0228493,478.1,-0.055,0.0235,1.003,-0.24,-0.6,-0.08,27220.0,17250.0,-33920.0
32.75886,35.0228493,478.1,-0.0575,0.01375,0.99725,-0.94,-0.5,-0.06,27230.0,17180.0,-33920.0
32.75886,35.0228493,478.1,-0.06625,0.01975,0.9905,-0.5,0.4,-0.06,27190.0,17160.0,-33920.0
32.75886,35.0228493,478.1,-0.068,0.0235,0.99775,0.48,0.8,0.06,27180.0,17120.0,-33910.0
32.75886,35.0228493,478.1,-0.074,0.02325,1.0025,0.48,0.52,0.12,27190.0,17100.0,-33910.0
32.75886,35.0228493,478.1,-0.08025,0.0285,1.0025,-0.4,0.04,0.02,27170.0,17110.0,-33910.0
32.75886,35.0228493,478.1,-0.07625,0.02625,0.99875,-0.56,-0.2,-0.04,27170.0,17120.0,-33920.0
32.75886,35.0228493,478.1,-0.0635,0.01425,0.99275,-0.1,-0.48,0.1,27170.0,17170.0,-33920.0
32.75886,35.0228493,478.1,-0.0595,0.0165,0.994,0.2,-0.4,0.04,27160.0,17160.0,-33920.0
32.75886,35.0228493,478.1,-0.0655,0.035,0.99825,0.3,0.02,0.04,27140.0,17120.0,-33920.0
32.75886,35.0228493,478.1,-0.07125,0.03275,1.00025,0.02,0.6,0.06,27150.0,17100.0,-33920.0
32.75886,35.0228493,478.1,-0.076,0.01275,1.004,-0.36,0.52,0.08,27110.0,17100.0,-33920.0
32.75886,35.0228493,478.1,-0.0835,0.016,0.99225,-0.34,0.24,0.06,27100.0,17110.0,-33920.0
32.75886,35.0228493,478.1,-0.08325,0.03825,0.9885,0.42,-0.02,0.04,27120.0,17170.0,-33920.0
32.75886,35.0228493,478.1,-0.0705,0.03625,0.99775,0.72,-0.44,-0.04,27140.0,17210.0,-33920.0
32.75886,35.0228493,478.1,-0.0615,0.01775,1.0045,-0.24,-0.66,-0.04,27220.0,17270.0,-33920.0
32.75886,35.0228493,478.1,-0.0685,0.01975,0.9935,-0.78,-0.18,-0.06,27210.0,17300.0,-33920.0
32.75886,35.0228493,478.1,-0.07575,0.0325,0.98675,0.1,0.7,0.0,27180.0,17340.0,-33930.0
32.75886,35.0228493,478.1,-0.076,0.03125,0.9955,0.9,0.76,0.08,27210.0,17420.0,-33930.0
32.75886,35.0228493,478.1,-0.08025,0.029,1.0055,0.3,0.12,0.0,27210.0,17420.0,-33930.0
32.75886,35.0228493,478.1,-0.08425,0.04,0.9965,-0.46,-0.16,-0.08,27190.0,17360.0,-33930.0
32.75886,35.0228493,478.1,-0.07325,0.03425,0.98675,-0.24,-0.46,-0.08,27140.0,17290.0,-33930.0
32.75886,35.0228493,478.1,-0.06025,0.01925,0.99475,0.26,-0.5,-0.08,27120.0,17160.0,-33920.0
32.75886,35.0228493,478.1,-0.0635,0.03325,0.99375,0.34,-0.36,-0.04,27140.0,17110.0,-33920.0
32.75886,35.0228493,478.1,-0.07225,0.0525,0.9945,0.28,0.42,-0.06,27140.0,17070.0,-33920.0
32.75886,35.0228493,478.1,-0.0715,0.0345,1.0,-0.06,0.5,0.08,27090.0,17050.0,-33920.0
32.75886,35.0228493,478.1,-0.07425,0.01825,1.00225,-0.42,0.16,0.0,27110.0,17050.0,-33920.0
32.75886,35.0228493,478.1,-0.0805,0.0425,0.98575,0.06,-0.06,0.0,27110.0,17090.0,-33920.0
32.75886,35.0228493,478.1,-0.07175,0.05925,0.98775,0.76,-0.24,0.08,27130.0,17090.0,-33920.0
32.75886,35.0228493,478.1,-0.057,0.038,1.00675,0.28,-0.56,0.04,27150.0,17070.0,-33920.0
32.75886,35.0228493,478.1,-0.05875,0.0255,1.0025,-0.84,-0.58,0.02,27080.0,17040.0,-33920.0
32.75886,35.0228493,478.1,-0.06925,0.04,0.98475,-0.56,0.32,-0.02,27090.0,17040.0,-33920.0
32.75886,35.0228493,478.1,-0.071,0.0445,0.99025,0.66,0.86,0.14,27090.0,17020.0,-33920.0
32.75886,35.0228493,478.1,-0.07325,0.03625,1.0065,0.64,0.46,0.08,27080.0,17080.0,-33920.0
32.75886,35.0228493,478.1,-0.0805,0.0435,1.00225,-0.44,-0.02,0.04,27070.0,17120.0,-33920.0
32.75886,35.0228493,478.1,-0.07675,0.04475,0.9905,-0.8,-0.32,-0.02,27040.0,17110.0,-33920.0
32.75886,35.0228493,478.1,-0.061,0.02625,0.9915,-0.14,-0.52,0.0,27000.0,17130.0,-33930.0
32.75886,35.0228493,478.1,-0.05825,0.02325,0.9955,0.16,-0.44,-0.1,27010.0,17200.0,-33930.0
32.75886,35.0228493,478.1,-0.067,0.04425,0.99775,0.26,0.06,0.02,27060.0,17270.0,-33930.0
32.75886,35.0228493,478.1,-0.073,0.03975,0.9975,-0.06,0.62,0.06,27040.0,17190.0,-33930.0
32.75886,35.0228493,478.1,-0.0755,0.01275,1.005,-0.62,0.48,0.02,27010.0,17120.0,-33930.0
32.75886,35.0228493,478.1,-0.082,0.0195,0.992,-0.38,0.12,-0.02,27060.0,17130.0,-33920.0
32.75886,35.0228493,478.1,-0.08,0.04525,0.984,0.44,-0.12,-0.06,27040.0,17100.0,-33920.0
32.75886,35.0228493,478.1,-0.066,0.0365,0.998,0.56,-0.56,0.0,27030.0,17090.0,-33920.0
32.75886,35.0228493,478.1,-0.05925,0.01225,1.00875,-0.58,-0.72,-0.02,27010.0,17070.0,-33920.0
32.75886,35.0228493,478.1,-0.06975,0.01675,0.992,-1.0,0.02,-0.04,27000.0,17090.0,-33920.0
32.75886,35.0228493,478.1,-0.076,0.02925,0.98325,0.2,0.82,0.04,27020.0,17090.0,-33920.0
32.75886,35.0228493,478.1,-0.0765,0.02375,0.9985,0.96,0.76,0.14,27040.0,17150.0,-33920.0
32.75886,35.0228493,478.1,-0.081,0.026,1.00525,0.1,0.02,0.02,27030.0,17210.0,-33930.0
32.75886,35.0228493,478.1,-0.08175,0.035,0.99675,-0.64,-0.4,-0.1,27030.0,17150.0,-33920.0
32.75886,35.0228493,478.1,-0.067,0.0225,0.988,-0.44,-0.6,-0.06,27050.0,17120.0,-33920.0
32.75886,35.0228493,478.1,-0.05725,0.00975,0.99525,0.22,-0.48,-0.02,27000.0,17090.0,-33920.0
32.75886,35.0228493,478.1,-0.0635,0.0285,0.99475,0.42,-0.02,0.0,26990.0,17150.0,-33920.0
32.75886,35.0228493,478.1,-0.0725,0.044,0.99675,0.34,0.56,0.02,26990.0,17200.0,-33930.0
32.75886,35.0228493,478.1,-0.0745,0.02225,1.004,-0.24,0.56,0.1,27030.0,17230.0,-33930.0
32.75886,35.0228493,478.1,-0.078,0.01225,0.99825,-0.52,0.16,0.06,27040.0,17230.0,-33930.0
32.75886,35.0228493,478.1,-0.08,0.03925,0.9875,0.2,-0.18,-0.02,27100.0,17340.0,-33930.0
32.75886,35.0228493,478.1,-0.0685,0.052,0.99075,1.0,-0.42,0.0,27150.0,17370.0,-33930.0
32.75886,35.0228493,478.1,-0.0565,0.0295,1.00725,0.2,-0.68,0.02,27180.0,17440.0,-33930.0
32.75886,35.0228493,478.1,-0.0615,0.022,1.002,-0.92,-0.38,-0.06,27180.0,17420.0,-33930.0
32.75886,35.0228493,478.1,-0.07175,0.03825,0.9845,-0.4,0.56,0.0,27160.0,17430.0,-33930.0
32.75886,35.0228493,478.1,-0.07425,0.0385,0.99025,0.92,0.98,0.06,27140.0,17380.0,-33930.0
32.75886,35.0228493,478.1,-0.078,0.03325,1.00675,0.74,0.44,0.12,27150.0,17300.0,-33920.0
32.75886,35.0228493,478.1,-0.082,0.045,1.00075,-0.32,-0.24,-0.04,27160.0,17250.0,-33920.0
32.75886,35.0228493,478.1,-0.074,0.04375,0.99075,-0.66,-0.52,-0.02,27130.0,17210.0,-33920.0
32.75886,35.0228493,478.1,-0.0595,0.023,0.99125,-0.08,-0.56,-0.02,27160.0,17200.0,-33920.0
32.75886,35.0228493,478.1,-0.0585,0.02625,0.99325,0.32,-0.32,-0.06,27180.0,17200.0,-33920.0
32.75886,35.0228493,478.1,-0.06875,0.05025,0.99675,0.32,0.3,0.02,27150.0,17270.0,-33920.0
32.75886,35.0228493,478.1,-0.07475,0.04125,0.9985,0.08,0.78,0.08,27160.0,17340.0,-33920.0
32.75886,35.0228493,478.1,-0.0775,0.01675,1.0035,-0.52,0.42,0.04,27200.0,17250.0,-33920.0
32.75886,35.0228493,478.1,-0.083,0.03025,0.99125,-0.32,0.06,-0.04,27240.0,17010.0,-33910.0
32.75886,35.0228493,478.1,-0.07775,0.0555,0.98375,0.64,-0.32,-0.06,27270.0,16780.0,-33910.0
32.75886,35.0228493,478.1,-0.06275,0.0415,0.9995,0.54,-0.6,0.0,27270.0,16660.0,-33900.0
32.75886,35.0228493,478.1,-0.05875,0.01875,1.009,-0.7,-0.66,-0.06,27280.0,16630.0,-33900.0
32.75886,35.0228493,478.1,-0.06875,0.0285,0.98875,-1.02,0.1,-0.06,27290.0,16620.0,-33900.0
32.75886,35.0228493,478.1,-0.07375,0.038,0.98325,0.26,0.86,0.06,27350.0,16560.0,-33900.0
32.75886,35.0228493,478.1,-0.07575,0.03,1.00075,0.84,0.7,0.16,27350.0,16520.0,-33900.0
32.75886,35.0228493,478.1,-0.0815,0.03425,1.0045,-0.08,0.0,-0.02,27300.0,16610.0,-33900.0
32.75886,35.0228493,478.1,-0.08125,0.04175,0.99425,-0.72,-0.4,-0.04,27270.0,16940.0,-33910.0
32.75886,35.0228493,478.1,-0.0665,0.02375,0.9885,-0.44,-0.64,-0.02,27230.0,17030.0,-33920.0
32.75886,35.0228493,478.1,-0.05725,0.01025,0.9965,0.06,-0.48,-0.08,27220.0,17080.0,-33910.0
32.75886,35.0228493,478.1,-0.06375,0.034,0.99425,0.38,-0.14,0.0,27220.0,17110.0,-33910.0
32.75886,35.0228493,478.1,-0.07125,0.045,0.99625,0.24,0.6,0.0,27190.0,17150.0,-33920.0
32.75886,35.0228493,478.1,-0.073,0.018,1.00625,-0.4,0.5,0.02,27110.0,17110.0,-33920.0
32.75886,35.0228493,478.1,-0.0785,0.01225,0.99775,-0.6,0.16,0.06,27120.0,17120.0,-33920.0
32.75886,35.0228493,478.1,-0.081,0.038,0.98575,0.24,-0.1,-0.04,27120.0,17120.0,-33920.0
32.75886,35.0228493,478.1,-0.06925,0.04225,0.99225,0.8,-0.36,0.0,27060.0,17160.0,-33920.0
32.75886,35.0228493,478.1,-0.05825,0.01925,1.0085,-0.04,-0.66,-0.06,27060.0,17220.0,-33930.0
32.75886,35.0228493,478.1,-0.0635,0.01925,0.999,-0.9,-0.34,-0.06,27070.0,17220.0,-33930.0
32.75886,35.0228493,478.1,-0.07275,0.034,0.98325,-0.22,0.64,0.06,27050.0,17160.0,-33920.0
32.75886,35.0228493,478.1,-0.0735,0.0295,0.99425,0.76,0.86,0.06,27060.0,17120.0,-33920.0
32.75886,35.0228493,478.1,-0.078,0.026,1.007,0.44,0.3,0.06,27060.0,17100.0,-33920.0
32.75886,35.0228493,478.1,-0.08225,0.03975,0.99925,-0.4,-0.18,-0.06,27020.0,17080.0,-33920.0
32.75886,35.0228493,478.1,-0.073,0.0345,0.98775,-0.46,-0.5,0.0,27040.0,17170.0,-33920.0
32.75886,35.0228493,478.1,-0.05925,0.01475,0.99375,0.0,-0.62,0.0,27050.0,17210.0,-33930.0
32.75886,35.0228493,478.1,-0.06075,0.02575,0.99425,0.32,-0.3,0.02,27020.0,17180.0,-33930.0
32.75886,35.0228493,478.1,-0.0705,0.049,0.99425,0.46,0.36,0.0,26980.0,17130.0,-33930.0
32.75886,35.0228493,478.1,-0.07375,0.034,1.0015,-0.02,0.68,0.1,27020.0,17210.0,-33930.0
32.75886,35.0228493,478.1,-0.0765,0.0145,1.00425,-0.56,0.32,0.08,27080.0,17300.0,-33930.0
32.75886,35.0228493,478.1,-0.082,0.03425,0.98975,-0.1,0.06,-0.08,27110.0,17320.0,-33930.0
32.75886,35.0228493,478.1,-0.07425,0.054,0.98525,0.76,-0.28,0.04,27060.0,17310.0,-33930.0
32.75886,35.0228493,478.1,-0.05925,0.03625,1.00325,0.48,-0.64,-0.04,27070.0,17290.0,-33930.0
32.75886,35.0228493,478.1,-0.059,0.02375,1.00575,-0.76,-0.54,-0.08,27030.0,17220.0,-33930.0
32.75886,35.0228493,478.1,-0.07025,0.0375,0.9885,-0.68,0.26,-0.08,27020.0,17130.0,-33930.0
32.75886,35.0228493,478.1,-0.074,0.0385,0.9875,0.44,0.9,0.1,27020.0,17060.0,-33920.0
32.75886,35.0228493,478.1,-0.077,0.03025,1.004,0.76,0.64,0.14,26980.0,17060.0,-33920.0
32.75886,35.0228493,478.1,-0.083,0.04175,1.0015,-0.16,-0.08,0.02,26990.0,17090.0,-33920.0
32.75886,35.0228493,478.1,-0.07875,0.04625,0.98975,-0.6,-0.44,-0.04,27060.0,17150.0,-33920.0
32.75886,35.0228493,478.1,-0.063,0.0255,0.9925,-0.26,-0.74,-0.06,27090.0,17150.0,-33920.0
32.75886,35.0228493,478.1,-0.058,0.01925,0.995,0.08,-0.54,-0.08,27080.0,17090.0,-33920.0
32.75886,35.0228493,478.1,-0.06725,0.0425,0.99425,0.26,0.1,-0.02,27080.0,17090.0,-33920.0
32.75886,35.0228493,478.1,-0.0735,0.04075,0.998,0.22,0.76,0.08,27060.0,17050.0,-33920.0
32.75886,35.0228493,478.1,-0.076,0.01725,1.004,-0.4,0.56,0.08,27100.0,17030.0,-33920.0
32.75886,35.0228493,478.1,-0.082,0.02325,0.99475,-0.44,0.06,0.02,27140.0,17060.0,-33920.0
32.75886,35.0228493,478.1,-0.07975,0.0475,0.985,0.34,-0.18,0.06,27120.0,17100.0,-33920.0
32.75886,35.0228493,478.1,-0.0645,0.0385,0.9965,0.6,-0.56,0.02,27110.0,17090.0,-33920.0
32.75886,35.0228493,478.1,-0.0575,0.0165,1.00925,-0.4,-0.72,-0.02,27120.0,17110.0,-33920.0
32.75886,35.0228493,478.1,-0.067,0.0255,0.99225,-0.8,-0.04,-0.02,27110.0,17150.0,-33920.0
32.7588599,35.0228493,478.1,-0.073,0.03725,0.98375,0.14,0.78,0.08,27150.0,17280.0,-33930.0
32.7588599,35.0228493,478.1,-0.07475,0.0285,0.9995,0.78,0.7,0.1,27170.0,17350.0,-33930.0
32.7588599,35.0228493,478.1,-0.08025,0.0295,1.00475,-0.04,0.08,0.06,27150.0,17390.0,-33930.0
32.7588599,35.0228493,478.1,-0.08175,0.04,0.9945,-0.6,-0.28,-0.12,27140.0,17330.0,-33930.0
32.7588599,35.0228493,478.1,-0.06825,0.02825,0.98925,-0.38,-0.52,-0.08,27150.0,17210.0,-33920.0
32.7588599,35.0228493,478.1,-0.0575,0.013,0.9955,0.06,-0.5,-0.06,27130.0,17160.0,-33920.0
32.7588599,35.0228493,478.1,-0.06275,0.03175,0.995,0.26,-0.26,0.0,27110.0,17140.0,-33920.0
32.7588599,35.0228493,478.1,-0.071,0.04525,0.99475,0.26,0.56,0.02,27090.0,17140.0,-33920.0
32.7588599,35.0228493,478.1,-0.07275,0.0225,1.00275,-0.18,0.64,0.08,27100.0,17140.0,-33920.0
32.7588599,35.0228493,478.1,-0.07775,0.01225,1.0,-0.52,0.24,0.02,27110.0,17170.0,-33920.0
32.7588599,35.0228493,478.1,-0.08175,0.038,0.98725,0.08,-0.08,-0.08,27140.0,17210.0,-33920.0
32.7588599,35.0228493,478.1,-0.0705,0.04725,0.98925,0.76,-0.4,0.04,27160.0,17140.0,-33920.0
32.7588599,35.0228493,478.1,-0.05825,0.024,1.00725,0.16,-0.62,0.0,27150.0,17140.0,-33920.0
32.7588599,35.0228493,478.1,-0.0625,0.021,0.9995,-0.82,-0.44,-0.08,27170.0,17120.0,-33920.0
32.7588599,35.0228493,478.1,-0.07175,0.03675,0.985,-0.34,0.5,-0.02,27180.0,17120.0,-33920.0
32.7588599,35.0228493,478.1,-0.074,0.0335,0.99275,0.8,0.86,0.1,27130.0,17120.0,-33920.0
32.7588599,35.0228493,478.1,-0.07775,0.0275,1.00675,0.5,0.42,0.08,27160.0,17220.0,-33920.0
32.7588599,35.0228493,478.1,-0.08275,0.04125,0.99925,-0.36,-0.12,0.0,27200.0,17290.0,-33920.0
32.7588599,35.0228493,478.1,-0.0755,0.0415,0.9885,-0.4,-0.42,-0.02,27200.0,17260.0,-33920.0
32.7588599,35.0228493,478.1,-0.06075,0.021,0.9935,-0.02,-0.64,0.0,27200.0,17300.0,-33920.0
32.7588599,35.0228493,478.1,-0.06075,0.0255,0.9955,0.24,-0.38,-0.06,27220.0,17390.0,-33920.0
32.7588599,35.0228493,478.1,-0.07025,0.0475,0.99475,0.24,0.3,0.08,27200.0,17440.0,-33930.0
32.7588599,35.0228493,478.1,-0.0745,0.03625,0.99825,0.04,0.72,0.1,27240.0,17430.0,-33930.0
32.7588599,35.0228493,478.1,-0.077,0.01625,1.0045,-0.38,0.36,0.12,27260.0,17460.0,-33930.0
32.7588599,35.0228493,478.1,-0.08225,0.03325,0.99,-0.22,-0.06,-0.04,27240.0,17480.0,-33930.0
32.7588599,35.0228493,478.1,-0.07625,0.05525,0.9855,0.66,-0.28,0.02,27170.0,17450.0,-33930.0
32.7588599,35.0228493,478.1,-0.0615,0.03775,1.00225,0.52,-0.6,-0.08,27160.0,17350.0,-33920.0
32.7588599,35.0228493,478.1,-0.059,0.0185,1.00675,-0.7,-0.6,-0.06,27180.0,17290.0,-33920.0
32.7588599,35.0228493,478.1,-0.07,0.03125,0.9885,-0.68,0.22,-0.04,27160.0,17230.0,-33920.0
32.7588599,35.0228493,478.1,-0.07475,0.04,0.98625,0.5,0.86,0.12,27150.0,17270.0,-33920.0
32.7588599,35.0228493,478.1,-0.076,0.031,1.003,0.76,0.7,0.16,27160.0,17350.0,-33920.0
32.7588599,35.0228493,478.1,-0.0815,0.03625,1.004,-0.2,-0.06,-0.02,27140.0,17270.0,-33920.0
32.7588599,35.0228493,478.1,-0.08,0.04225,0.992,-0.74,-0.4,-0.06,27140.0,17230.0,-33920.0
32.7588599,35.0228493,478.1,-0.06425,0.0245,0.9905,-0.3,-0.64,-0.06,27140.0,17160.0,-33920.0
32.7588599,35.0228493,478.1,-0.05675,0.0145,0.9965,0.12,-0.42,-0.08,27100.0,17190.0,-33920.0
32.7588599,35.0228493,478.1,-0.06475,0.0375,0.99425,0.3,-0.04,0.02,27130.0,17220.0,-33920.0
32.7588599,35.0228493,478.1,-0.072,0.043,0.997,0.08,0.66,0.06,27170.0,17240.0,-33920.0
32.7588599,35.0228493,478.1,-0.0735,0.01775,1.00525,-0.3,0.54,0.04,27190.0,17210.0,-33920.0
32.7588599,35.0228493,478.1,-0.079,0.01525,0.99625,-0.5,0.16,-0.04,27200.0,17210.0,-33920.0
32.7588599,35.0228493,478.1,-0.08,0.042,0.9865,0.32,-0.14,0.02,27200.0,17270.0,-33920.0
32.7588599,35.0228493,478.1,-0.06725,0.04275,0.99425,0.7,-0.46,-0.08,27200.0,17370.0,-33920.0
32.7588599,35.0228493,478.1,-0.057,0.0175,1.008,-0.14,-0.62,-0.1,27210.0,17310.0,-33920.0
32.7588599,35.0228493,478.1,-0.0645,0.02025,0.996,-0.86,-0.22,-0.06,27180.0,17230.0,-33920.0
32.7588599,35.0228493,478.1,-0.07275,0.037,0.98225,-0.1,0.72,0.08,27130.0,17190.0,-33920.0
32.7588599,35.0228493,478.1,-0.07425,0.03225,0.99575,0.88,0.84,0.1,27120.0,17160.0,-33920.0
32.7588599,35.0228493,478.1,-0.0785,0.02725,1.007,0.3,0.18,0.1,27140.0,17150.0,-33920.0
32.7588599,35.0228493,478.1,-0.08225,0.04,0.9965,-0.52,-0.28,-0.04,27110.0,17130.0,-33920.0
32.7588599,35.0228493,478.1,-0.072,0.03575,0.987,-0.4,-0.56,-0.04,27090.0,17140.0,-33920.0
32.7588599,35.0228493,478.1,-0.05875,0.01775,0.994,0.12,-0.6,-0.02,27100.0,17130.0,-33920.0
32.7588599,35.0228493,478.1,-0.062,0.02925,0.99425,0.32,-0.3,-0.04,27100.0,17180.0,-33920.0
32.7588599,35.0228493,478.1,-0.07175,0.04925,0.9965,0.22,0.4,-0.02,27130.0,17230.0,-33920.0
32.7588599,35.0228493,478.1,-0.07475,0.03275,1.0005,-0.06,0.68,0.12,27160.0,17150.0,-33920.0
32.7588599,35.0228493,478.1,-0.07675,0.01275,1.00275,-0.48,0.26,0.04,27140.0,17090.0,-33920.0
32.7588599,35.0228493,478.1,-0.0815,0.03425,0.98925,-0.08,-0.08,-0.02,27110.0,17060.0,-33920.0
32.7588599,35.0228493,478.1,-0.0745,0.05575,0.98625,0.8,-0.28,-0.02,27090.0,17070.0,-33920.0
32.7588599,35.0228493,478.1,-0.0595,0.03475,1.0035,0.34,-0.68,-0.02,27100.0,17130.0,-33920.0
32.7588599,35.0228493,478.1,-0.0605,0.01725,1.00575,-0.9,-0.48,-0.12,27130.0,17160.0,-33920.0
32.7588599,35.0228493,478.1,-0.072,0.03175,0.98625,-0.68,0.32,-0.04,27130.0,17100.0,-33920.0
32.7588599,35.0228493,478.1,-0.07575,0.03825,0.98675,0.64,0.92,0.06,27100.0,17070.0,-33920.0
32.7588599,35.0228493,478.1,-0.077,0.03,1.0055,0.84,0.54,0.08,27100.0,17090.0,-33920.0
32.7588599,35.0228493,478.1,-0.08175,0.037,1.0025,-0.26,-0.18,-0.04,27200.0,16970.0,-33920.0
32.7588599,35.0228493,478.1,-0.0785,0.04275,0.99125,-0.8,-0.42,-0.02,27290.0,16820.0,-33910.0
32.7588599,35.0228493,478.1,-0.062,0.02425,0.9895,-0.16,-0.64,0.02,27270.0,16780.0,-33910.0
32.7588599,35.0228493,478.1,-0.057,0.01675,0.996,0.28,-0.42,-0.04,27300.0,16750.0,-33910.0
32.7588599,35.0228493,478.1,-0.06675,0.04025,0.99625,0.26,0.04,0.06,27300.0,16710.0,-33910.0
32.7588599,35.0228493,478.1,-0.0745,0.0435,0.99725,0.1,0.66,0.08,27270.0,16560.0,-33910.0
32.7588599,35.0228493,478.1,-0.07525,0.01625,1.00475,-0.38,0.54,0.16,27300.0,16480.0,-33900.0
32.7588599,35.0228493,478.1,-0.079,0.01725,0.9945,-0.48,0.0,0.0,27270.0,16550.0,-33900.0
32.7588599,35.0228493,478.1,-0.078,0.04725,0.9845,0.4,-0.3,-0.06,27160.0,16740.0,-33910.0
32.7588599,35.0228493,478.1,-0.06375,0.046,0.99525,0.78,-0.5,0.02,27160.0,16920.0,-33910.0
32.7588599,35.0228493,478.1,-0.056,0.01825,1.0105,-0.36,-0.62,0.0,27210.0,17070.0,-33920.0
32.7588599,35.0228493,478.1,-0.06575,0.01975,0.995,-1.04,-0.08,-0.02,27150.0,17050.0,-33920.0
32.7588599,35.0228493,478.1,-0.07525,0.038,0.98125,0.0,0.9,0.02,27130.0,17050.0,-33920.0
32.7588599,35.0228493,478.1,-0.07675,0.03525,0.99575,1.04,0.82,0.14,27130.0,17030.0,-33920.0
32.7588599,35.0228493,478.1,-0.079,0.0305,1.0065,0.32,0.16,0.04,27130.0,17040.0,-33920.0
32.7588599,35.0228493,478.1,-0.081,0.041,0.99875,-0.72,-0.42,-0.06,27130.0,17080.0,-33920.0
32.7588599,35.0228493,478.1,-0.06975,0.033,0.98775,-0.6,-0.62,-0.08,27130.0,17100.0,-33920.0
32.7588599,35.0228493,478.1,-0.05725,0.01375,0.99275,0.1,-0.54,-0.12,27110.0,17050.0,-33920.0
32.7588599,35.0228493,478.1,-0.06125,0.02775,0.9965,0.38,-0.22,0.0,27140.0,17050.0,-33920.0
32.7588599,35.0228493,478.1,-0.0725,0.04925,0.99525,0.26,0.48,0.06,27170.0,17120.0,-33920.0
32.7588599,35.0228493,478.1,-0.0755,0.03025,1.0015,-0.18,0.76,0.0,27190.0,17230.0,-33920.0
32.7588599,35.0228493,478.1,-0.0775,0.00875,1.0035,-0.6,0.28,0.04,27120.0,17210.0,-33920.0
32.7588599,35.0228493,478.1,-0.08175,0.02975,0.987,-0.08,-0.06,0.0,27110.0,17140.0,-33920.0
32.7588599,35.0228493,478.1,-0.0735,0.05225,0.98775,0.9,-0.4,-0.08,27150.0,17090.0,-33920.0
32.7588599,35.0228493,478.1,-0.059,0.0335,1.00475,0.4,-0.6,0.0,27160.0,17080.0,-33920.0
32.7588599,35.0228493,478.1,-0.05925,0.01775,1.00525,-0.88,-0.52,-0.04,27170.0,17060.0,-33910.0
32.7588599,35.0228493,478.1,-0.0705,0.03175,0.98775,-0.68,0.34,-0.04,27160.0,17070.0,-33920.0
32.7588599,35.0228493,478.1,-0.0745,0.03775,0.986,0.6,0.92,0.06,27150.0,17090.0,-33920.0
32.7588599,35.0228493,478.1,-0.07625,0.0295,1.006,0.82,0.54,0.16,27130.0,17110.0,-33920.0
32.7588599,35.0228493,478.1,-0.081,0.0375,1.00525,-0.18,-0.1,0.04,27150.0,17170.0,-33920.0
32.7588599,35.0228493,478.1,-0.078,0.04425,0.98975,-0.7,-0.44,-0.02,27110.0,17180.0,-33920.0
32.7588599,35.0228493,478.1,-0.06175,0.0255,0.99125,-0.24,-0.7,-0.06,27140.0,17150.0,-33920.0
32.7588599,35.0228493,478.1,-0.05675,0.0185,0.996,0.28,-0.32,0.0,27140.0,17140.0,-33920.0
32.7588599,35.0228493,478.1,-0.0665,0.042,0.9955,0.28,0.1,0.06,27090.0,17140.0,-33920.0
32.7588599,35.0228493,478.1,-0.0745,0.04375,0.9995,0.1,0.8,0.0,27110.0,17150.0,-33920.0
32.7588599,35.0228493,478.1,-0.07525,0.01775,1.0045,-0.42,0.6,0.04,27130.0,17200.0,-33920.0
32.7588599,35.0228493,478.1,-0.07925,0.0185,0.99425,-0.48,0.06,0.04,27150.0,17250.0,-33920.0
32.7588599,35.0228493,478.1,-0.0785,0.048,0.985,0.42,-0.3,-0.04,27140.0,17240.0,-33920.0
32.7588599,35.0228493,478.1,-0.065,0.046,0.99325,0.72,-0.48,-0.02,27130.0,17230.0,-33920.0
32.7588599,35.0228493,478.1,-0.05725,0.01925,1.0095,-0.32,-0.58,0.0,27120.0,17280.0,-33920.0
32.7588599,35.0228493,478.1,-0.06675,0.021,0.994,-1.0,-0.12,-0.08,27160.0,17400.0,-33930.0
32.7588599,35.0228493,478.1,-0.0755,0.03725,0.98075,0.02,0.78,0.08,27220.0,17440.0,-33930.0
32.7588599,35.0228493,478.1,-0.07675,0.0335,0.99525,0.94,0.84,0.12,27210.0,17400.0,-33930.0
32.7588599,35.0228493,478.1,-0.07975,0.03075,1.00525,0.3,0.16,0.08,27180.0,17300.0,-33920.0
32.7588599,35.0228493,478.1,-0.082,0.042,0.996,-0.62,-0.28,-0.06,27170.0,17320.0,-33920.0
32.7588599,35.0228493,478.1,-0.07,0.033,0.988,-0.5,-0.66,-0.04,27200.0,17390.0,-33920.0
32.7588599,35.0228493,478.1,-0.05775,0.01275,0.9935,0.06,-0.46,-0.06,27170.0,17390.0,-33930.0
32.7588599,35.0228493,478.1,-0.061,0.02625,0.99475,0.28,-0.22,-0.02,27160.0,17410.0,-33930.0
32.7588599,35.0228493,478.1,-0.07175,0.0485,0.99525,0.36,0.48,0.04,27140.0,17300.0,-33920.0
32.7588599,35.0228493,478.1,-0.076,0.03225,1.00075,-0.06,0.72,0.06,27180.0,17290.0,-33920.0
32.7588599,35.0228493,478.1,-0.07825,0.01075,1.0025,-0.56,0.32,0.06,27200.0,17260.0,-33920.0
32.7588599,35.0228493,478.1,-0.08275,0.03,0.98925,-0.24,-0.08,-0.04,27170.0,17220.0,-33920.0
32.7588599,35.0228493,478.1,-0.07425,0.04925,0.9865,0.76,-0.36,0.0,27130.0,17180.0,-33920.0
32.7588599,35.0228493,478.1,-0.0595,0.0325,1.0045,0.46,-0.64,-0.02,27180.0,17150.0,-33920.0
32.7588599,35.0228493,478.1,-0.0595,0.019,1.0055,-0.72,-0.5,-0.04,27210.0,17140.0,-33910.0
32.7588599,35.0228493,478.1,-0.0705,0.0325,0.98925,-0.64,0.3,0.0,27150.0,17130.0,-33920.0
32.7588599,35.0228493,478.1,-0.07475,0.0365,0.98825,0.58,0.92,0.1,27160.0,17170.0,-33920.0
32.7588599,35.0228493,478.1,-0.07575,0.02725,1.006,0.72,0.46,0.14,27200.0,17210.0,-33920.0
32.7588599,35.0228493,478.1,-0.08,0.036,1.00225,-0.18,-0.16,0.0,27170.0,17230.0,-33920.0
32.7588599,35.0228493,478.1,-0.077,0.044,0.99175,-0.5,-0.4,-0.04,27190.0,17280.0,-33920.0
32.7588599,35.0228493,478.1,-0.0615,0.02575,0.9905,-0.24,-0.58,-0.06,27190.0,17350.0,-33920.0
32.7588599,35.0228493,478.1,-0.0575,0.0165,0.99625,0.14,-0.36,-0.04,27170.0,17320.0,-33920.0
32.7588599,35.0228493,478.1,-0.06675,0.03975,0.99475,0.24,0.16,0.04,27190.0,17240.0,-33920.0
32.7588599,35.0228493,478.1,-0.0745,0.0455,0.99575,0.22,0.68,0.04,27210.0,17190.0,-33920.0
32.7588599,35.0228493,478.1,-0.075,0.02025,1.005,-0.22,0.48,0.08,27180.0,17130.0,-33920.0
32.7588599,35.0228493,478.1,-0.0775,0.019,0.99775,-0.4,-0.08,0.0,27140.0,17130.0,-33920.0
32.7588599,35.0228493,478.1,-0.07625,0.04875,0.985,0.34,-0.28,-0.02,27160.0,17090.0,-33920.0
32.7588599,35.0228493,478.1,-0.06375,0.049,0.9945,0.76,-0.44,0.0,27150.0,17080.0,-33920.0
32.7588599,35.0228493,478.1,-0.05625,0.02225,1.00975,-0.18,-0.52,0.0,27160.0,17060.0,-33920.0
32.7588599,35.0228493,478.1,-0.06575,0.02175,0.99675,-0.98,0.0,-0.08,27190.0,17140.0,-33920.0
32.7588599,35.0228493,478.1,-0.07525,0.03775,0.98425,-0.12,0.7,0.04,27200.0,17150.0,-33920.0
32.7588599,35.0228493,478.1,-0.07575,0.0335,0.99375,0.88,0.86,0.1,27180.0,17110.0,-33920.0
32.7588599,35.0228493,478.1,-0.078,0.0285,1.0065,0.32,0.02,0.1,27180.0,17080.0,-33920.0
32.7588599,35.0228493,478.1,-0.081,0.04125,0.99725,-0.6,-0.36,0.0,27170.0,17060.0,-33920.0
32.7588599,35.0228493,478.1,-0.071,0.03425,0.987,-0.5,-0.52,-0.02,27120.0,17090.0,-33920.0
32.7588599,35.0228493,478.1,-0.05825,0.0115,0.9945,-0.06,-0.38,-0.02,27140.0,17140.0,-33920.0
32.7588599,35.0228493,478.1,-0.06225,0.02225,0.99475,0.26,-0.18,-0.02,27160.0,17170.0,-33920.0
32.7588599,35.0228493,478.1,-0.0725,0.047,0.99225,0.32,0.44,0.04,27180.0,17150.0,-33920.0
32.7588599,35.0228493,478.1,-0.07525,0.0325,1.0005,0.02,0.64,0.08,27180.0,17170.0,-33920.0
32.7588599,35.0228493,478.11,-0.0785,0.011,1.00375,-0.44,0.24,0.12,27160.0,17210.0,-33920.0
32.7588599,35.0228493,478.11,-0.083,0.03075,0.98825,-0.2,-0.1,-0.04,27150.0,17280.0,-33930.0
32.7588599,35.0228493,478.11,-0.075,0.05075,0.986,0.7,-0.3,-0.04,27130.0,17180.0,-33920.0
32.7588599,35.0228493,478.11,-0.06075,0.033,1.0035,0.42,-0.62,0.0,27160.0,17130.0,-33920.0
32.7588599,35.0228493,478.11,-0.061,0.01825,1.0055,-0.68,-0.6,-0.04,27120.0,17100.0,-33920.0
32.7588599,35.0228493,478.11,-0.07225,0.03375,0.988,-0.64,0.34,-0.08,27140.0,17110.0,-33920.0
32.7588599,35.0228493,478.11,-0.0755,0.03925,0.98675,0.52,0.88,0.1,27180.0,17170.0,-33920.0
32.7588599,35.0228493,478.11,-0.076,0.0295,1.00475,0.68,0.54,0.12,27200.0,17230.0,-33920.0
32.7588599,35.0228493,478.11,-0.08125,0.037,1.004,-0.22,-0.16,0.02,27220.0,17270.0,-33920.0
32.7588599,35.0228493,478.11,-0.07725,0.043,0.99125,-0.64,-0.44,-0.1,27190.0,17250.0,-33920.0
32.7588599,35.0228493,478.11,-0.06175,0.0245,0.991,-0.14,-0.62,-0.08,27160.0,17230.0,-33920.0
32.7588599,35.0228493,478.11,-0.05725,0.0175,0.9965,0.16,-0.42,-0.12,27180.0,17260.0,-33920.0
32.7588599,35.0228493,478.11,-0.0665,0.042,0.9945,0.28,0.14,0.0,27170.0,17170.0,-33920.0
32.7588599,35.0228493,478.11,-0.0725,0.04475,0.99625,0.18,0.7,-0.04,27140.0,17140.0,-33920.0
32.7588599,35.0228493,478.11,-0.074,0.018,1.005,-0.36,0.48,0.08,27100.0,17070.0,-33920.0
32.7588599,35.0228493,478.11,-0.079,0.02125,0.9955,-0.44,0.02,-0.06,27120.0,17050.0,-33920.0
32.7588599,35.0228493,478.11,-0.0775,0.0485,0.986,0.4,-0.22,-0.02,27150.0,17110.0,-33920.0
32.7588599,35.0228493,478.11,-0.064,0.0445,0.995,0.7,-0.46,0.0,27150.0,17130.0,-33920.0
32.7588599,35.0228493,478.11,-0.05625,0.021,1.009,-0.36,-0.58,-0.12,27140.0,17100.0,-33920.0
32.7588599,35.0228493,478.11,-0.0645,0.02725,0.99525,-0.86,-0.08,-0.02,27120.0,17060.0,-33920.0
32.7588599,35.0228493,478.1,-0.07175,0.0405,0.9825,0.02,0.78,0.02,27140.0,17120.0,-33920.0
32.7588599,35.0228493,478.1,-0.07425,0.031,0.99825,0.82,0.72,0.08,27200.0,17240.0,-33920.0
32.7588599,35.0228493,478.1,-0.08025,0.0295,1.00675,0.12,0.22,0.04,27210.0,17220.0,-33920.0
32.7588599,35.0228493,478.1,-0.084,0.041,0.99425,-0.66,-0.1,0.02,27180.0,17170.0,-33920.0
32.7588599,35.0228493,478.1,-0.07125,0.03075,0.98725,-0.36,-0.44,-0.02,27140.0,17130.0,-33920.0
32.7588599,35.0228493,478.1,-0.05925,0.01275,0.99525,0.08,-0.54,-0.06,27150.0,17130.0,-33920.0
32.7588599,35.0228493,478.1,-0.0625,0.0285,0.99325,0.14,-0.28,-0.04,27110.0,17090.0,-33920.0
32.7588599,35.0228493,478.1,-0.07025,0.045,0.9955,0.22,0.46,0.06,27130.0,17080.0,-33920.0
32.7588599,35.0228493,478.1,-0.073,0.024,1.002,-0.14,0.54,0.06,27190.0,17010.0,-33910.0
32.7588599,35.0228493,478.1,-0.07875,0.01175,0.9995,-0.48,0.38,0.02,27230.0,16780.0,-33910.0
32.7588599,35.0228493,478.1,-0.08425,0.0365,0.9885,0.06,0.04,-0.08,27280.0,16740.0,-33910.0
32.7588599,35.0228493,478.1,-0.07425,0.04825,0.9875,0.8,-0.34,0.02,27340.0,16690.0,-33900.0
32.7588599,35.0228493,478.1,-0.06075,0.025,1.007,0.18,-0.7,-0.14,27340.0,16660.0,-33900.0
32.7588599,35.0228493,478.1,-0.062,0.0195,1.00125,-0.84,-0.56,-0.02,27330.0,16590.0,-33900.0
32.7588599,35.0228493,478.1,-0.0705,0.0365,0.98525,-0.3,0.4,-0.02,27330.0,16560.0,-33900.0
32.7588599,35.0228493,478.1,-0.07225,0.0355,0.99275,0.74,0.76,0.1,27300.0,16520.0,-33900.0
32.7588599,35.0228493,478.1,-0.07625,0.0285,1.0055,0.52,0.42,0.12,27300.0,16750.0,-33910.0
32.7588599,35.0228493,478.1,-0.08225,0.04,1.00075,-0.38,-0.1,0.0,27270.0,17040.0,-33910.0
32.7588599,35.0228493,478.1,-0.076,0.0395,0.99075,-0.52,-0.34,-0.04,27200.0,17090.0,-33920.0
32.7588599,35.0228493,478.1,-0.061,0.0195,0.99325,-0.08,-0.7,0.0,27220.0,17130.0,-33910.0
32.7588599,35.0228493,478.11,-0.05925,0.023,0.99725,0.28,-0.42,-0.04,27240.0,17200.0,-33920.0
32.7588599,35.0228493,478.11,-0.06725,0.04725,0.9965,0.28,0.22,0.0,27270.0,17330.0,-33920.0
32.7588599,35.0228493,478.11,-0.07125,0.0375,0.9995,0.04,0.7,0.08,27180.0,17270.0,-33920.0
32.7588599,35.0228493,478.11,-0.074,0.01375,1.006,-0.48,0.4,0.06,27140.0,17220.0,-33920.0
32.7588599,35.0228493,478.11,-0.08025,0.02925,0.99075,-0.32,0.12,-0.02,27170.0,17170.0,-33920.0
32.7588599,35.0228493,478.11,-0.0755,0.053,0.985,0.68,-0.2,0.06,27160.0,17180.0,-33920.0
32.7588599,35.0228493,478.11,-0.062,0.039,1.0005,0.58,-0.58,-0.02,27170.0,17170.0,-33920.0
32.7588599,35.0228493,478.11,-0.05975,0.02,1.0065,-0.62,-0.52,-0.06,27200.0,17280.0,-33920.0
32.7588599,35.0228493,478.11,-0.071,0.03075,0.989,-0.78,0.2,-0.04,27200.0,17360.0,-33920.0
32.7588599,35.0228493,478.11,-0.07575,0.039,0.98325,0.36,0.88,0.06,27260.0,17380.0,-33920.0
32.7588599,35.0228493,478.11,-0.077,0.03125,0.99925,0.84,0.62,0.14,27300.0,17410.0,-33920.0
32.7588599,35.0228493,478.11,-0.0825,0.03725,1.0045,-0.08,-0.12,0.06,27230.0,17400.0,-33920.0
32.7588599,35.0228493,478.11,-0.08025,0.0435,0.994,-0.64,-0.46,-0.14,27220.0,17320.0,-33920.0
32.7588599,35.0228493,478.11,-0.065,0.0245,0.98975,-0.36,-0.62,-0.02,27220.0,17230.0,-33920.0
32.7588599,35.0228493,478.11,-0.05725,0.01475,0.99575,0.12,-0.44,-0.1,27220.0,17180.0,-33920.0
32.7588599,35.0228493,478.11,-0.0645,0.039,0.99225,0.34,0.04,-0.04,27210.0,17130.0,-33910.0
32.7588599,35.0228493,478.11,-0.0715,0.04475,0.99675,0.3,0.62,0.1,27210.0,17160.0,-33910.0
32.7588599,35.0228493,478.11,-0.0745,0.0175,1.00625,-0.44,0.5,0.06,27160.0,17170.0,-33920.0
32.7588599,35.0228493,478.11,-0.08125,0.015,0.99625,-0.62,0.26,0.02,27170.0,17170.0,-33920.0
32.7588599,35.0228493,478.11,-0.08275,0.042,0.98475,0.3,-0.02,0.06,27170.0,17140.0,-33920.0
32.7588599,35.0228493,478.11,-0.0685,0.0445,0.993,0.86,-0.46,-0.02,27140.0,17200.0,-33920.0
32.7588599,35.0228493,478.1,-0.05725,0.0215,1.009,-0.08,-0.78,-0.02,27160.0,17330.0,-33930.0
32.7588599,35.0228493,478.1,-0.06225,0.024,0.9975,-0.94,-0.38,-0.08,27190.0,17410.0,-33930.0
32.7588599,35.0228493,478.1,-0.0695,0.0365,0.9835,-0.22,0.62,-0.08,27160.0,17330.0,-33930.0
32.7588599,35.0228493,478.1,-0.072,0.0295,0.995,0.9,0.8,0.14,27150.0,17240.0,-33920.0
32.7588599,35.0228493,478.1,-0.0795,0.03075,1.00625,0.4,0.38,0.08,27130.0,17150.0,-33920.0
32.7588599,35.0228493,478.1,-0.08475,0.04425,0.998,-0.36,-0.04,-0.02,27130.0,17150.0,-33920.0
32.7588599,35.0228493,478.1,-0.07375,0.0335,0.98925,-0.54,-0.42,-0.06,27130.0,17130.0,-33920.0
32.7588599,35.0228493,478.1,-0.0605,0.014,0.994,-0.16,-0.72,-0.02,27130.0,17150.0,-33920.0
32.7588599,35.0228493,478.1,-0.0615,0.02825,0.992,0.26,-0.44,-0.08,27110.0,17110.0,-33920.0
32.7588599,35.0228493,478.1,-0.06875,0.04675,0.99575,0.4,0.4,0.08,27120.0,17160.0,-33920.0
32.7588599,35.0228493,478.1,-0.07175,0.02675,1.00475,-0.02,0.66,0.06,27140.0,17160.0,-33920.0
32.7588599,35.0228493,478.1,-0.0765,0.012,1.001,-0.68,0.38,0.06,27160.0,17110.0,-33920.0
32.7588599,35.0228493,478.1,-0.08275,0.03525,0.98725,-0.06,0.1,-0.02,27140.0,17130.0,-33920.0
32.7588599,35.0228493,478.1,-0.07375,0.04925,0.98575,0.9,-0.3,0.04,27100.0,17110.0,-33920.0
32.7588599,35.0228493,478.1,-0.0605,0.02825,1.00425,0.36,-0.68,-0.04,27110.0,17130.0,-33920.0
32.7588599,35.0228493,478.1,-0.06225,0.02,1.0045,-0.78,-0.62,-0.08,27120.0,17110.0,-33920.0
32.7588599,35.0228493,478.1,-0.07225,0.03425,0.98575,-0.58,0.42,-0.06,27150.0,17180.0,-33920.0
32.7588599,35.0228493,478.1,-0.074,0.034,0.987,0.64,0.94,0.14,27160.0,17210.0,-33920.0
32.7588599,35.0228493,478.1,-0.077,0.02975,1.0055,0.64,0.46,0.06,27100.0,17210.0,-33920.0
32.7588599,35.0228493,478.1,-0.08175,0.043,1.00025,-0.22,-0.22,0.02,27130.0,17240.0,-33920.0
32.7588599,35.0228493,478.1,-0.07425,0.042,0.992,-0.56,-0.46,0.02,27190.0,17310.0,-33920.0
32.7588599,35.0228493,478.1,-0.05925,0.01925,0.9935,-0.3,-0.68,-0.08,27150.0,17210.0,-33920.0
32.7588599,35.0228493,478.1,-0.05775,0.02,0.99275,0.1,-0.36,-0.02,27150.0,17190.0,-33920.0
32.7588599,35.0228493,478.1,-0.068,0.04525,0.9955,0.4,0.24,0.02,27130.0,17210.0,-33920.0
32.7588599,35.0228493,478.1,-0.07325,0.038,0.999,0.22,0.8,0.1,27100.0,17140.0,-33920.0
32.7588599,35.0228493,478.1,-0.07675,0.01375,1.00675,-0.54,0.44,0.14,27130.0,17100.0,-33920.0
32.7588599,35.0228493,478.1,-0.08175,0.0255,0.994,-0.54,-0.02,0.0,27180.0,17100.0,-33920.0
32.7588599,35.0228493,478.1,-0.0755,0.04875,0.98525,0.6,-0.3,0.04,27200.0,17210.0,-33920.0
32.7588599,35.0228493,478.1,-0.06,0.037,1.00175,0.72,-0.64,0.02,27170.0,17280.0,-33920.0
32.7588599,35.0228493,478.1,-0.05675,0.021,1.0105,-0.46,-0.58,-0.1,27180.0,17330.0,-33930.0
32.7588599,35.0228493,478.1,-0.06775,0.03225,0.99125,-0.8,0.14,-0.02,27170.0,17380.0,-33930.0
32.7588599,35.0228493,478.1,-0.07375,0.038,0.98625,0.26,0.94,0.08,27200.0,17340.0,-33930.0
32.7588599,35.0228493,478.1,-0.078,0.02925,1.00025,0.76,0.74,0.14,27180.0,17240.0,-33920.0
32.7588599,35.0228493,478.1,-0.0855,0.037,1.0025,0.06,0.1,0.04,27130.0,17170.0,-33920.0
32.7588599,35.0228493,478.1,-0.084,0.04575,0.9925,-0.56,-0.32,-0.04,27130.0,17160.0,-33920.0
32.7588599,35.0228493,478.1,-0.06725,0.02875,0.98875,-0.3,-0.68,-0.06,27160.0,17170.0,-33920.0
32.7588599,35.0228493,478.1,-0.0585,0.0175,0.9935,-0.08,-0.64,-0.04,27180.0,17200.0,-33920.0
32.7588599,35.0228493,478.1,-0.06525,0.0395,0.99125,0.24,-0.12,-0.08,27150.0,17180.0,-33920.0
32.7588599,35.0228493,478.1,-0.0705,0.04525,0.99475,0.32,0.62,0.06,27160.0,17200.0,-33920.0
32.7588599,35.0228493,478.1,-0.07425,0.02,1.0065,-0.26,0.56,0.08,27160.0,17260.0,-33920.0
32.7588599,35.0228493,478.1,-0.08125,0.018,0.9955,-0.6,0.28,0.02,27190.0,17360.0,-33930.0
32.7588599,35.0228493,478.1,-0.08125,0.04425,0.984,0.24,-0.1,-0.02,27190.0,17350.0,-33930.0
32.7588599,35.0228493,478.1,-0.06675,0.045,0.99275,0.78,-0.6,0.02,27170.0,17250.0,-33920.0
32.7588599,35.0228493,478.1,-0.0565,0.0215,1.00775,-0.16,-0.86,-0.06,27110.0,17180.0,-33920.0
32.7588599,35.0228493,478.1,-0.06275,0.02275,0.99825,-0.9,-0.28,-0.08,27120.0,17200.0,-33920.0
32.7588599,35.0228493,478.1,-0.07025,0.03475,0.98575,-0.22,0.74,0.02,27140.0,17140.0,-33920.0
32.7588599,35.0228493,478.1,-0.07275,0.02825,0.99475,0.76,0.9,0.16,27120.0,17140.0,-33920.0
32.7588599,35.0228493,478.1,-0.0785,0.02875,1.0055,0.38,0.32,0.04,27120.0,17140.0,-33920.0
32.7588599,35.0228493,478.1,-0.0815,0.04325,0.99875,-0.4,-0.26,-0.02,27160.0,17170.0,-33920.0
32.7588599,35.0228493,478.1,-0.0705,0.03425,0.9905,-0.44,-0.54,0.0,27160.0,17230.0,-33920.0
32.7588599,35.0228493,478.1,-0.058,0.012,0.9965,-0.1,-0.66,-0.04,27180.0,17310.0,-33920.0
32.7588599,35.0228493,478.1,-0.0615,0.02475,0.99325,0.14,-0.18,-0.04,27160.0,17230.0,-33920.0
32.7588599,35.0228493,478.1,-0.07,0.04525,0.994,0.44,0.46,0.06,27150.0,17170.0,-33920.0
32.7588599,35.0228493,478.1,-0.07425,0.02925,1.002,0.08,0.84,0.06,27160.0,17130.0,-33920.0
32.7588599,35.0228493,478.1,-0.07925,0.01275,1.003,-0.56,0.38,0.04,27190.0,17150.0,-33910.0
32.7588599,35.0228493,478.1,-0.0835,0.03325,0.989,-0.24,-0.06,-0.04,27220.0,17250.0,-33920.0
32.7588599,35.0228493,478.1,-0.07425,0.0485,0.98675,0.72,-0.38,0.04,27160.0,17320.0,-33920.0
32.7588599,35.0228493,478.1,-0.05975,0.0275,1.00475,0.36,-0.66,-0.06,27140.0,17250.0,-33920.0
32.7588599,35.0228493,478.1,-0.061,0.01975,1.00425,-0.64,-0.52,-0.1,27170.0,17180.0,-33920.0
32.7588599,35.0228493,478.11,-0.07125,0.036,0.9875,-0.46,0.42,-0.06,27210.0,17230.0,-33920.0
32.7588599,35.0228493,478.11,-0.07475,0.0365,0.9885,0.6,0.88,0.16,27240.0,17320.0,-33920.0
32.7588599,35.0228493,478.11,-0.07775,0.0275,1.005,0.6,0.48,0.06,27190.0,17240.0,-33920.0
32.7588599,35.0228493,478.11,-0.083,0.0395,1.00075,-0.22,-0.12,0.0,27140.0,17230.0,-33920.0
32.7588599,35.0228493,478.11,-0.0775,0.04375,0.99025,-0.5,-0.42,0.0,27150.0,17200.0,-33920.0
32.7588599,35.0228493,478.11,-0.062,0.023,0.99375,-0.1,-0.72,-0.04,27190.0,17200.0,-33920.0
32.7588599,35.0228493,478.11,-0.058,0.0195,0.99375,0.1,-0.42,-0.02,27130.0,17200.0,-33920.0
32.7588599,35.0228493,478.11,-0.067,0.04325,0.99225,0.28,0.18,-0.06,27110.0,17170.0,-33920.0
32.7588599,35.0228493,478.11,-0.0725,0.041,0.99725,0.18,0.78,0.1,27150.0,17160.0,-33920.0
32.7588599,35.0228493,478.11,-0.0755,0.0165,1.00375,-0.34,0.5,0.02,27200.0,17250.0,-33920.0
32.7588599,35.0228493,478.11,-0.081,0.0225,0.994,-0.38,0.0,-0.02,27230.0,17340.0,-33920.0
32.7588599,35.0228493,478.11,-0.079,0.0485,0.98525,0.36,-0.24,-0.02,27240.0,17420.0,-33920.0
32.7588599,35.0228493,478.11,-0.064,0.042,0.995,0.66,-0.52,0.06,27210.0,17420.0,-33930.0
32.7588599,35.0228493,478.11,-0.05725,0.01975,1.00975,-0.34,-0.68,-0.04,27220.0,17400.0,-33930.0
32.7588599,35.0228493,478.11,-0.066,0.02875,0.99375,-0.86,-0.18,-0.02,27220.0,17300.0,-33920.0
32.7588599,35.0228493,478.11,-0.07225,0.0415,0.98475,0.14,0.8,0.06,27180.0,17200.0,-33920.0
32.7588599,35.0228493,478.11,-0.0745,0.03225,1.00175,0.8,0.74,0.14,27210.0,17060.0,-33920.0
32.7588599,35.0228493,478.11,-0.08,0.032,1.0065,0.06,0.16,0.0,27290.0,16840.0,-33910.0
32.7588599,35.0228493,478.11,-0.0825,0.0445,0.99475,-0.6,-0.24,0.0,27340.0,16700.0,-33900.0
32.7588599,35.0228493,478.11,-0.0695,0.0335,0.99,-0.36,-0.52,0.02,27340.0,16610.0,-33900.0
32.7588599,35.0228493,478.11,-0.058,0.0155,0.9965,0.06,-0.56,0.0,27360.0,16610.0,-33900.0
32.7588599,35.0228493,478.1,-0.063,0.0315,0.99525,0.12,-0.18,-0.08,27380.0,16710.0,-33910.0
32.7588599,35.0228493,478.1,-0.07125,0.04675,0.995,0.2,0.54,0.0,27370.0,16680.0,-33900.0
32.7588599,35.0228493,478.1,-0.07425,0.02475,1.002,-0.08,0.72,0.06,27350.0,16600.0,-33900.0
32.7588599,35.0228493,478.1,-0.0785,0.012,1.00125,-0.52,0.3,0.06,27280.0,16740.0,-33910.0
32.7588599,35.0228493,478.1,-0.08275,0.03775,0.98625,0.04,-0.08,-0.04,27190.0,16890.0,-33910.0
32.7588599,35.0228493,478.1,-0.07175,0.04825,0.987,0.68,-0.44,-0.02,27170.0,16990.0,-33910.0
32.7588599,35.0228493,478.1,-0.05825,0.02325,1.00675,0.1,-0.74,-0.12,27150.0,17020.0,-33910.0
32.7588599,35.0228493,478.1,-0.06225,0.01825,0.99925,-0.88,-0.4,-0.06,27150.0,17040.0,-33920.0
32.7588599,35.0228493,478.1,-0.07225,0.03575,0.98425,-0.34,0.5,-0.02,27150.0,17050.0,-33920.0
32.7588599,35.0228493,478.1,-0.0745,0.0345,0.9925,0.72,0.92,0.14,27160.0,17100.0,-33920.0
32.7588599,35.0228493,478.1,-0.0775,0.02675,1.00525,0.56,0.36,0.1,27120.0,17110.0,-33920.0
32.7588599,35.0228493,478.1,-0.082,0.038,1.0,-0.52,-0.2,0.0,27130.0,17110.0,-33920.0
32.7588599,35.0228493,478.1,-0.075,0.03875,0.98925,-0.48,-0.46,0.0,27170.0,17080.0,-33920.0
32.7588599,35.0228493,478.1,-0.0595,0.01825,0.99275,-0.02,-0.56,-0.02,27120.0,17040.0,-33920.0
32.7588599,35.0228493,478.1,-0.0585,0.021,0.9965,0.22,-0.38,0.02,27100.0,17030.0,-33920.0
32.7588599,35.0228493,478.1,-0.0695,0.044,0.99475,0.26,0.28,-0.02,27130.0,17080.0,-33920.0
32.7588599,35.0228493,478.1,-0.07475,0.036,0.99775,0.12,0.82,0.08,27130.0,17140.0,-33920.0
32.7588599,35.0228493,478.1,-0.0765,0.0135,1.004,-0.38,0.38,0.06,27150.0,17090.0,-33920.0
32.7588599,35.0228493,478.1,-0.081,0.02675,0.99125,-0.28,0.0,-0.02,27150.0,17080.0,-33920.0
32.7588599,35.0228493,478.1,-0.0765,0.05175,0.98675,0.64,-0.3,-0.02,27130.0,17130.0,-33920.0
32.7588599,35.0228493,478.11,-0.0615,0.0385,1.0,0.54,-0.62,-0.08,27120.0,17280.0,-33930.0
32.7588599,35.0228493,478.11,-0.05775,0.01775,1.00725,-0.6,-0.56,-0.02,27170.0,17330.0,-33930.0
32.7588599,35.0228493,478.11,-0.0685,0.03025,0.99025,-0.72,0.14,0.02,27170.0,17330.0,-33930.0
32.7588599,35.0228493,478.11,-0.0745,0.042,0.98425,0.4,0.88,0.06,27160.0,17310.0,-33930.0
32.7588599,35.0228493,478.11,-0.076,0.03275,1.0025,0.84,0.68,0.12,27160.0,17290.0,-33930.0
32.7588599,35.0228493,478.11,-0.0815,0.033,1.006,-0.14,0.02,0.04,27150.0,17310.0,-33930.0
32.7588599,35.0228493,478.11,-0.082,0.0425,0.9925,-0.74,-0.32,-0.04,27120.0,17310.0,-33930.0
32.7588599,35.0228493,478.11,-0.067,0.02925,0.98775,-0.22,-0.58,0.0,27110.0,17270.0,-33930.0
32.7588599,35.0228493,478.11,-0.05675,0.0175,0.996,0.24,-0.44,-0.06,27110.0,17180.0,-33920.0
32.7588599,35.0228493,478.11,-0.063,0.03725,0.9955,0.28,-0.2,0.02,27150.0,17270.0,-33920.0
32.7588599,35.0228493,478.11,-0.07225,0.047,0.9965,0.08,0.56,0.06,27180.0,17280.0,-33920.0
32.7588599,35.0228493,478.11,-0.07425,0.021,1.0035,-0.24,0.58,0.08,27220.0,17280.0,-33920.0
32.7588599,35.0228493,478.11,-0.07825,0.01325,0.99775,-0.48,0.24,0.08,27190.0,17330.0,-33920.0
32.7588599,35.0228493,478.11,-0.08175,0.04275,0.98575,0.34,-0.14,0.02,27170.0,17280.0,-33920.0
32.7588599,35.0228493,478.11,-0.0695,0.05175,0.99125,0.82,-0.46,0.02,27180.0,17210.0,-33920.0
32.7588599,35.0228493,478.11,-0.057,0.0245,1.00875,-0.1,-0.72,-0.04,27170.0,17150.0,-33920.0
32.7588599,35.0228493,478.11,-0.06175,0.0185,0.99925,-0.9,-0.36,-0.08,27190.0,17160.0,-33920.0
32.7588599,35.0228493,478.11,-0.072,0.0365,0.9835,-0.3,0.56,-0.04,27170.0,17190.0,-33920.0
32.7588599,35.0228493,478.11,-0.0745,0.037,0.992,0.92,0.94,0.18,27140.0,17160.0,-33920.0
32.7588599,35.0228493,478.11,-0.07775,0.03,1.00825,0.56,0.38,0.1,27140.0,17230.0,-33920.0
32.7588599,35.0228493,478.11,-0.08275,0.04025,1.0005,-0.62,-0.22,0.02,27170.0,17320.0,-33920.0
32.7588599,35.0228493,478.11,-0.075,0.03675,0.9885,-0.72,-0.54,-0.04,27140.0,17240.0,-33920.0
32.7588599,35.0228493,478.11,-0.05925,0.016,0.9935,0.0,-0.56,-0.04,27120.0,17190.0,-33920.0
32.7588599,35.0228493,478.11,-0.0585,0.02125,0.995,0.3,-0.3,-0.1,27150.0,17240.0,-33920.0
32.7588599,35.0228493,478.11,-0.069,0.04625,0.9965,0.3,0.3,0.02,27160.0,17190.0,-33920.0
32.7588599,35.0228493,478.11,-0.0745,0.0365,0.99925,0.02,0.76,0.0,27180.0,17140.0,-33920.0
32.7588599,35.0228493,478.11,-0.07675,0.01075,1.0035,-0.58,0.42,0.08,27170.0,17120.0,-33920.0
32.7588599,35.0228493,478.11,-0.08275,0.023,0.99125,-0.22,0.02,-0.06,27130.0,17180.0,-33920.0
32.7588599,35.0228493,478.11,-0.0785,0.05,0.98525,0.78,-0.2,0.04,27130.0,17210.0,-33920.0
32.7588599,35.0228493,478.11,-0.06275,0.03675,1.00025,0.62,-0.62,-0.02,27170.0,17240.0,-33920.0
32.7588599,35.0228493,478.11,-0.058,0.01625,1.00875,-0.56,-0.64,-0.08,27190.0,17260.0,-33920.0
32.7588599,35.0228493,478.11,-0.06725,0.0275,0.98825,-0.84,0.04,-0.12,27120.0,17220.0,-33920.0
32.7588599,35.0228493,478.11,-0.07275,0.03925,0.98375,0.46,0.88,0.08,27120.0,17200.0,-33920.0
32.7588599,35.0228493,478.11,-0.07425,0.03075,1.002,0.98,0.74,0.16,27160.0,17180.0,-33920.0
32.7588599,35.0228493,478.11,-0.08,0.032,1.0055,-0.08,-0.02,0.06,27180.0,17200.0,-33920.0
32.7588599,35.0228493,478.11,-0.08125,0.041,0.9925,-0.72,-0.3,-0.02,27210.0,17240.0,-33920.0
32.7588599,35.0228493,478.11,-0.06725,0.02825,0.98725,-0.26,-0.56,0.02,27200.0,17290.0,-33920.0
32.7588599,35.0228493,478.11,-0.05775,0.01625,0.99475,0.38,-0.46,-0.02,27180.0,17340.0,-33920.0
32.7588599,35.0228493,478.11,-0.06375,0.03725,0.99575,0.34,-0.16,0.0,27180.0,17340.0,-33920.0
32.7588599,35.0228493,478.11,-0.07325,0.0485,0.99725,0.2,0.58,0.0,27220.0,17350.0,-33920.0
32.7588599,35.0228493,478.1,-0.0735,0.02225,1.004,-0.36,0.6,0.1,27200.0,17410.0,-33930.0
32.7588599,35.0228493,478.1,-0.07675,0.01275,0.99825,-0.54,0.16,0.06,27200.0,17330.0,-33920.0
32.7588599,35.0228493,478.1,-0.0795,0.043,0.985,0.28,-0.16,0.0,27210.0,17260.0,-33920.0
32.7588599,35.0228493,478.1,-0.06875,0.05375,0.991,0.92,-0.38,-0.02,27180.0,17220.0,-33920.0
32.7588599,35.0228493,478.1,-0.0575,0.0265,1.01025,-0.04,-0.68,-0.04,27160.0,17210.0,-33920.0
32.7588599,35.0228493,478.1,-0.06275,0.018,1.0,-1.08,-0.32,-0.06,27160.0,17190.0,-33920.0
32.7588599,35.0228493,478.1,-0.0735,0.03575,0.983,-0.42,0.62,0.02,27130.0,17160.0,-33920.0
32.7588599,35.0228493,478.1,-0.07575,0.038,0.99075,0.96,0.9,0.06,27160.0,17170.0,-33920.0
32.7588599,35.0228493,478.1,-0.078,0.031,1.007,0.64,0.34,0.08,27170.0,17170.0,-33920.0
32.7588599,35.0228493,478.1,-0.08225,0.04025,1.00125,-0.56,-0.26,-0.06,27170.0,17250.0,-33920.0
32.7588599,35.0228493,478.1,-0.07575,0.03825,0.9885,-0.8,-0.48,-0.06,27200.0,17350.0,-33920.0
32.7588599,35.0228493,478.1,-0.06075,0.01725,0.99125,0.04,-0.44,-0.04,27210.0,17370.0,-33920.0
32.7588599,35.0228493,478.1,-0.05925,0.0215,0.99575,0.44,-0.3,0.02,27190.0,17370.0,-33920.0
32.7588599,35.0228493,478.1,-0.06925,0.04725,0.99575,0.32,0.2,0.06,27200.0,17360.0,-33920.0
32.7588599,35.0228493,478.1,-0.075,0.039,0.9995,-0.02,0.66,0.0,27200.0,17350.0,-33920.0
32.7588599,35.0228493,478.1,-0.07625,0.01125,1.00425,-0.54,0.34,0.04,27180.0,17330.0,-33920.0
32.7588599,35.0228493,478.1,-0.08075,0.02175,0.989,-0.34,0.06,0.0,27180.0,17290.0,-33920.0
32.7588599,35.0228493,478.1,-0.07725,0.0515,0.98525,0.68,-0.22,-0.08,27160.0,17220.0,-33920.0
32.7588599,35.0228493,478.1,-0.063,0.042,1.0005,0.7,-0.52,0.02,27140.0,17160.0,-33920.0
32.7588599,35.0228493,478.11,-0.05775,0.01625,1.009,-0.66,-0.64,-0.1,27150.0,17200.0,-33920.0
32.7588599,35.0228493,478.11,-0.068,0.02375,0.992,-1.04,0.0,-0.02,27160.0,17290.0,-33920.0
32.7588599,35.0228493,478.11,-0.07425,0.0385,0.98175,0.28,0.84,0.12,27150.0,17270.0,-33920.0
32.7588599,35.0228493,478.11,-0.07375,0.03275,0.99875,0.98,0.74,0.06,27090.0,17210.0,-33920.0
32.7588599,35.0228493,478.11,-0.07825,0.03275,1.00875,0.12,0.0,0.04,27110.0,17160.0,-33920.0
32.7588599,35.0228493,478.11,-0.08025,0.042,0.99475,-0.88,-0.32,-0.04,27110.0,17140.0,-33920.0
32.7588599,35.0228493,478.11,-0.067,0.02825,0.987,-0.5,-0.48,0.0,27100.0,17110.0,-33920.0
32.7588599,35.0228493,478.11,-0.05775,0.01275,0.996,0.22,-0.4,-0.02,27100.0,17090.0,-33920.0
32.7588599,35.0228493,478.11,-0.06375,0.033,0.9935,0.48,0.02,0.02,27110.0,17090.0,-33920.0
32.7588599,35.0228493,478.11,-0.07325,0.05,0.99775,0.24,0.54,-0.02,27110.0,17080.0,-33920.0
32.7588599,35.0228493,478.11,-0.07375,0.02575,1.00375,-0.32,0.5,0.08,27130.0,17120.0,-33920.0
32.7588599,35.0228493,478.11,-0.07575,0.00975,0.99975,-0.62,0.14,0.02,27120.0,17160.0,-33920.0
32.7588599,35.0228493,478.11,-0.0795,0.037,0.98575,0.14,-0.14,-0.02,27060.0,17110.0,-33920.0
32.7588599,35.0228493,478.11,-0.07075,0.05275,0.9895,0.9,-0.2,0.04,27080.0,17080.0,-33920.0
32.7588599,35.0228493,478.11,-0.05925,0.02875,1.007,0.22,-0.52,-0.02,27130.0,17100.0,-33920.0
32.7588599,35.0228493,478.11,-0.0635,0.0175,1.004,-1.02,-0.34,-0.14,27110.0,17080.0,-33920.0
32.7588599,35.0228493,478.11,-0.0745,0.0345,0.982,-0.52,0.52,0.06,27070.0,17140.0,-33920.0
32.7588599,35.0228493,478.11,-0.07575,0.03725,0.988,0.86,0.82,0.14,27110.0,17180.0,-33920.0
32.7588599,35.0228493,478.11,-0.077,0.02975,1.00725,0.78,0.4,0.06,27130.0,17170.0,-33920.0
32.7588599,35.0228493,478.11,-0.0815,0.03975,1.00175,-0.46,-0.3,-0.04,27130.0,17080.0,-33920.0
32.7588599,35.0228493,478.11,-0.07625,0.04025,0.98925,-0.82,-0.42,-0.06,27140.0,17090.0,-33920.0
32.7588599,35.0228493,478.11,-0.06125,0.0195,0.99075,-0.12,-0.46,-0.06,27160.0,17220.0,-33920.0
32.7588599,35.0228493,478.11,-0.05875,0.0205,0.99375,0.34,-0.36,-0.02,27160.0,17180.0,-33920.0
32.7588599,35.0228493,478.11,-0.069,0.0465,0.996,0.42,0.12,0.02,27150.0,17090.0,-33920.0
32.7588599,35.0228493,478.11,-0.07475,0.0425,0.99975,0.02,0.62,0.04,27160.0,16860.0,-33910.0
32.7588599,35.0228493,478.11,-0.0755,0.0135,1.00425,-0.58,0.36,0.12,27220.0,16670.0,-33910.0
32.7588599,35.0228493,478.11,-0.07925,0.02125,0.99275,-0.42,0.1,0.0,27270.0,16580.0,-33900.0
32.7588599,35.0228493,478.11,-0.07675,0.051,0.984,0.62,-0.18,0.0,27300.0,16540.0,-33900.0
32.7588599,35.0228493,478.11,-0.06225,0.04425,0.99725,0.72,-0.54,0.02,27300.0,16520.0,-33900.0
32.7588599,35.0228493,478.11,-0.057,0.01925,1.011,-0.52,-0.6,-0.1,27320.0,16480.0,-33900.0
32.7588599,35.0228493,478.11,-0.06725,0.025,0.99275,-1.0,-0.02,-0.06,27320.0,16550.0,-33900.0
32.7588599,35.0228493,478.11,-0.07475,0.037,0.98225,0.18,0.84,0.06,27270.0,16610.0,-33900.0
32.7588599,35.0228493,478.11,-0.07575,0.03075,0.99925,0.98,0.8,0.04,27220.0,16920.0,-33910.0
32.7588599,35.0228493,478.11,-0.0795,0.0325,1.00575,0.24,0.02,0.08,27200.0,17080.0,-33920.0
32.7588599,35.0228493,478.11,-0.081,0.04325,0.9955,-0.66,-0.38,-0.04,27160.0,17200.0,-33920.0
32.7588599,35.0228493,478.11,-0.067,0.03,0.98875,-0.54,-0.68,-0.04,27160.0,17250.0,-33920.0
32.7588599,35.0228493,478.11,-0.05625,0.0125,0.9945,0.04,-0.48,-0.06,27180.0,17220.0,-33920.0
32.7588599,35.0228493,478.11,-0.063,0.031,0.99425,0.42,0.0,-0.02,27140.0,17230.0,-33920.0
32.7588599,35.0228493,478.11,-0.073,0.049,0.99625,0.32,0.68,0.0,27120.0,17180.0,-33920.0
32.7588599,35.0228493,478.11,-0.0755,0.02625,1.00125,-0.2,0.6,0.04,27100.0,17150.0,-33920.0
32.7588599,35.0228493,478.11,-0.07925,0.01225,1.0015,-0.68,0.1,0.02,27070.0,17170.0,-33920.0
32.7588599,35.0228493,478.11,-0.08225,0.03675,0.98525,0.06,-0.1,-0.06,27110.0,17310.0,-33930.0
32.7588599,35.0228493,478.11,-0.071,0.04925,0.98875,0.78,-0.34,-0.04,27130.0,17390.0,-33930.0
32.7588599,35.0228493,478.11,-0.058,0.02625,1.0085,0.28,-0.6,0.02,27120.0,17370.0,-33930.0
32.7588599,35.0228493,478.11,-0.06125,0.02,1.001,-0.92,-0.4,-0.06,27130.0,17280.0,-33920.0
32.7588599,35.0228493,478.11,-0.07125,0.036,0.9855,-0.44,0.44,0.0,27120.0,17210.0,-33920.0
32.7588599,35.0228493,478.11,-0.0735,0.0355,0.99075,0.7,0.86,0.08,27110.0,17180.0,-33920.0
32.7588599,35.0228493,478.11,-0.07725,0.02725,1.0065,0.58,0.4,0.12,27110.0,17180.0,-33920.0
32.7588599,35.0228493,478.11,-0.083,0.0385,1.00325,-0.38,-0.12,0.0,27120.0,17210.0,-33920.0
32.7588599,35.0228493,478.11,-0.07675,0.0395,0.9885,-0.52,-0.38,-0.04,27080.0,17200.0,-33920.0
32.7588599,35.0228493,478.11,-0.06125,0.01875,0.9935,-0.04,-0.58,0.0,27040.0,17240.0,-33920.0
32.7588599,35.0228493,478.11,-0.059,0.02,0.996,0.24,-0.4,-0.06,27030.0,17280.0,-33930.0
32.7588599,35.0228493,478.11,-0.0675,0.04525,0.99425,0.32,0.16,-0.02,27070.0,17220.0,-33920.0
32.7588599,35.0228493,478.11,-0.07225,0.038,0.99925,0.04,0.68,0.04,27050.0,17260.0,-33920.0
32.7588599,35.0228493,478.11,-0.07525,0.013,1.00475,-0.4,0.48,0.1,27050.0,17230.0,-33920.0
32.7588599,35.0228493,478.11,-0.082,0.025,0.99175,-0.32,0.12,0.04,27060.0,17240.0,-33920.0
32.7588599,35.0228493,478.11,-0.07925,0.04975,0.985,0.56,-0.16,0.02,27070.0,17220.0,-33920.0
32.7588599,35.0228493,478.11,-0.06425,0.038,0.998,0.62,-0.5,-0.08,27130.0,17290.0,-33920.0
32.7588599,35.0228493,478.11,-0.05925,0.01875,1.007,-0.54,-0.72,-0.08,27130.0,17330.0,-33920.0
32.7588599,35.0228493,478.11,-0.0675,0.03025,0.99075,-0.82,-0.04,-0.08,27100.0,17360.0,-33930.0
32.7588599,35.0228493,478.11,-0.07275,0.03975,0.98375,0.36,0.72,0.08,27150.0,17390.0,-33920.0
32.7588599,35.0228493,478.11,-0.07375,0.029,1.002,0.8,0.66,0.14,27200.0,17430.0,-33920.0
32.7588599,35.0228493,478.11,-0.08025,0.03325,1.004,-0.02,0.12,0.08,27160.0,17350.0,-33920.0
32.7588599,35.0228493,478.11,-0.08175,0.04425,0.992,-0.62,-0.28,-0.02,27150.0,17290.0,-33920.0
32.7588599,35.0228493,478.11,-0.06775,0.03,0.98875,-0.2,-0.54,-0.06,27150.0,17270.0,-33920.0
32.7588599,35.0228493,478.11,-0.05875,0.01725,0.996,0.18,-0.54,-0.14,27130.0,17250.0,-33920.0
32.7588599,35.0228493,478.11,-0.06475,0.0365,0.996,0.12,-0.26,0.02,27120.0,17210.0,-33920.0
32.7588599,35.0228493,478.11,-0.07225,0.04525,0.99675,0.18,0.56,0.04,27120.0,17160.0,-33920.0
32.7588599,35.0228493,478.11,-0.073,0.0215,1.003,-0.24,0.54,0.1,27110.0,17160.0,-33920.0
32.7588599,35.0228493,478.11,-0.0775,0.01775,0.998,-0.48,0.26,-0.04,27130.0,17190.0,-33920.0
32.7588599,35.0228493,478.11,-0.0795,0.0455,0.98675,0.24,-0.14,0.0,27150.0,17230.0,-33920.0
32.7588599,35.0228493,478.11,-0.06775,0.0485,0.992,0.68,-0.42,0.06,27150.0,17280.0,-33920.0
32.7588599,35.0228493,478.11,-0.0575,0.0215,1.009,-0.2,-0.58,-0.1,27090.0,17230.0,-33920.0
32.7588599,35.0228493,478.11,-0.06475,0.02075,0.99775,-0.94,-0.26,-0.1,27120.0,17290.0,-33920.0
32.7588599,35.0228493,478.11,-0.0735,0.03875,0.982,-0.14,0.7,0.02,27160.0,17320.0,-33920.0
32.7588599,35.0228493,478.11,-0.0745,0.035,0.9935,0.84,0.82,0.12,27170.0,17320.0,-33920.0
32.7588599,35.0228493,478.11,-0.07875,0.03,1.00725,0.38,0.18,0.12,27180.0,17340.0,-33920.0
32.7588599,35.0228493,478.11,-0.08225,0.041,0.99825,-0.64,-0.24,-0.04,27160.0,17330.0,-33920.0
32.7588599,35.0228493,478.11,-0.0725,0.035,0.9885,-0.5,-0.48,-0.02,27140.0,17270.0,-33920.0
32.7588599,35.0228493,478.11,-0.05875,0.01575,0.9945,-0.02,-0.52,-0.06,27110.0,17240.0,-33920.0
32.7588599,35.0228493,478.1,-0.0605,0.0265,0.995,0.28,-0.32,-0.06,27100.0,17250.0,-33920.0
32.7588599,35.0228493,478.1,-0.07025,0.04675,0.9955,0.26,0.4,0.04,27090.0,17330.0,-33930.0
32.7588599,35.0228493,478.1,-0.07325,0.02975,1.00025,-0.14,0.58,0.1,27100.0,17230.0,-33920.0
32.7588599,35.0228493,478.1,-0.077,0.01075,1.00225,-0.6,0.34,0.06,27100.0,17150.0,-33920.0
32.7588599,35.0228493,478.1,-0.08325,0.03175,0.9895,-0.1,0.02,-0.02,27080.0,17140.0,-33920.0
32.7588599,35.0228493,478.1,-0.07525,0.04925,0.9865,0.8,-0.24,0.1,27030.0,17130.0,-33920.0
32.7588599,35.0228493,478.1,-0.0605,0.02975,1.00475,0.38,-0.66,-0.02,27040.0,17100.0,-33920.0
32.7588599,35.0228493,478.1,-0.0595,0.0185,1.00375,-0.76,-0.62,-0.06,27020.0,17070.0,-33920.0
32.7588599,35.0228493,478.1,-0.0695,0.0335,0.987,-0.56,0.2,-0.08,27030.0,17070.0,-33920.0
32.7588599,35.0228493,478.1,-0.0725,0.035,0.98925,0.62,0.86,0.14,27040.0,17050.0,-33920.0
32.7588599,35.0228493,478.1,-0.07525,0.027,1.005,0.68,0.58,0.14,27050.0,17110.0,-33920.0
32.7588599,35.0228493,478.1,-0.08175,0.03775,1.0025,-0.32,-0.04,0.02,27040.0,17200.0,-33920.0
32.7588599,35.0228493,478.1,-0.07775,0.042,0.99075,-0.58,-0.3,-0.04,27060.0,17130.0,-33920.0
32.7588599,35.0228493,478.1,-0.06275,0.02225,0.99125,-0.16,-0.66,-0.02,27060.0,17050.0,-33920.0
32.7588599,35.0228493,478.1,-0.058,0.019,0.9955,0.12,-0.46,-0.06,27080.0,17030.0,-33910.0
32.7588599,35.0228493,478.1,-0.067,0.0425,0.99425,0.24,0.06,-0.04,27060.0,17040.0,-33910.0
32.7588599,35.0228493,478.1,-0.07275,0.0395,0.99725,0.2,0.66,0.04,27050.0,17100.0,-33920.0
32.7588599,35.0228493,478.1,-0.07575,0.0155,1.00475,-0.34,0.46,0.1,27070.0,17150.0,-33920.0
32.7588599,35.0228493,478.1,-0.08225,0.025,0.99325,-0.3,0.2,0.04,27070.0,17130.0,-33920.0
32.7588599,35.0228493,478.1,-0.07975,0.05025,0.985,0.46,-0.18,0.0,27030.0,17060.0,-33920.0
32.7588599,35.0228493,478.1,-0.065,0.04075,0.9975,0.56,-0.62,-0.04,27010.0,17110.0,-33920.0
32.7588599,35.0228493,478.1,-0.058,0.01925,1.0075,-0.44,-0.68,-0.06,27060.0,17210.0,-33920.0
32.7588599,35.0228493,478.1,-0.06675,0.029,0.99225,-0.84,-0.06,-0.1,27100.0,17170.0,-33920.0
32.7588599,35.0228493,478.1,-0.07325,0.03975,0.9845,0.28,0.76,0.08,27090.0,17140.0,-33920.0
32.7588599,35.0228493,478.1,-0.0755,0.03125,1.0,0.84,0.76,0.16,27040.0,17090.0,-33920.0
32.7588599,35.0228493,478.1,-0.082,0.03375,1.00525,-0.02,0.16,0.02,27040.0,17070.0,-33920.0
32.7588599,35.0228493,478.1,-0.08275,0.044,0.9945,-0.64,-0.26,-0.04,27020.0,17050.0,-33920.0
32.7588599,35.0228493,478.1,-0.068,0.02975,0.98925,-0.26,-0.64,0.02,27060.0,17020.0,-33910.0
32.7588599,35.0228493,478.1,-0.057,0.0155,0.997,0.06,-0.62,-0.06,27090.0,17060.0,-33910.0
32.7588599,35.0228493,478.1,-0.0625,0.03575,0.994,0.24,-0.22,0.0,27050.0,17050.0,-33910.0
32.7588599,35.0228493,478.1,-0.071,0.046,0.99675,0.24,0.54,0.0,27060.0,17100.0,-33920.0
32.7588599,35.0228493,478.1,-0.0735,0.02225,1.00475,-0.22,0.64,0.1,27090.0,17180.0,-33920.0
32.7588599,35.0228493,478.1,-0.079,0.01525,0.99825,-0.56,0.32,0.04,27060.0,17130.0,-33920.0
32.7588599,35.0228493,478.1,-0.082,0.0415,0.98725,0.12,-0.04,-0.04,27110.0,17130.0,-33910.0
32.7588599,35.0228493,478.1,-0.0695,0.04625,0.98975,0.76,-0.52,-0.06,27100.0,17180.0,-33920.0
32.7588599,35.0228493,478.1,-0.057,0.02275,1.0075,-0.04,-0.76,-0.08,27080.0,17270.0,-33920.0
32.7588599,35.0228493,478.1,-0.06175,0.02025,0.9985,-0.86,-0.36,-0.06,27080.0,17320.0,-33920.0
32.7588599,35.0228493,478.1,-0.0705,0.03725,0.98375,-0.22,0.62,0.06,27090.0,17350.0,-33920.0
32.7588599,35.0228493,478.1,-0.073,0.03275,0.99325,0.78,0.92,0.18,27090.0,17350.0,-33920.0
32.7588599,35.0228493,478.1,-0.07825,0.02825,1.0075,0.42,0.4,0.1,27080.0,17310.0,-33920.0
32.7588599,35.0228493,478.1,-0.0835,0.03975,0.99775,-0.5,-0.14,-0.02,27090.0,17270.0,-33920.0
32.7588599,35.0228493,478.1,-0.07475,0.03725,0.98875,-0.48,-0.46,-0.04,27100.0,17350.0,-33920.0
32.7588599,35.0228493,478.1,-0.05975,0.01775,0.99275,-0.02,-0.62,-0.02,27110.0,17300.0,-33920.0
32.7588599,35.0228493,478.1,-0.0605,0.0255,0.99425,0.3,-0.4,-0.08,27100.0,17200.0,-33920.0
32.7588599,35.0228493,478.1,-0.07025,0.046,0.995,0.32,0.28,0.04,27070.0,17150.0,-33910.0
32.7588599,35.0228493,478.1,-0.07425,0.03175,1.0,-0.04,0.74,0.06,27090.0,17120.0,-33910.0
32.7588599,35.0228493,478.1,-0.07725,0.01125,1.00375,-0.52,0.44,0.1,27100.0,17120.0,-33910.0
32.7588599,35.0228493,478.1,-0.08275,0.031,0.98925,-0.16,0.06,-0.02,27120.0,17110.0,-33910.0
32.7588599,35.0228493,478.1,-0.07475,0.05375,0.98575,0.76,-0.32,0.0,27050.0,17120.0,-33910.0
32.7588599,35.0228493,478.1,-0.05925,0.0355,1.00325,0.44,-0.74,-0.04,27020.0,17130.0,-33920.0
32.7588599,35.0228493,478.1,-0.05875,0.01925,1.006,-0.8,-0.64,-0.06,27080.0,17210.0,-33920.0
32.7588599,35.0228493,478.1,-0.07075,0.03175,0.9885,-0.72,0.28,-0.02,27100.0,17140.0,-33910.0
32.7588599,35.0228493,478.1,-0.076,0.037,0.9865,0.48,1.04,0.1,27160.0,16870.0,-33910.0
32.7588599,35.0228493,478.1,-0.0785,0.0295,1.00425,0.78,0.68,0.1,27180.0,16700.0,-33900.0
32.7588599,35.0228493,478.1,-0.084,0.03825,1.00275,-0.06,-0.06,0.0,27150.0,16590.0,-33900.0
32.7588599,35.0228493,478.1,-0.07925,0.044,0.991,-0.68,-0.52,-0.08,27220.0,16530.0,-33900.0
32.7588599,35.0228493,478.1,-0.062,0.02375,0.9915,-0.28,-0.74,-0.06,27310.0,16600.0,-33900.0
32.7588599,35.0228493,478.1,-0.055,0.0155,0.994,0.1,-0.54,-0.06,27280.0,16630.0,-33900.0
32.7588599,35.0228493,478.1,-0.06475,0.039,0.99425,0.36,0.08,-0.02,27240.0,16560.0,-33900.0
32.7588599,35.0228493,478.1,-0.07275,0.042,0.99675,0.22,0.84,0.04,27210.0,16620.0,-33900.0
32.7588599,35.0228493,478.1,-0.0765,0.0165,1.00525,-0.32,0.68,0.14,27150.0,16870.0,-33910.0
32.7588599,35.0228493,478.1,-0.082,0.01775,0.9955,-0.5,0.16,0.02,27180.0,17130.0,-33910.0
32.7588599,35.0228493,478.1,-0.07975,0.04575,0.98425,0.34,-0.3,0.0,27190.0,17270.0,-33920.0
32.7588599,35.0228493,478.1,-0.06425,0.04475,0.995,0.78,-0.64,-0.02,27120.0,17290.0,-33920.0
32.7588599,35.0228493,478.1,-0.055,0.02075,1.01025,-0.14,-0.84,-0.1,27040.0,17220.0,-33920.0
32.7588599,35.0228493,478.1,-0.06375,0.023,0.99575,-1.02,-0.14,-0.06,27040.0,17120.0,-33920.0
32.7588599,35.0228493,478.1,-0.073,0.0375,0.985,-0.02,0.86,0.06,27070.0,17100.0,-33910.0
32.7588599,35.0228493,478.1,-0.07575,0.03225,0.996,0.84,0.98,0.22,27010.0,17040.0,-33910.0
32.7588599,35.0228493,478.1,-0.0815,0.03125,1.0055,0.32,0.28,0.12,27010.0,17040.0,-33910.0
32.7588599,35.0228493,478.1,-0.08375,0.04375,0.9985,-0.52,-0.28,-0.1,27060.0,17010.0,-33910.0
32.7588599,35.0228493,478.1,-0.071,0.03525,0.98825,-0.5,-0.68,-0.06,27100.0,17050.0,-33910.0
32.7588599,35.0228493,478.1,-0.05725,0.0145,0.99525,0.0,-0.62,-0.12,27110.0,17080.0,-33910.0
32.7588599,35.0228493,478.1,-0.0615,0.028,0.99425,0.2,-0.18,-0.04,27070.0,17030.0,-33910.0
32.7588599,35.0228493,478.1,-0.07225,0.05,0.994,0.38,0.6,0.04,27040.0,17020.0,-33910.0
32.7588599,35.0228493,478.1,-0.07575,0.03225,1.00275,-0.08,0.76,0.06,27060.0,17000.0,-33910.0
32.7588599,35.0228493,478.1,-0.0795,0.01325,1.003,-0.54,0.32,0.0,27080.0,17080.0,-33910.0
32.7588599,35.0228493,478.1,-0.08375,0.03425,0.98775,-0.18,-0.18,-0.04,27070.0,17150.0,-33920.0
32.7588599,35.0228493,478.1,-0.074,0.052,0.9875,0.74,-0.44,0.02,27070.0,17190.0,-33920.0
32.7588599,35.0228493,478.1,-0.059,0.03175,1.00325,0.38,-0.66,-0.06,27080.0,17220.0,-33920.0
32.7588599,35.0228493,478.1,-0.059,0.0185,1.00425,-0.84,-0.54,-0.06,27050.0,17190.0,-33920.0
32.7588599,35.0228493,478.1,-0.06975,0.035,0.98625,-0.64,0.32,-0.04,27090.0,17200.0,-33920.0
32.7588599,35.0228493,478.1,-0.07375,0.03875,0.98575,0.48,0.92,0.06,27110.0,17220.0,-33920.0
32.7588599,35.0228493,478.1,-0.0775,0.0285,1.00525,0.74,0.68,0.16,27050.0,17130.0,-33920.0
32.7588599,35.0228493,478.1,-0.0835,0.03625,1.00225,-0.3,-0.1,0.04,27010.0,17050.0,-33920.0
32.7588599,35.0228493,478.1,-0.08,0.04175,0.98975,-0.66,-0.44,-0.04,27050.0,17020.0,-33910.0
32.7588599,35.0228493,478.1,-0.06275,0.02225,0.99125,-0.2,-0.68,-0.04,27000.0,16950.0,-33910.0
32.7588599,35.0228493,478.1,-0.056,0.01725,0.9955,0.2,-0.52,-0.08,26990.0,16940.0,-33910.0
32.7588599,35.0228493,478.1,-0.06375,0.042,0.994,0.28,-0.04,0.04,26980.0,16920.0,-33910.0
32.7588599,35.0228493,478.1,-0.0705,0.04275,0.99875,0.16,0.72,0.12,26960.0,16930.0,-33910.0
32.7588599,35.0228493,478.1,-0.0735,0.01525,1.0065,-0.4,0.6,0.1,26980.0,16920.0,-33910.0
32.7588599,35.0228493,478.1,-0.08025,0.017,0.994,-0.4,0.24,0.0,27010.0,16970.0,-33910.0
32.7588599,35.0228493,478.1,-0.08125,0.0455,0.9845,0.44,-0.1,0.0,26990.0,16990.0,-33920.0
32.7588599,35.0228493,478.1,-0.067,0.04375,0.9945,0.76,-0.5,-0.04,26980.0,16950.0,-33910.0
32.7588599,35.0228493,478.1,-0.05775,0.01875,1.00875,-0.26,-0.74,-0.04,26980.0,16900.0,-33910.0
32.7588599,35.0228493,478.1,-0.06575,0.02275,0.99625,-0.92,-0.22,0.02,27000.0,16900.0,-33910.0
32.7588599,35.0228493,478.1,-0.07375,0.0365,0.9845,-0.04,0.72,0.04,26970.0,16890.0,-33910.0
32.7588599,35.0228493,478.1,-0.07425,0.0305,0.99775,0.9,0.86,0.14,26970.0,16930.0,-33910.0
32.7588599,35.0228493,478.1,-0.0785,0.02975,1.00725,0.24,0.18,0.06,26970.0,17000.0,-33920.0
32.7588599,35.0228493,478.1,-0.08175,0.04325,0.99525,-0.62,-0.36,-0.06,26980.0,17050.0,-33920.0
32.7588599,35.0228493,478.1,-0.0705,0.034,0.9885,-0.44,-0.54,-0.06,27020.0,17010.0,-33920.0
32.7588599,35.0228493,478.1,-0.0585,0.01375,0.99625,0.02,-0.5,-0.1,27090.0,16780.0,-33910.0
32.7588599,35.0228493,478.11,-0.0635,0.02725,0.994,0.3,-0.16,-0.02,27100.0,16790.0,-33910.0
32.7588599,35.0228493,478.11,-0.07375,0.049,0.996,0.34,0.54,0.06,27070.0,16860.0,-33910.0
32.7588599,35.0228493,478.11,-0.07575,0.032,1.0005,-0.02,0.62,0.06,27050.0,16880.0,-33910.0
32.7588599,35.0228493,478.11,-0.07675,0.01325,1.0025,-0.5,0.14,0.06,26990.0,16910.0,-33910.0
32.7588599,35.0228493,478.11,-0.07975,0.03375,0.9885,-0.16,-0.22,-0.1,26970.0,16930.0,-33910.0
32.7588599,35.0228493,478.11,-0.0705,0.053,0.98525,0.72,-0.36,0.02,26980.0,16930.0,-33910.0
32.7588599,35.0228493,478.11,-0.05775,0.0325,1.00475,0.4,-0.56,-0.04,26960.0,16890.0,-33910.0
32.7588599,35.0228493,478.11,-0.06175,0.0195,1.005,-0.72,-0.4,-0.04,26960.0,16940.0,-33910.0
32.7588599,35.0228493,478.11,-0.07425,0.03475,0.98575,-0.62,0.54,-0.06,26940.0,16930.0,-33910.0
32.7588599,35.0228493,478.11,-0.0775,0.03775,0.98725,0.52,0.9,0.14,26940.0,17010.0,-33920.0
32.7588599,35.0228493,478.11,-0.07775,0.029,1.00525,0.74,0.4,0.1,26960.0,17060.0,-33920.0
32.7588599,35.0228493,478.11,-0.07975,0.03775,1.001,-0.28,-0.26,-0.02,26990.0,16990.0,-33910.0
32.7588599,35.0228493,478.11,-0.07475,0.0435,0.992,-0.66,-0.54,-0.08,26950.0,16940.0,-33910.0
32.7588599,35.0228493,478.11,-0.05875,0.023,0.99325,-0.2,-0.64,-0.02,26890.0,16910.0,-33910.0
32.7588599,35.0228493,478.11,-0.056,0.016,0.99625,0.14,-0.34,0.02,26910.0,16920.0,-33910.0
32.7588599,35.0228493,478.11,-0.0675,0.04125,0.9945,0.24,0.26,0.04,26920.0,17040.0,-33920.0
32.7588599,35.0228493,478.11,-0.07575,0.0445,0.9965,0.18,0.78,0.12,26940.0,17130.0,-33920.0
32.7588599,35.0228493,478.11,-0.07725,0.018,1.00475,-0.3,0.48,0.06,26950.0,17150.0,-33920.0
32.7588599,35.0228493,478.11,-0.081,0.01825,0.9975,-0.44,0.0,0.02,26940.0,17180.0,-33920.0
32.7588599,35.0228493,478.11,-0.0795,0.04625,0.985,0.22,-0.3,-0.04,26910.0,17210.0,-33920.0
32.7588599,35.0228493,478.11,-0.06425,0.04425,0.99475,0.72,-0.46,-0.04,26930.0,17230.0,-33920.0
32.7588599,35.0228493,478.11,-0.056,0.01925,1.00975,-0.2,-0.62,-0.1,26950.0,17180.0,-33920.0
32.7588599,35.0228493,478.11,-0.0645,0.0235,0.9945,-0.96,-0.18,-0.08,26880.0,17100.0,-33920.0
32.7588599,35.0228493,478.11,-0.07325,0.039,0.9835,0.0,0.76,0.0,26840.0,17040.0,-33920.0
32.7588599,35.0228493,478.11,-0.075,0.0315,0.997,0.78,0.82,0.08,26860.0,17030.0,-33920.0
32.7588599,35.0228493,478.11,-0.0795,0.02675,1.0065,0.24,0.18,0.12,26860.0,17000.0,-33910.0
32.7588599,35.0228493,478.11,-0.08325,0.0405,0.9945,-0.58,-0.2,-0.08,26870.0,16980.0,-33910.0
32.7588599,35.0228493,478.11,-0.07175,0.035,0.98725,-0.36,-0.5,-0.02,26860.0,16980.0,-33910.0
32.7588599,35.0228493,478.11,-0.059,0.01525,0.99425,0.12,-0.52,-0.04,26820.0,16980.0,-33910.0
32.7588599,35.0228493,478.11,-0.062,0.02625,0.9955,0.18,-0.24,-0.06,26850.0,17070.0,-33920.0
32.7588599,35.0228493,478.11,-0.072,0.04625,0.9955,0.16,0.38,0.06,26890.0,17110.0,-33920.0
32.7588599,35.0228493,478.11,-0.074,0.03,0.9995,-0.06,0.58,0.02,26840.0,17030.0,-33920.0
32.7588599,35.0228493,478.11,-0.076,0.01175,1.0025,-0.42,0.28,0.1,26840.0,17020.0,-33910.0
32.7588599,35.0228493,478.11,-0.08025,0.03425,0.98875,-0.06,-0.14,0.0,26830.0,17010.0,-33910.0
32.7588599,35.0228493,478.11,-0.07275,0.0525,0.987,0.68,-0.38,-0.02,26830.0,16990.0,-33910.0
32.7588599,35.0228493,478.11,-0.05925,0.03025,1.0045,0.24,-0.56,-0.12,26840.0,17080.0,-33920.0
32.7588599,35.0228493,478.11,-0.06075,0.01575,1.00425,-0.76,-0.36,-0.06,26870.0,17200.0,-33920.0
32.7588599,35.0228493,478.11,-0.07225,0.03375,0.98675,-0.5,0.38,-0.02,26850.0,17240.0,-33920.0
32.7588599,35.0228493,478.11,-0.075,0.04075,0.98725,0.74,0.84,0.1,26840.0,17140.0,-33920.0
32.7588599,35.0228493,478.11,-0.07525,0.031,1.00625,0.76,0.4,0.12,26850.0,17120.0,-33920.0
32.7588599,35.0228493,478.11,-0.0795,0.03675,1.00425,-0.38,-0.24,-0.02,26850.0,17230.0,-33920.0
32.7588599,35.0228493,478.11,-0.076,0.042,0.99,-0.66,-0.46,0.02,26810.0,17180.0,-33920.0
32.7588599,35.0228493,478.11,-0.0615,0.0235,0.991,-0.2,-0.54,-0.04,26790.0,17080.0,-33920.0
32.7588599,35.0228493,478.11,-0.05775,0.01875,0.998,0.3,-0.28,0.02,26800.0,17030.0,-33920.0
32.7588599,35.0228493,478.11,-0.0675,0.043,0.99525,0.2,0.14,0.04,26790.0,17020.0,-33920.0
32.7588599,35.0228493,478.11,-0.07525,0.04475,0.997,0.04,0.7,0.06,26800.0,17050.0,-33920.0
32.7588599,35.0228493,478.11,-0.0755,0.01725,1.0035,-0.46,0.42,0.1,26770.0,17020.0,-33920.0
32.7588599,35.0228493,478.11,-0.08,0.01825,0.9955,-0.4,0.06,-0.02,26750.0,17030.0,-33920.0
32.7588599,35.0228493,478.11,-0.07925,0.047,0.9855,0.46,-0.22,-0.08,26800.0,17030.0,-33920.0
32.7588599,35.0228493,478.11,-0.06525,0.04425,0.995,0.68,-0.5,0.04,26850.0,17090.0,-33920.0
32.7588599,35.0228493,478.11,-0.057,0.01925,1.00825,-0.32,-0.58,-0.06,26810.0,17100.0,-33920.0
32.7588599,35.0228493,478.11,-0.06625,0.02475,0.99425,-0.96,-0.14,-0.1,26790.0,17060.0,-33920.0
32.7588599,35.0228493,478.11,-0.074,0.03975,0.9825,0.06,0.7,0.04,26790.0,17040.0,-33920.0
32.7588599,35.0228493,478.11,-0.075,0.0325,0.99725,0.9,0.8,0.16,26730.0,17020.0,-33920.0
32.7588599,35.0228493,478.11,-0.08,0.029,1.0075,0.2,0.1,0.06,26750.0,17030.0,-33920.0
32.7588599,35.0228493,478.11,-0.083,0.041,0.99425,-0.7,-0.24,0.02,26780.0,17080.0,-33920.0
32.7588599,35.0228493,478.11,-0.07075,0.03325,0.98725,-0.38,-0.56,-0.06,26790.0,17190.0,-33920.0
32.7588599,35.0228493,478.11,-0.05775,0.015,0.9955,0.2,-0.5,0.0,26810.0,17220.0,-33920.0
32.7588599,35.0228493,478.11,-0.06125,0.02925,0.99425,0.24,-0.3,0.0,26860.0,17160.0,-33920.0
32.7588599,35.0228493,478.11,-0.0705,0.0465,0.996,0.16,0.48,0.0,26900.0,17000.0,-33920.0
32.7588599,35.0228493,478.1,-0.0725,0.0275,1.001,-0.16,0.64,0.1,26940.0,16920.0,-33920.0
32.7588599,35.0228493,478.1,-0.07725,0.01225,1.00025,-0.46,0.28,0.04,26990.0,16860.0,-33910.0
32.7588599,35.0228493,478.1,-0.08375,0.03575,0.99025,-0.02,-0.02,-0.04,26960.0,16840.0,-33910.0
32.7588599,35.0228493,478.1,-0.0745,0.0495,0.9875,0.74,-0.3,0.04,26990.0,16730.0,-33910.0
32.7588599,35.0228493,478.1,-0.05975,0.02625,1.00775,0.18,-0.62,-0.06,26960.0,16610.0,-33900.0
32.7588599,35.0228493,478.1,-0.0595,0.0175,1.00225,-0.8,-0.5,-0.08,26940.0,16570.0,-33900.0
32.7588599,35.0228493,478.1,-0.068,0.03525,0.9855,-0.34,0.32,-0.06,26840.0,16710.0,-33910.0
32.7588599,35.0228493,478.1,-0.07025,0.0375,0.992,0.72,0.84,0.1,26820.0,16880.0,-33910.0
32.7588599,35.0228493,478.1,-0.07425,0.0285,1.0055,0.58,0.5,0.16,26820.0,16970.0,-33910.0
32.7588599,35.0228493,478.1,-0.08275,0.037,1.00275,-0.36,-0.02,0.0,26780.0,17070.0,-33920.0
32.7588599,35.0228493,478.1,-0.07975,0.03925,0.989,-0.54,-0.22,-0.04,26790.0,17150.0,-33920.0
32.7588599,35.0228493,478.1,-0.06475,0.02,0.9905,0.02,-0.46,0.0,26800.0,17100.0,-33920.0
32.7588599,35.0228493,478.1,-0.06025,0.02025,0.99675,0.28,-0.52,-0.04,26790.0,17150.0,-33920.0
32.7588599,35.0228493,478.1,-0.0665,0.0455,0.9945,0.26,-0.02,-0.02,26790.0,17120.0,-33920.0
32.7588599,35.0228493,478.1,-0.071,0.0415,0.9975,0.08,0.52,0.08,26810.0,17140.0,-33920.0
32.7588599,35.0228493,478.1,-0.0725,0.015,1.00475,-0.42,0.44,0.12,26810.0,17160.0,-33920.0
32.7588599,35.0228493,478.1,-0.08,0.02425,0.992,-0.34,0.2,-0.02,26870.0,17220.0,-33920.0
32.7588599,35.0228493,478.1,-0.079,0.04975,0.9845,0.56,-0.12,-0.04,26920.0,17290.0,-33920.0
32.7588599,35.0228493,478.1,-0.0665,0.04075,0.9965,0.62,-0.44,0.0,26860.0,17270.0,-33920.0
32.7588599,35.0228493,478.11,-0.0605,0.01975,1.0065,-0.5,-0.66,-0.06,26820.0,17300.0,-33920.0
32.7588599,35.0228493,478.11,-0.0695,0.029,0.992,-0.82,-0.04,0.04,26890.0,17380.0,-33920.0
32.7588599,35.0228493,478.11,-0.07475,0.03975,0.983,0.22,0.74,0.02,26890.0,17300.0,-33920.0
32.7588599,35.0228493,478.11,-0.0735,0.031,1.00075,0.86,0.58,0.1,26920.0,17280.0,-33920.0
32.7588599,35.0228493,478.11,-0.07825,0.03325,1.0055,-0.06,0.08,0.08,26930.0,17290.0,-33920.0
32.7588599,35.0228493,478.11,-0.0795,0.0445,0.9935,-0.62,-0.32,-0.04,26870.0,17240.0,-33920.0
32.7588599,35.0228493,478.11,-0.06625,0.03025,0.9885,-0.32,-0.56,-0.06,26870.0,17240.0,-33920.0
32.7588599,35.0228493,478.11,-0.0585,0.01575,0.9975,0.08,-0.44,-0.06,26890.0,17200.0,-33910.0
32.7588599,35.0228493,478.11,-0.066,0.035,0.994,0.3,-0.04,0.02,26900.0,17250.0,-33920.0
32.7588599,35.0228493,478.11,-0.074,0.04675,0.996,0.22,0.56,0.0,26900.0,17310.0,-33920.0
32.7588599,35.0228493,478.11,-0.07475,0.022,1.0045,-0.22,0.58,0.08,26890.0,17340.0,-33920.0
32.7588599,35.0228493,478.11,-0.07825,0.01425,0.99925,-0.52,0.1,-0.04,26930.0,17410.0,-33920.0
32.7588599,35.0228493,478.11,-0.079,0.041,0.987,0.16,-0.2,-0.04,26930.0,17350.0,-33920.0
32.7588599,35.0228493,478.11,-0.067,0.0485,0.99125,0.76,-0.36,0.04,26940.0,17330.0,-33920.0
32.7588599,35.0228493,478.11,-0.05625,0.024,1.0075,0.06,-0.62,-0.02,26940.0,17300.0,-33920.0
32.7588599,35.0228493,478.11,-0.06325,0.021,1.00075,-0.86,-0.34,-0.1,26960.0,17310.0,-33920.0
32.7588599,35.0228493,478.11,-0.0735,0.03575,0.98425,-0.2,0.64,0.02,26980.0,17310.0,-33920.0
32.7588599,35.0228493,478.11,-0.076,0.03175,0.9925,0.76,0.9,0.16,26980.0,17360.0,-33920.0
32.7588599,35.0228493,478.11,-0.08,0.02775,1.00625,0.44,0.38,0.08,27010.0,17470.0,-33920.0
32.7588599,35.0228493,478.11,-0.08325,0.04225,0.998,-0.38,-0.22,-0.06,27050.0,17540.0,-33920.0
32.7588599,35.0228493,478.11,-0.0725,0.0385,0.989,-0.54,-0.62,-0.04,27080.0,17560.0,-33920.0
32.7588599,35.0228493,478.11,-0.05725,0.01625,0.99525,-0.12,-0.64,-0.04,27080.0,17600.0,-33920.0
32.7588599,35.0228493,478.11,-0.05875,0.023,0.99475,0.16,-0.38,-0.1,27060.0,17580.0,-33920.0
32.7588599,35.0228493,478.11,-0.0685,0.04475,0.9935,0.26,0.38,-0.04,27060.0,17550.0,-33920.0
32.7588599,35.0228493,478.11,-0.07325,0.033,1.0005,0.08,0.74,0.1,27040.0,17500.0,-33920.0
32.7588599,35.0228493,478.11,-0.07775,0.0135,1.0025,-0.44,0.38,0.02,27070.0,17400.0,-33920.0
32.7588599,35.0228493,478.11,-0.08425,0.032,0.9905,-0.16,-0.02,-0.06,27110.0,17350.0,-33910.0
32.7588599,35.0228493,478.11,-0.07625,0.05075,0.9865,0.66,-0.3,-0.04,27080.0,17310.0,-33910.0
32.7588599,35.0228493,478.11,-0.06075,0.0315,1.00325,0.4,-0.68,-0.04,27060.0,17300.0,-33910.0
32.7588599,35.0228493,478.11,-0.059,0.0175,1.0055,-0.7,-0.58,-0.08,27090.0,17340.0,-33910.0
32.7588599,35.0228493,478.11,-0.0685,0.03275,0.9875,-0.62,0.2,-0.06,27070.0,17390.0,-33920.0
32.7588599,35.0228493,478.11,-0.07225,0.03825,0.98675,0.6,0.86,0.08,27120.0,17430.0,-33920.0
32.7588599,35.0228493,478.11,-0.07575,0.02975,1.0035,0.72,0.58,0.1,27110.0,17360.0,-33920.0
32.7588599,35.0228493,478.11,-0.083,0.0375,1.00325,-0.16,0.04,0.06,27070.0,17300.0,-33910.0
32.7588599,35.0228493,478.11,-0.08125,0.041,0.99225,-0.6,-0.32,0.02,27040.0,17270.0,-33910.0
32.7588599,35.0228493,478.11,-0.06575,0.0225,0.99125,-0.18,-0.58,0.04,27070.0,17240.0,-33910.0
32.7588599,35.0228493,478.11,-0.05875,0.01725,0.99475,0.18,-0.54,-0.1,27100.0,17280.0,-33910.0
32.7588599,35.0228493,478.11,-0.0645,0.04275,0.994,0.32,-0.14,-0.06,27110.0,17340.0,-33920.0
32.7588599,35.0228493,478.11,-0.0705,0.04425,0.997,0.22,0.58,0.08,27120.0,17340.0,-33920.0
32.7588599,35.0228493,478.11,-0.07275,0.01775,1.00525,-0.4,0.54,0.02,27100.0,17260.0,-33910.0
32.7588599,35.0228493,478.11,-0.0805,0.0205,0.996,-0.48,0.22,0.06,27140.0,17320.0,-33910.0
32.7588599,35.0228493,478.11,-0.0815,0.04675,0.98575,0.4,-0.06,0.02,27170.0,17400.0,-33920.0
32.7588599,35.0228493,478.11,-0.06825,0.042,0.99375,0.7,-0.46,0.02,27150.0,17320.0,-33920.0
32.7588599,35.0228493,478.11,-0.05875,0.0205,1.0095,-0.22,-0.76,-0.02,27090.0,17300.0,-33920.0
32.7588599,35.0228493,478.11,-0.06525,0.0275,0.99275,-0.86,-0.26,-0.02,27100.0,17270.0,-33920.0
32.7588599,35.0228493,478.11,-0.071,0.0395,0.98325,0.08,0.64,0.02,27150.0,17240.0,-33910.0
32.7588599,35.0228493,478.11,-0.072,0.03125,0.999,0.8,0.72,0.14,27100.0,17200.0,-33910.0
32.7588599,35.0228493,478.11,-0.0795,0.03125,1.0055,0.14,0.2,0.08,27100.0,17160.0,-33910.0
32.7588599,35.0228493,478.11,-0.0835,0.04275,0.9965,-0.52,-0.06,-0.04,27140.0,17180.0,-33910.0
32.7588599,35.0228493,478.11,-0.0715,0.03175,0.98775,-0.36,-0.48,-0.04,27100.0,17160.0,-33910.0
32.7588599,35.0228493,478.11,-0.059,0.0155,0.99425,0.08,-0.6,-0.1,27100.0,17200.0,-33910.0
32.7588599,35.0228493,478.11,-0.06225,0.03225,0.994,0.3,-0.34,-0.1,27140.0,17260.0,-33920.0
32.7588599,35.0228493,478.11,-0.06925,0.04725,0.995,0.22,0.46,0.02,27090.0,17190.0,-33920.0
32.7588599,35.0228493,478.11,-0.07175,0.025,1.00275,-0.22,0.64,0.02,27120.0,17160.0,-33910.0
32.7588599,35.0228493,478.11,-0.0785,0.01325,1.001,-0.54,0.42,0.06,27130.0,17150.0,-33910.0
32.7588599,35.0228493,478.11,-0.08425,0.038,0.9855,-0.04,0.06,-0.04,27110.0,17130.0,-33910.0
32.7588599,35.0228493,478.11,-0.07325,0.04775,0.9885,0.78,-0.42,0.02,27110.0,17190.0,-33920.0
32.7588599,35.0228493,478.11,-0.0595,0.0245,1.00725,0.12,-0.78,-0.06,27150.0,17200.0,-33920.0
32.7588599,35.0228493,478.11,-0.061,0.0205,1.00075,-0.82,-0.56,-0.04,27170.0,17160.0,-33910.0
32.7588599,35.0228493,478.11,-0.0695,0.03575,0.987,-0.3,0.48,-0.04,27220.0,17240.0,-33910.0
32.7588599,35.0228493,478.11,-0.07125,0.03275,0.99225,0.68,0.82,0.1,27210.0,17310.0,-33920.0
32.7588599,35.0228493,478.11,-0.0765,0.027,1.007,0.5,0.5,0.04,27200.0,17370.0,-33920.0
32.7588599,35.0228493,478.11,-0.08325,0.04075,1.00025,-0.3,-0.08,0.04,27180.0,17370.0,-33920.0
32.7588599,35.0228493,478.11,-0.076,0.0395,0.988,-0.46,-0.36,0.0,27200.0,17360.0,-33920.0
32.7588599,35.0228493,478.11,-0.061,0.01775,0.9955,-0.06,-0.68,-0.04,27220.0,17360.0,-33920.0
32.7588599,35.0228493,478.11,-0.06075,0.023,0.99475,0.16,-0.48,-0.02,27130.0,17310.0,-33920.0
32.7588599,35.0228493,478.11,-0.069,0.04575,0.9935,0.36,0.3,0.02,27120.0,17260.0,-33920.0
32.7588599,35.0228493,478.11,-0.0725,0.035,1.0,0.12,0.72,0.0,27140.0,17140.0,-33920.0
32.7588599,35.0228493,478.11,-0.07625,0.0155,1.00175,-0.42,0.44,0.1,27160.0,17130.0,-33910.0
32.7588599,35.0228493,478.11,-0.0825,0.032,0.991,-0.26,0.02,-0.08,27180.0,17120.0,-33910.0
32.7588599,35.0228493,478.11,-0.0765,0.05125,0.986,0.6,-0.26,0.04,27170.0,17160.0,-33920.0
32.7588599,35.0228493,478.11,-0.06225,0.0335,1.00125,0.44,-0.68,-0.06,27140.0,17170.0,-33920.0
32.7588599,35.0228493,478.11,-0.0595,0.019,1.00575,-0.58,-0.56,-0.06,27150.0,17140.0,-33920.0
32.7588599,35.0228493,478.11,-0.0695,0.03375,0.9885,-0.58,0.14,0.02,27190.0,17110.0,-33910.0
32.7588599,35.0228493,478.11,-0.07325,0.0395,0.9855,0.44,0.8,0.04,27140.0,17080.0,-33910.0
32.7588599,35.0228493,478.11,-0.07525,0.0295,1.004,0.66,0.58,0.12,27140.0,17060.0,-33910.0
32.7588599,35.0228493,478.11,-0.082,0.03575,1.00375,-0.26,-0.06,-0.04,27190.0,17090.0,-33910.0
32.7588599,35.0228493,478.11,-0.08025,0.0415,0.99125,-0.6,-0.28,-0.06,27210.0,17230.0,-33920.0
32.7588599,35.0228493,478.11,-0.06525,0.0245,0.9925,-0.14,-0.54,0.04,27220.0,17250.0,-33920.0
32.7588599,35.0228493,478.11,-0.058,0.01775,0.9955,0.18,-0.48,-0.08,27200.0,17180.0,-33920.0
32.7588599,35.0228493,478.11,-0.06425,0.0405,0.9945,0.28,-0.14,0.0,27190.0,17190.0,-33920.0
32.7588599,35.0228493,478.11,-0.07125,0.04275,0.99675,0.22,0.56,0.0,27200.0,17300.0,-33920.0
32.7588599,35.0228493,478.11,-0.0735,0.01725,1.00475,-0.28,0.6,0.08,27220.0,17370.0,-33920.0
32.7588599,35.0228493,478.11,-0.081,0.01875,0.99575,-0.4,0.24,0.0,27170.0,17360.0,-33920.0
32.7588599,35.0228493,478.11,-0.0825,0.04575,0.9865,0.32,-0.06,-0.06,27130.0,17280.0,-33920.0
32.7588599,35.0228493,478.11,-0.06875,0.043,0.9945,0.68,-0.48,-0.06,27170.0,17170.0,-33920.0
32.7588599,35.0228493,478.11,-0.058,0.01925,1.0085,-0.24,-0.74,-0.08,27190.0,17160.0,-33910.0
32.7588599,35.0228493,478.11,-0.06275,0.0245,0.994,-0.92,-0.34,-0.1,27200.0,16990.0,-33910.0
32.7588599,35.0228493,478.11,-0.06975,0.03875,0.9835,0.1,0.62,0.08,27240.0,16780.0,-33910.0
32.7588599,35.0228493,478.11,-0.0715,0.03125,0.99875,0.8,0.8,0.1,27260.0,16660.0,-33900.0
32.7588599,35.0228493,478.11,-0.07875,0.0285,1.00625,0.22,0.34,0.08,27270.0,16630.0,-33900.0
32.7588599,35.0228493,478.11,-0.08425,0.04025,0.99575,-0.54,-0.08,-0.04,27290.0,16660.0,-33900.0
32.7588599,35.0228493,478.11,-0.07375,0.033,0.987,-0.32,-0.42,-0.02,27310.0,16600.0,-33900.0
32.7588599,35.0228493,478.11,-0.06025,0.0155,0.9945,0.1,-0.62,-0.04,27340.0,16720.0,-33910.0
32.7588599,35.0228493,478.11,-0.06125,0.02875,0.9945,0.26,-0.36,-0.04,27360.0,16770.0,-33910.0
32.7588599,35.0228493,478.11,-0.0695,0.0465,0.99675,0.16,0.34,-0.02,27320.0,17010.0,-33910.0
32.7588599,35.0228493,478.11,-0.072,0.02725,1.002,-0.08,0.66,0.08,27250.0,17160.0,-33920.0
32.7588599,35.0228493,478.11,-0.0755,0.01125,1.00125,-0.4,0.42,0.04,27270.0,17300.0,-33920.0
32.7588599,35.0228493,478.11,-0.08225,0.0355,0.98725,-0.04,0.04,-0.06,27260.0,17390.0,-33920.0
32.7588599,35.0228493,478.11,-0.07425,0.05225,0.9875,0.76,-0.32,0.0,27200.0,17430.0,-33930.0
32.7588599,35.0228493,478.11,-0.06075,0.03,1.005,0.26,-0.72,-0.04,27220.0,17470.0,-33930.0
32.7588599,35.0228493,478.11,-0.06125,0.017,1.0025,-0.86,-0.52,-0.06,27240.0,17490.0,-33930.0
32.7588599,35.0228493,478.11,-0.0725,0.03325,0.98625,-0.5,0.36,-0.06,27230.0,17510.0,-33930.0
32.7588599,35.0228493,478.11,-0.0755,0.03875,0.988,0.78,0.96,0.1,27230.0,17520.0,-33930.0
32.7588599,35.0228493,478.11,-0.07625,0.0305,1.0065,0.72,0.52,0.06,27250.0,17520.0,-33930.0
32.7588599,35.0228493,478.11,-0.08125,0.03875,1.002,-0.36,-0.18,0.0,27220.0,17530.0,-33930.0
32.7588599,35.0228493,478.11,-0.0775,0.04225,0.99075,-0.7,-0.48,-0.08,27270.0,17530.0,-33930.0
32.7588599,35.0228493,478.11,-0.0615,0.0225,0.991,-0.12,-0.56,-0.04,27290.0,17540.0,-33930.0
32.7588599,35.0228493,478.11,-0.058,0.01975,0.99575,0.22,-0.36,-0.02,27250.0,17560.0,-33930.0
32.7588599,35.0228493,478.11,-0.0685,0.045,0.9955,0.3,0.2,0.04,27280.0,17530.0,-33930.0
32.7588599,35.0228493,478.11,-0.07475,0.0445,0.9965,0.12,0.7,0.1,27290.0,17470.0,-33920.0
32.7588599,35.0228493,478.11,-0.07625,0.01575,1.00525,-0.4,0.36,0.06,27290.0,17460.0,-33920.0
32.7588599,35.0228493,478.11,-0.08,0.0195,0.9945,-0.42,0.04,0.04,27190.0,17310.0,-33920.0
32.7588599,35.0228493,478.11,-0.078,0.04875,0.984,0.46,-0.24,-0.04,27200.0,17260.0,-33920.0
32.7588599,35.0228493,478.11,-0.0635,0.04575,0.99775,0.78,-0.56,-0.04,27200.0,17180.0,-33920.0
32.7588599,35.0228493,478.11,-0.0555,0.0205,1.00925,-0.3,-0.62,-0.02,27190.0,17180.0,-33920.0
32.7588599,35.0228493,478.11,-0.06575,0.0245,0.99375,-0.96,-0.1,-0.06,27210.0,17230.0,-33920.0
32.7588599,35.0228493,478.11,-0.07425,0.0385,0.98375,0.0,0.84,-0.02,27200.0,17250.0,-33920.0
32.7588599,35.0228493,478.11,-0.076,0.0315,0.997,0.92,0.92,0.16,27170.0,17240.0,-33920.0
32.7588599,35.0228493,478.11,-0.0805,0.0295,1.00725,0.18,0.12,0.16,27230.0,17260.0,-33920.0
32.7588599,35.0228493,478.11,-0.0825,0.04175,0.996,-0.72,-0.36,-0.1,27260.0,17270.0,-33920.0
32.7588599,35.0228493,478.11,-0.0695,0.03375,0.9865,-0.42,-0.58,-0.08,27220.0,17330.0,-33920.0
32.7588599,35.0228493,478.11,-0.05625,0.0145,0.99675,0.1,-0.58,-0.04,27190.0,17250.0,-33920.0
32.7588599,35.0228493,478.11,-0.06075,0.028,0.9945,0.26,-0.24,-0.04,27200.0,17180.0,-33920.0
32.7588599,35.0228493,478.11,-0.07125,0.047,0.995,0.24,0.54,0.06,27190.0,17160.0,-33920.0
32.7588599,35.0228493,478.11,-0.0745,0.0275,1.0035,-0.08,0.78,0.08,27210.0,17120.0,-33920.0
32.7588599,35.0228493,478.11,-0.0785,0.01025,1.0,-0.56,0.26,0.04,27190.0,17100.0,-33920.0
32.7588599,35.0228493,478.11,-0.08325,0.03375,0.98875,0.06,-0.1,-0.02,27130.0,17100.0,-33920.0
32.7588599,35.0228493,478.11,-0.0745,0.052,0.98825,0.86,-0.36,0.0,27120.0,17100.0,-33920.0
32.7588599,35.0228493,478.11,-0.05925,0.0295,1.005,0.22,-0.58,-0.08,27140.0,17110.0,-33920.0
32.7588599,35.0228493,478.11,-0.06,0.015,1.00525,-0.92,-0.46,-0.12,27120.0,17140.0,-33920.0
32.7588599,35.0228493,478.11,-0.07025,0.03275,0.98475,-0.6,0.38,0.02,27140.0,17240.0,-33920.0
32.7588599,35.0228493,478.11,-0.074,0.03825,0.9875,0.8,0.94,0.04,27180.0,17140.0,-33920.0
32.7588599,35.0228493,478.11,-0.07675,0.02925,1.006,0.8,0.52,0.12,27190.0,17090.0,-33910.0
32.7588599,35.0228493,478.11,-0.08275,0.03725,1.00225,-0.4,-0.06,0.06,27210.0,17070.0,-33910.0
32.7588599,35.0228493,478.11,-0.08025,0.04075,0.98975,-0.7,-0.4,-0.04,27210.0,17040.0,-33910.0
32.7588599,35.0228493,478.11,-0.06425,0.02175,0.9905,-0.12,-0.5,-0.1,27180.0,17060.0,-33910.0
32.7588599,35.0228493,478.11,-0.058,0.01775,0.995,0.3,-0.46,0.0,27160.0,17100.0,-33920.0
32.7588599,35.0228493,478.11,-0.066,0.04375,0.99575,0.36,0.02,0.02,27160.0,17080.0,-33920.0
32.7588599,35.0228493,478.11,-0.073,0.04525,0.99775,0.14,0.62,0.04,27160.0,17050.0,-33920.0
32.7588599,35.0228493,478.11,-0.073,0.0175,1.0045,-0.4,0.46,0.1,27170.0,17120.0,-33920.0
32.7588599,35.0228493,478.11,-0.07825,0.0185,0.99475,-0.46,0.08,0.06,27210.0,17230.0,-33920.0
32.7588599,35.0228493,478.11,-0.0795,0.04775,0.98575,0.44,-0.16,-0.04,27220.0,17280.0,-33920.0
32.7588599,35.0228493,478.11,-0.0665,0.046,0.994,0.8,-0.46,-0.04,27220.0,17300.0,-33920.0
32.7588599,35.0228493,478.11,-0.05825,0.0205,1.01025,-0.32,-0.64,-0.06,27230.0,17310.0,-33920.0
32.7588599,35.0228493,478.11,-0.06675,0.0245,0.9935,-0.98,-0.18,-0.06,27230.0,17310.0,-33920.0
32.7588599,35.0228493,478.11,-0.07425,0.0405,0.98225,0.04,0.7,-0.02,27180.0,17250.0,-33920.0
32.7588599,35.0228493,478.11,-0.0735,0.0345,0.9985,0.88,0.8,0.06,27170.0,17140.0,-33920.0
32.7588599,35.0228493,478.11,-0.07675,0.03,1.007,0.22,0.14,0.12,27180.0,17120.0,-33920.0
32.7588599,35.0228493,478.11,-0.08025,0.04175,0.99625,-0.7,-0.26,-0.06,27150.0,17100.0,-33920.0
32.7588599,35.0228493,478.11,-0.0705,0.03575,0.98725,-0.52,-0.5,-0.08,27130.0,17140.0,-33920.0
32.7588599,35.0228493,478.11,-0.05825,0.0165,0.99375,0.16,-0.4,-0.12,27150.0,17160.0,-33920.0
32.7588599,35.0228493,478.11,-0.063,0.028,0.99625,0.24,-0.22,0.0,27120.0,17100.0,-33920.0
32.7588599,35.0228493,478.11,-0.07425,0.04825,0.996,0.14,0.48,-0.04,27150.0,17080.0,-33920.0
32.7588599,35.0228493,478.11,-0.076,0.03,0.99925,-0.12,0.64,0.1,27150.0,17030.0,-33910.0
32.7588599,35.0228493,478.11,-0.077,0.0095,1.003,-0.46,0.18,0.04,27150.0,17070.0,-33920.0
32.7588599,35.0228493,478.11,-0.08025,0.031,0.98725,0.02,-0.16,0.0,27150.0,17170.0,-33920.0
32.7588599,35.0228493,478.11,-0.07225,0.05325,0.98725,0.78,-0.34,0.0,27170.0,17210.0,-33920.0
32.7588599,35.0228493,478.11,-0.05825,0.032,1.00525,0.36,-0.58,0.0,27160.0,17150.0,-33920.0
32.7588599,35.0228493,478.11,-0.06025,0.015,1.00425,-0.92,-0.4,-0.06,27130.0,17110.0,-33920.0
32.7588599,35.0228493,478.11,-0.07275,0.03,0.9875,-0.62,0.34,-0.02,27140.0,17170.0,-33920.0
32.7588599,35.0228493,478.11,-0.07675,0.0375,0.9865,0.7,0.92,0.06,27150.0,17290.0,-33920.0
32.7588599,35.0228493,478.11,-0.07775,0.02825,1.00525,0.86,0.5,0.14,27170.0,17270.0,-33920.0
32.7588599,35.0228493,478.11,-0.081,0.03425,1.00375,-0.26,-0.22,0.02,27160.0,17200.0,-33920.0
32.7588599,35.0228493,478.11,-0.07825,0.04225,0.98925,-0.72,-0.5,-0.06,27140.0,17150.0,-33920.0
32.7588599,35.0228493,478.11,-0.06125,0.024,0.99075,-0.12,-0.58,0.0,27120.0,17110.0,-33920.0
32.7588599,35.0228493,478.11,-0.05625,0.01575,0.99725,0.32,-0.34,-0.14,27170.0,17140.0,-33920.0
32.7588599,35.0228493,478.11,-0.0665,0.039,0.996,0.26,0.12,0.06,27160.0,17100.0,-33920.0
32.7588599,35.0228493,478.11,-0.07475,0.04425,0.99675,0.12,0.7,0.04,27140.0,17100.0,-33920.0
32.7588599,35.0228493,478.11,-0.0755,0.019,1.0035,-0.26,0.5,0.1,27130.0,17110.0,-33920.0
32.7588599,35.0228493,478.11,-0.07925,0.01775,0.996,-0.4,0.04,-0.02,27150.0,17170.0,-33920.0
32.7588599,35.0228493,478.11,-0.07975,0.04675,0.98625,0.32,-0.28,-0.08,27150.0,17240.0,-33920.0
32.7588599,35.0228493,478.11,-0.066,0.04625,0.99525,0.64,-0.42,-0.06,27160.0,17170.0,-33920.0
32.7588599,35.0228493,478.11,-0.0565,0.01925,1.00975,-0.32,-0.58,0.0,27160.0,17180.0,-33920.0
32.7588599,35.0228493,478.11,-0.065,0.02175,0.9945,-0.92,-0.14,-0.12,27120.0,17150.0,-33920.0
32.7588599,35.0228493,478.11,-0.0735,0.04075,0.983,0.08,0.64,0.06,27170.0,17140.0,-33920.0
32.7588599,35.0228493,478.11,-0.074,0.03675,0.9955,0.96,0.8,0.02,27210.0,17180.0,-33920.0
32.7588599,35.0228493,478.11,-0.07725,0.0295,1.00725,0.24,0.14,0.08,27190.0,17230.0,-33920.0
32.7588599,35.0228493,478.11,-0.081,0.038,0.9975,-0.7,-0.22,0.0,27160.0,17210.0,-33920.0
32.7588599,35.0228493,478.11,-0.072,0.03675,0.98575,-0.52,-0.44,-0.06,27160.0,17200.0,-33920.0
32.7588599,35.0228493,478.11,-0.0595,0.01725,0.99475,0.18,-0.48,0.0,27170.0,17250.0,-33920.0
32.7588599,35.0228493,478.11,-0.06075,0.0265,0.99725,0.34,-0.28,-0.04,27200.0,17370.0,-33920.0
32.7588599,35.0228493,478.11,-0.071,0.049,0.993,0.24,0.32,0.02,27220.0,17430.0,-33930.0
32.7588599,35.0228493,478.11,-0.07275,0.03425,1.00225,-0.08,0.7,0.06,27180.0,17410.0,-33930.0
32.7588599,35.0228493,478.11,-0.0745,0.01225,0.99975,-0.58,0.44,0.08,27120.0,17340.0,-33930.0
32.7588599,35.0228493,478.11,-0.08375,0.03025,0.989,-0.2,-0.02,-0.04,27130.0,17370.0,-33930.0
32.7588599,35.0228493,478.11,-0.0755,0.05225,0.98625,0.68,-0.3,0.0,27170.0,17410.0,-33930.0
32.7588599,35.0228493,478.11,-0.062,0.03425,1.001,0.52,-0.68,-0.04,27160.0,17440.0,-33930.0
32.7588599,35.0228493,478.11,-0.06,0.01725,1.00925,-0.8,-0.64,-0.08,27180.0,17470.0,-33930.0
32.7588599,35.0228493,478.11,-0.071,0.0315,0.988,-0.78,0.28,-0.02,27200.0,17400.0,-33930.0
32.7588599,35.0228493,478.11,-0.074,0.0385,0.9845,0.46,0.94,0.06,27210.0,17340.0,-33920.0
32.7588599,35.0228493,478.11,-0.07525,0.0275,1.0085,0.84,0.62,0.14,27220.0,17330.0,-33920.0
32.7588599,35.0228493,478.11,-0.08375,0.034,1.00275,-0.12,-0.22,-0.02,27190.0,17270.0,-33920.0
32.7588599,35.0228493,478.11,-0.07825,0.0425,0.992,-0.64,-0.54,-0.1,27180.0,17260.0,-33920.0
32.7588599,35.0228493,478.11,-0.064,0.02525,0.9895,-0.36,-0.62,-0.08,27180.0,17210.0,-33920.0
32.7588599,35.0228493,478.11,-0.058,0.01625,0.9945,0.2,-0.4,-0.06,27230.0,16990.0,-33910.0
32.7588599,35.0228493,478.11,-0.0685,0.038,0.995,0.34,0.12,0.02,27250.0,16800.0,-33910.0
32.7588599,35.0228493,478.11,-0.07575,0.044,0.9985,0.22,0.78,0.02,27300.0,16780.0,-33910.0
32.7588599,35.0228493,478.11,-0.074,0.0185,1.0045,-0.36,0.54,0.08,27360.0,16780.0,-33910.0
32.7588599,35.0228493,478.11,-0.081,0.016,0.99625,-0.62,-0.02,0.06,27330.0,16730.0,-33910.0
32.7588599,35.0228493,478.11,-0.07725,0.04625,0.983,0.34,-0.34,-0.08,27320.0,16720.0,-33910.0
32.7588599,35.0228493,478.11,-0.065,0.04825,0.99575,0.94,-0.6,0.0,27350.0,16810.0,-33910.0
32.7588599,35.0228493,478.11,-0.05625,0.02075,1.0125,-0.1,-0.6,-0.06,27340.0,16780.0,-33910.0
32.7588599,35.0228493,478.11,-0.06625,0.02,0.99975,-1.12,0.02,-0.08,27300.0,16920.0,-33910.0
32.7588599,35.0228493,478.11,-0.07575,0.03775,0.98225,-0.3,0.88,0.04,27250.0,17050.0,-33920.0
32.7588599,35.0228493,478.11,-0.07675,0.03375,0.99275,0.96,0.94,0.14,27160.0,17070.0,-33920.0
32.7588599,35.0228493,478.11,-0.079,0.0305,1.00675,0.52,0.06,0.06,27130.0,17070.0,-33920.0
32.7588599,35.0228493,478.11,-0.07925,0.042,0.99975,-0.58,-0.56,-0.02,27150.0,17100.0,-33920.0
32.7588599,35.0228493,478.11,-0.0675,0.03575,0.989,-0.7,-0.7,-0.1,27120.0,17140.0,-33920.0
32.7588599,35.0228493,478.11,-0.05525,0.0155,0.993,-0.08,-0.44,-0.1,27100.0,17150.0,-33920.0
32.7588599,35.0228493,478.11,-0.061,0.02575,0.99525,0.36,-0.02,0.06,27120.0,17220.0,-33920.0
32.7588599,35.0228493,478.11,-0.074,0.048,0.995,0.4,0.62,0.1,27170.0,17260.0,-33920.0
32.7588599,35.0228493,478.11,-0.07825,0.033,1.00075,-0.12,0.78,0.06,27140.0,17200.0,-33920.0
32.7588599,35.0228493,478.11,-0.07875,0.012,1.002,-0.56,0.18,0.02,27150.0,17210.0,-33920.0
32.7588599,35.0228493,478.11,-0.08075,0.032,0.9875,-0.12,-0.2,0.04,27160.0,17160.0,-33920.0
32.7588599,35.0228493,478.11,-0.07125,0.05225,0.98725,0.9,-0.4,-0.02,27110.0,17110.0,-33920.0
32.7588599,35.0228493,478.11,-0.0575,0.033,1.00475,0.46,-0.56,-0.04,27140.0,17140.0,-33920.0
32.7588599,35.0228493,478.11,-0.05925,0.017,1.006,-0.86,-0.42,-0.04,27130.0,17130.0,-33920.0
32.7588599,35.0228493,478.11,-0.07125,0.03225,0.98675,-0.74,0.34,0.02,27130.0,17160.0,-33920.0
32.7588599,35.0228493,478.11,-0.07575,0.03925,0.98475,0.54,0.86,0.06,27170.0,17170.0,-33920.0
32.7588599,35.0228493,478.1,-0.07775,0.02975,1.0055,0.9,0.54,0.2,27210.0,17210.0,-33920.0
32.7588599,35.0228493,478.1,-0.0825,0.036,1.00525,-0.2,-0.2,0.04,27180.0,17290.0,-33930.0
32.7588599,35.0228493,478.1,-0.079,0.04175,0.99175,-0.72,-0.38,-0.06,27150.0,17260.0,-33930.0
32.7588599,35.0228493,478.1,-0.0625,0.0235,0.98925,-0.28,-0.62,-0.06,27150.0,17190.0,-33920.0
32.7588599,35.0228493,478.1,-0.0565,0.01825,0.99625,0.26,-0.46,-0.04,27150.0,17160.0,-33920.0
32.7588599,35.0228493,478.1,-0.0645,0.043,0.99525,0.38,0.06,-0.12,27180.0,17130.0,-33920.0
32.7588599,35.0228493,478.1,-0.073,0.0445,0.99825,0.1,0.7,0.08,27180.0,17210.0,-33920.0
32.7588599,35.0228493,478.1,-0.07525,0.01575,1.006,-0.48,0.5,0.08,27150.0,17250.0,-33930.0
32.7588599,35.0228493,478.1,-0.08125,0.01825,0.99175,-0.5,0.26,0.04,27170.0,17330.0,-33930.0
32.7588599,35.0228493,478.1,-0.0805,0.0485,0.98475,0.52,-0.14,-0.06,27200.0,17350.0,-33930.0
32.7588599,35.0228493,478.1,-0.06775,0.0465,0.99325,0.84,-0.48,-0.06,27170.0,17320.0,-33930.0
32.7588599,35.0228493,478.1,-0.05825,0.02125,1.00625,-0.26,-0.88,-0.08,27150.0,17340.0,-33930.0
32.7588599,35.0228493,478.1,-0.06575,0.02275,0.998,-1.12,-0.14,-0.06,27150.0,17240.0,-33920.0
32.7588599,35.0228493,478.1,-0.07275,0.03525,0.982,-0.08,0.8,0.0,27160.0,17160.0,-33920.0
32.7588599,35.0228493,478.1,-0.072,0.0305,0.9945,0.96,0.9,0.12,27170.0,17150.0,-33920.0
32.7588599,35.0228493,478.1,-0.08025,0.03175,1.0075,0.44,0.2,0.1,27160.0,17110.0,-33920.0
32.7588599,35.0228493,478.1,-0.081,0.04525,0.997,-0.6,-0.42,-0.06,27150.0,17180.0,-33920.0
32.7588599,35.0228493,478.1,-0.06975,0.0325,0.989,-0.66,-0.72,-0.06,27140.0,17230.0,-33920.0
32.7588599,35.0228493,478.1,-0.05675,0.01125,0.99275,-0.18,-0.62,-0.08,27160.0,17200.0,-33920.0
32.7588599,35.0228493,478.1,-0.06175,0.02725,0.991,0.4,-0.08,-0.08,27130.0,17170.0,-33920.0
32.7588599,35.0228493,478.11,-0.0715,0.04825,0.9965,0.66,0.64,0.08,27120.0,17210.0,-33920.0
32.7588599,35.0228493,478.11,-0.07175,0.0315,1.0015,-0.06,0.78,0.1,27170.0,17300.0,-33920.0
32.7588599,35.0228493,478.11,-0.07875,0.0145,1.0025,-0.76,0.32,-0.02,27200.0,17250.0,-33920.0
32.7588599,35.0228493,478.11,-0.08175,0.035,0.987,-0.26,-0.16,-0.04,27160.0,17230.0,-33920.0
32.7588599,35.0228493,478.11,-0.07275,0.04825,0.98475,0.88,-0.46,-0.02,27160.0,17250.0,-33920.0
32.7588599,35.0228493,478.11,-0.0575,0.028,1.00825,0.52,-0.76,0.0,27150.0,17200.0,-33920.0
32.7588599,35.0228493,478.11,-0.06,0.02175,1.0075,-0.78,-0.5,-0.04,27130.0,17180.0,-33920.0
32.7588599,35.0228493,478.11,-0.07125,0.036,0.98675,-0.68,0.52,0.0,27130.0,17150.0,-33920.0
32.7588599,35.0228493,478.11,-0.0705,0.0345,0.98825,0.48,1.08,0.2,27140.0,17170.0,-33920.0
32.7588599,35.0228493,478.11,-0.07975,0.028,1.0035,0.76,0.66,0.14,27120.0,17170.0,-33920.0
32.7588599,35.0228493,478.11,-0.085,0.0405,1.00125,-0.12,-0.16,-0.02,27140.0,17240.0,-33920.0
32.7588599,35.0228493,478.11,-0.07825,0.0415,0.99075,-0.58,-0.64,0.02,27180.0,17320.0,-33920.0
32.7588599,35.0228493,478.11,-0.0605,0.01825,0.99425,-0.46,-0.84,-0.02,27140.0,17250.0,-33920.0
32.7588599,35.0228493,478.11,-0.05725,0.01975,0.9915,0.06,-0.4,0.0,27170.0,17220.0,-33920.0
32.7588599,35.0228493,478.11,-0.0675,0.04625,0.9935,0.66,0.26,-0.02,27170.0,17200.0,-33920.0
32.7588599,35.0228493,478.11,-0.07175,0.0395,1.00225,0.3,0.82,0.08,27140.0,17210.0,-33920.0
32.7588599,35.0228493,478.11,-0.07575,0.01375,1.0075,-0.66,0.52,0.14,27120.0,17270.0,-33920.0
32.7588599,35.0228493,478.11,-0.0815,0.0235,0.9915,-0.68,0.0,0.02,27170.0,17280.0,-33920.0
32.7588599,35.0228493,478.11,-0.077,0.048,0.9815,0.56,-0.26,-0.04,27170.0,17270.0,-33920.0
32.7588599,35.0228493,478.11,-0.06175,0.0395,0.998,0.9,-0.64,-0.02,27150.0,17210.0,-33920.0
32.7588599,35.0228493,478.1,-0.05825,0.02125,1.01025,-0.38,-0.66,-0.04,27170.0,17260.0,-33920.0
32.7588599,35.0228493,478.1,-0.068,0.02925,0.99425,-1.06,0.06,0.0,27190.0,17370.0,-33930.0
32.7588599,35.0228493,478.1,-0.0735,0.03525,0.98425,0.04,0.92,0.06,27190.0,17360.0,-33920.0
32.7588599,35.0228493,478.1,-0.07475,0.0265,0.99925,0.82,0.7,0.1,27190.0,17320.0,-33920.0
32.7588599,35.0228493,478.1,-0.0795,0.03475,1.003,0.28,0.02,0.06,27180.0,17280.0,-33920.0
32.7588599,35.0228493,478.1,-0.0785,0.04675,0.99425,-0.46,-0.38,-0.06,27180.0,17240.0,-33920.0
32.7588599,35.0228493,478.1,-0.065,0.03,0.991,-0.44,-0.6,-0.06,27200.0,17270.0,-33920.0
32.7588599,35.0228493,478.1,-0.05775,0.014,0.994,-0.06,-0.48,-0.08,27240.0,17310.0,-33920.0
32.7588599,35.0228493,478.1,-0.0665,0.03325,0.99325,0.24,0.12,-0.02,27210.0,17370.0,-33920.0
32.7588599,35.0228493,478.1,-0.075,0.04475,0.996,0.4,0.66,0.08,27210.0,17380.0,-33930.0
32.7588599,35.0228493,478.1,-0.07675,0.0225,1.00525,-0.18,0.6,0.1,27250.0,17410.0,-33920.0
32.7588599,35.0228493,478.1,-0.0795,0.01725,0.998,-0.58,0.04,0.04,27230.0,17410.0,-33930.0
32.7588599,35.0228493,478.1,-0.07875,0.04375,0.9855,0.04,-0.3,-0.08,27200.0,17300.0,-33920.0
32.7588599,35.0228493,478.1,-0.066,0.047,0.992,0.74,-0.5,-0.04,27180.0,17230.0,-33920.0
32.7588599,35.0228493,478.1,-0.056,0.02125,1.00975,0.02,-0.58,-0.06,27130.0,17160.0,-33920.0
32.7588599,35.0228493,478.1,-0.06325,0.01925,0.999,-0.92,-0.18,-0.06,27160.0,17140.0,-33920.0
32.7588599,35.0228493,478.1,-0.074,0.037,0.98375,-0.28,0.72,-0.02,27220.0,17210.0,-33920.0
32.7588599,35.0228493,478.1,-0.07725,0.035,0.992,0.86,0.84,0.08,27200.0,17260.0,-33920.0
32.7588599,35.0228493,478.1,-0.08,0.02925,1.00475,0.46,0.24,0.08,27180.0,17270.0,-33920.0
32.7588599,35.0228493,478.1,-0.0835,0.0405,1.0005,-0.52,-0.32,-0.04,27180.0,17210.0,-33920.0
32.7588599,35.0228493,478.1,-0.0745,0.036,0.98875,-0.5,-0.5,0.02,27190.0,17240.0,-33920.0
32.7588599,35.0228493,478.1,-0.05875,0.0155,0.99375,-0.06,-0.58,-0.02,27220.0,17330.0,-33920.0
32.7588599,35.0228493,478.1,-0.05825,0.0235,0.995,0.28,-0.34,-0.06,27230.0,17380.0,-33930.0
32.7588599,35.0228493,478.1,-0.0675,0.049,0.994,0.42,0.3,0.04,27240.0,17370.0,-33930.0
32.7588599,35.0228493,478.1,-0.0725,0.037,1.001,0.0,0.66,-0.04,27210.0,17250.0,-33920.0
32.7588599,35.0228493,478.1,-0.0755,0.012,1.0045,-0.6,0.38,0.04,27170.0,17150.0,-33920.0
32.7588599,35.0228493,478.1,-0.08225,0.027,0.98925,-0.32,0.08,0.02,27130.0,17140.0,-33920.0
32.7588599,35.0228493,478.1,-0.07775,0.051,0.9865,0.66,-0.22,0.02,27060.0,17140.0,-33920.0
32.7588599,35.0228493,478.1,-0.063,0.0375,0.99975,0.6,-0.6,-0.04,27070.0,17120.0,-33920.0
32.7588599,35.0228493,478.1,-0.05875,0.01825,1.00725,-0.58,-0.62,-0.06,27080.0,17090.0,-33920.0
32.7588599,35.0228493,478.1,-0.06875,0.03125,0.989,-0.8,0.1,-0.06,27110.0,17130.0,-33920.0
32.7588599,35.0228493,478.1,-0.07325,0.04,0.98375,0.46,0.82,0.1,27110.0,17150.0,-33920.0
32.7588599,35.0228493,478.1,-0.07375,0.03,1.00375,0.88,0.68,0.14,27100.0,17160.0,-33920.0
32.7588599,35.0228493,478.1,-0.08,0.0345,1.00525,-0.1,-0.02,0.02,27090.0,17160.0,-33920.0
32.7588599,35.0228493,478.1,-0.08125,0.04375,0.99125,-0.68,-0.3,-0.02,27100.0,17090.0,-33920.0
32.7588599,35.0228493,478.1,-0.06725,0.02775,0.98975,-0.22,-0.48,-0.02,27110.0,17090.0,-33920.0
32.7588599,35.0228493,478.1,-0.05925,0.0165,0.99525,0.14,-0.42,-0.08,27060.0,17070.0,-33920.0
32.7588599,35.0228493,478.1,-0.066,0.03775,0.99425,0.3,-0.1,0.02,27090.0,17140.0,-33920.0
32.7588599,35.0228493,478.1,-0.07275,0.046,0.998,0.22,0.52,0.02,27140.0,17160.0,-33920.0
32.7588599,35.0228493,478.1,-0.07275,0.02025,1.004,-0.34,0.48,0.1,27110.0,17130.0,-33920.0
32.7588599,35.0228493,478.1,-0.077,0.015,0.9975,-0.48,0.1,-0.02,27130.0,17200.0,-33920.0
32.7588599,35.0228493,478.1,-0.08025,0.04375,0.98575,0.28,-0.12,-0.04,27130.0,17300.0,-33930.0
32.7588599,35.0228493,478.1,-0.06925,0.04825,0.99175,0.8,-0.36,0.0,27140.0,17240.0,-33930.0
32.7588599,35.0228493,478.1,-0.059,0.02125,1.0095,-0.14,-0.56,-0.04,27220.0,16940.0,-33920.0
32.7588599,35.0228493,478.1,-0.06525,0.0195,0.998,-1.0,-0.26,-0.06,27260.0,16750.0,-33910.0
32.7588599,35.0228493,478.1,-0.07375,0.03775,0.982,-0.14,0.52,0.0,27210.0,16620.0,-33910.0
32.7588599,35.0228493,478.1,-0.074,0.03525,0.99525,0.88,0.72,0.16,27230.0,16560.0,-33910.0
32.7588599,35.0228493,478.1,-0.07625,0.02975,1.007,0.42,0.12,0.14,27280.0,16560.0,-33900.0
32.7588599,35.0228493,478.1,-0.0805,0.04025,0.99875,-0.66,-0.18,-0.04,27340.0,16640.0,-33910.0
32.7588599,35.0228493,478.1,-0.07275,0.0365,0.988,-0.56,-0.4,-0.02,27360.0,16710.0,-33910.0
32.7588599,35.0228493,478.1,-0.0595,0.0165,0.99375,0.04,-0.46,-0.04,27320.0,16850.0,-33910.0
32.7588599,35.0228493,478.1,-0.0605,0.02375,0.99625,0.34,-0.26,0.0,27260.0,17110.0,-33920.0
32.7588599,35.0228493,478.1,-0.07075,0.04725,0.9965,0.24,0.32,0.0,27230.0,17210.0,-33920.0
32.7588599,35.0228493,478.1,-0.0745,0.0345,0.99975,-0.14,0.6,0.12,27230.0,17220.0,-33920.0
32.7588599,35.0228493,478.1,-0.07525,0.01075,1.0035,-0.56,0.36,0.08,27210.0,17170.0,-33920.0
32.7588599,35.0228493,478.1,-0.08,0.02725,0.99025,-0.16,-0.04,0.0,27170.0,17200.0,-33920.0
32.7588599,35.0228493,478.1,-0.075,0.0505,0.98575,0.76,-0.24,-0.02,27160.0,17230.0,-33920.0
32.7588599,35.0228493,478.1,-0.06175,0.035,1.00275,0.42,-0.5,0.0,27180.0,17280.0,-33920.0
32.7588599,35.0228493,478.1,-0.06025,0.016,1.006,-0.7,-0.5,-0.02,27180.0,17300.0,-33920.0
32.7588599,35.0228493,478.1,-0.072,0.02975,0.98775,-0.72,0.14,-0.02,27200.0,17290.0,-33920.0
32.7588599,35.0228493,478.1,-0.07675,0.0385,0.98525,0.54,0.84,0.06,27190.0,17310.0,-33920.0
32.7588599,35.0228493,478.1,-0.07625,0.02925,1.00275,0.82,0.58,0.18,27170.0,17390.0,-33930.0
32.7588599,35.0228493,478.1,-0.0795,0.033,1.00375,-0.22,-0.18,0.08,27180.0,17360.0,-33930.0
32.7588599,35.0228493,478.1,-0.079,0.04175,0.99225,-0.72,-0.48,-0.06,27180.0,17290.0,-33920.0
32.7588599,35.0228493,478.1,-0.06425,0.02725,0.98825,-0.12,-0.58,-0.04,27140.0,17270.0,-33920.0
32.7588599,35.0228493,478.1,-0.057,0.01725,0.9965,0.28,-0.38,-0.06,27140.0,17230.0,-33920.0
32.7588599,35.0228493,478.1,-0.066,0.03925,0.99575,0.32,0.04,0.04,27160.0,17250.0,-33920.0
32.7588599,35.0228493,478.1,-0.07475,0.0465,0.9955,0.12,0.66,0.1,27120.0,17220.0,-33920.0
32.7588599,35.0228493,478.1,-0.07475,0.02025,1.00425,-0.28,0.44,0.1,27140.0,17220.0,-33920.0
32.7588599,35.0228493,478.1,-0.07725,0.01525,0.99725,-0.48,0.02,-0.04,27150.0,17260.0,-33920.0
32.7588599,35.0228493,478.1,-0.078,0.04525,0.98475,0.32,-0.2,-0.06,27140.0,17330.0,-33920.0
32.7588599,35.0228493,478.1,-0.0665,0.05175,0.9935,0.8,-0.38,0.04,27180.0,17380.0,-33930.0
32.7588599,35.0228493,478.1,-0.05675,0.02475,1.0085,-0.14,-0.52,-0.04,27220.0,17280.0,-33920.0
32.7588599,35.0228493,478.1,-0.0645,0.02025,0.99775,-1.02,-0.18,-0.08,27180.0,17230.0,-33920.0
32.7588599,35.0228493,478.1,-0.07475,0.03775,0.984,-0.14,0.7,0.02,27140.0,17290.0,-33920.0
32.7588599,35.0228493,478.1,-0.07625,0.03675,0.993,0.88,0.88,0.1,27110.0,17230.0,-33920.0
32.7588599,35.0228493,478.1,-0.07875,0.0295,1.0085,0.4,0.26,0.1,27150.0,17260.0,-33920.0
32.7588599,35.0228493,478.1,-0.0815,0.04075,0.99825,-0.68,-0.3,-0.04,27160.0,17280.0,-33920.0
32.7588599,35.0228493,478.1,-0.073,0.0395,0.98725,-0.68,-0.48,-0.02,27160.0,17270.0,-33920.0
32.7588599,35.0228493,478.1,-0.05875,0.0185,0.993,0.06,-0.52,-0.08,27130.0,17220.0,-33920.0
32.7588599,35.0228493,478.1,-0.0605,0.0235,0.99625,0.36,-0.32,-0.02,27150.0,17270.0,-33920.0
32.7588599,35.0228493,478.1,-0.0725,0.04575,0.99625,0.18,0.34,-0.02,27210.0,17360.0,-33920.0
32.7588599,35.0228493,478.1,-0.07725,0.035,0.99925,-0.06,0.7,0.1,27210.0,17300.0,-33920.0
32.7588599,35.0228493,478.1,-0.07775,0.01175,1.003,-0.46,0.34,0.06,27150.0,17260.0,-33920.0
32.7588599,35.0228493,478.1,-0.08075,0.0265,0.989,-0.16,-0.18,-0.02,27120.0,17250.0,-33920.0
32.7588599,35.0228493,478.1,-0.07475,0.05275,0.98675,0.7,-0.38,0.0,27150.0,17230.0,-33920.0
32.7588599,35.0228493,478.1,-0.05975,0.03775,1.001,0.46,-0.6,0.04,27180.0,17200.0,-33920.0
32.7588599,35.0228493,478.1,-0.05775,0.01425,1.0075,-0.78,-0.54,-0.06,27210.0,17160.0,-33920.0
32.7588599,35.0228493,478.1,-0.06975,0.02625,0.98975,-0.82,0.2,-0.04,27210.0,17190.0,-33920.0
32.7588599,35.0228493,478.1,-0.076,0.03925,0.9835,0.54,0.94,0.12,27220.0,17260.0,-33920.0
32.7588599,35.0228493,478.1,-0.07625,0.03075,1.00375,0.88,0.66,0.16,27230.0,17310.0,-33920.0
32.7588599,35.0228493,478.1,-0.079,0.03125,1.00675,-0.12,-0.08,-0.04,27240.0,17370.0,-33920.0
32.7588599,35.0228493,478.1,-0.078,0.0405,0.99175,-0.8,-0.52,-0.04,27220.0,17380.0,-33930.0
32.7588599,35.0228493,478.1,-0.06325,0.0275,0.98825,-0.26,-0.6,0.04,27210.0,17350.0,-33930.0
32.7588599,35.0228493,478.1,-0.055,0.01425,0.99625,0.4,-0.36,-0.06,27210.0,17270.0,-33920.0
32.7588599,35.0228493,478.1,-0.064,0.03425,0.99525,0.28,-0.02,0.02,27190.0,17210.0,-33920.0
32.7588599,35.0228493,478.1,-0.07525,0.04675,0.99625,0.08,0.72,0.06,27200.0,17220.0,-33920.0
32.7588599,35.0228493,478.1,-0.0765,0.02225,1.00175,-0.32,0.6,0.06,27200.0,17260.0,-33920.0
32.7588599,35.0228493,478.1,-0.07875,0.012,0.9985,-0.38,0.12,0.02,27180.0,17230.0,-33920.0
32.7588599,35.0228493,478.1,-0.08,0.0415,0.9865,0.26,-0.26,-0.04,27180.0,17170.0,-33920.0
32.7588599,35.0228493,478.1,-0.068,0.052,0.991,0.76,-0.46,0.06,27190.0,17180.0,-33920.0
32.7588599,35.0228493,478.1,-0.05625,0.0255,1.00875,-0.06,-0.6,-0.04,27210.0,17290.0,-33920.0
32.7588599,35.0228493,478.1,-0.0635,0.0185,0.9995,-0.96,-0.26,-0.04,27220.0,17220.0,-33920.0
32.7588599,35.0228493,478.1,-0.07475,0.037,0.98275,-0.28,0.64,0.0,27200.0,17150.0,-33920.0
32.7588599,35.0228493,478.1,-0.07675,0.0385,0.9915,0.9,0.98,0.14,27190.0,17130.0,-33920.0
32.7588599,35.0228493,478.1,-0.07925,0.02975,1.0085,0.56,0.28,0.1,27170.0,17120.0,-33920.0
32.7588599,35.0228493,478.1,-0.08225,0.0395,1.0,-0.56,-0.24,0.02,27160.0,17130.0,-33920.0
32.7588599,35.0228493,478.1,-0.07475,0.0405,0.98825,-0.7,-0.5,-0.06,27140.0,17080.0,-33920.0
32.7588599,35.0228493,478.1,-0.05925,0.01975,0.9925,0.06,-0.54,-0.04,27150.0,17070.0,-33920.0
32.7588599,35.0228493,478.1,-0.05825,0.02225,0.99675,0.26,-0.3,-0.06,27160.0,17060.0,-33920.0
32.7588599,35.0228493,478.1,-0.06925,0.04725,0.99625,0.22,0.28,0.02,27150.0,17130.0,-33920.0
32.7588599,35.0228493,478.1,-0.075,0.0395,0.99775,-0.12,0.72,0.06,27110.0,17150.0,-33920.0
32.7588599,35.0228493,478.1,-0.07625,0.01275,1.004,-0.48,0.42,0.08,27070.0,17120.0,-33920.0
32.7588599,35.0228493,478.1,-0.081,0.024,0.991,-0.28,-0.04,-0.06,27100.0,17110.0,-33920.0
32.7588599,35.0228493,478.1,-0.0775,0.05175,0.985,0.64,-0.26,-0.02,27100.0,17090.0,-33920.0
32.7588599,35.0228493,478.1,-0.06225,0.04075,0.9985,0.62,-0.56,0.02,27110.0,17070.0,-33920.0
32.7588599,35.0228493,478.1,-0.05775,0.016,1.0085,-0.62,-0.62,-0.02,27100.0,17120.0,-33920.0
32.7588599,35.0228493,478.1,-0.0675,0.02575,0.99025,-0.86,0.04,-0.04,27110.0,17160.0,-33920.0
32.7588599,35.0228493,478.1,-0.0735,0.03875,0.98325,0.32,0.8,0.08,27130.0,17120.0,-33920.0
32.7588599,35.0228493,478.1,-0.074,0.03125,1.0005,0.92,0.66,0.08,27120.0,17110.0,-33920.0
32.7588599,35.0228493,478.1,-0.07875,0.0325,1.0065,-0.04,-0.04,0.08,27110.0,17160.0,-33920.0
32.7588599,35.0228493,478.1,-0.0805,0.04225,0.9935,-0.76,-0.32,-0.1,27170.0,17310.0,-33930.0
32.7588599,35.0228493,478.1,-0.06725,0.02775,0.98775,-0.36,-0.48,0.02,27170.0,17360.0,-33930.0
32.7588599,35.0228493,478.1,-0.05825,0.012,0.997,0.14,-0.42,-0.12,27160.0,17410.0,-33930.0
32.7588599,35.0228493,478.1,-0.06425,0.03375,0.99475,0.28,-0.12,-0.04,27100.0,17380.0,-33930.0
32.7588599,35.0228493,478.1,-0.073,0.0485,0.9955,0.28,0.56,0.06,27090.0,17230.0,-33930.0
32.7588599,35.0228493,478.1,-0.07375,0.0245,1.003,-0.32,0.58,0.1,27090.0,17190.0,-33920.0
32.7588599,35.0228493,478.1,-0.0775,0.01325,0.9985,-0.52,0.18,-0.02,27100.0,17190.0,-33920.0
32.7588599,35.0228493,478.1,-0.08125,0.03875,0.98675,0.12,-0.12,-0.02,27130.0,17190.0,-33920.0
32.7588599,35.0228493,478.1,-0.0715,0.0485,0.9905,0.86,-0.32,-0.02,27150.0,17190.0,-33920.0
32.7588599,35.0228493,478.1,-0.05925,0.024,1.00825,0.14,-0.56,0.0,27160.0,17270.0,-33920.0
32.7588599,35.0228493,478.1,-0.06275,0.01975,1.00025,-0.86,-0.36,-0.04,27180.0,17350.0,-33930.0
32.7588599,35.0228493,478.1,-0.07175,0.038,0.98375,-0.24,0.48,0.04,27180.0,17370.0,-33930.0
32.7588599,35.0228493,478.1,-0.073,0.03725,0.99175,0.76,0.76,0.06,27180.0,17400.0,-33930.0
32.7588599,35.0228493,478.1,-0.07575,0.02825,1.008,0.38,0.32,0.08,27190.0,17380.0,-33930.0
32.7588599,35.0228493,478.1,-0.08175,0.0385,1.001,-0.5,-0.14,-0.02,27170.0,17310.0,-33920.0
32.7588599,35.0228493,478.1,-0.076,0.0375,0.988,-0.56,-0.34,-0.04,27150.0,17240.0,-33920.0
32.7588599,35.0228493,478.1,-0.0615,0.018,0.9935,0.06,-0.48,-0.02,27180.0,17260.0,-33920.0
32.7588599,35.0228493,478.1,-0.06,0.023,0.99525,0.24,-0.36,-0.06,27210.0,17300.0,-33920.0
32.7588599,35.0228493,478.1,-0.0685,0.04725,0.99525,0.32,0.14,0.02,27180.0,17320.0,-33920.0
32.7588599,35.0228493,478.1,-0.0725,0.0385,0.99975,-0.02,0.58,0.08,27170.0,17330.0,-33920.0
32.7588599,35.0228493,478.1,-0.07375,0.01225,1.00325,-0.52,0.32,0.04,27210.0,17420.0,-33930.0
32.7588599,35.0228493,478.1,-0.08025,0.02475,0.99225,-0.28,0.08,0.04,27180.0,17360.0,-33920.0
32.7588599,35.0228493,478.1,-0.078,0.05075,0.986,0.7,-0.18,0.0,27180.0,17310.0,-33920.0
32.7588599,35.0228493,478.1,-0.064,0.0385,0.998,0.54,-0.54,0.02,27180.0,17280.0,-33920.0
32.7588599,35.0228493,478.1,-0.0595,0.0185,1.0085,-0.66,-0.62,-0.06,27160.0,17210.0,-33920.0
32.7588599,35.0228493,478.1,-0.069,0.02925,0.98975,-0.78,0.02,0.0,27210.0,17200.0,-33920.0
32.7588599,35.0228493,478.1,-0.07325,0.039,0.984,0.36,0.74,0.04,27230.0,17180.0,-33920.0
32.7588599,35.0228493,478.1,-0.073,0.03,1.00225,0.88,0.66,0.16,27210.0,17200.0,-33920.0
32.7588599,35.0228493,478.1,-0.07925,0.0345,1.00425,-0.04,0.04,0.02,27160.0,17200.0,-33920.0
32.7588599,35.0228493,478.1,-0.081,0.04425,0.99225,-0.64,-0.22,-0.1,27200.0,17140.0,-33920.0
32.7588599,35.0228493,478.1,-0.06825,0.02825,0.9895,-0.24,-0.44,-0.02,27300.0,16980.0,-33910.0
32.7588599,35.0228493,478.1,-0.05975,0.015,0.99525,0.1,-0.44,-0.06,27330.0,16820.0,-33910.0
32.7588599,35.0228493,478.1,-0.0655,0.0365,0.9945,0.28,-0.14,-0.02,27360.0,16780.0,-33910.0
32.7588599,35.0228493,478.1,-0.0725,0.0485,0.99625,0.26,0.52,0.0,27330.0,16660.0,-33910.0
32.7588599,35.0228493,478.1,-0.073,0.02375,1.00325,-0.3,0.52,0.06,27300.0,16630.0,-33910.0
32.7588599,35.0228493,478.1,-0.0775,0.015,0.99925,-0.58,0.12,0.0,27330.0,16640.0,-33910.0
32.7588599,35.0228493,478.1,-0.08025,0.04175,0.986,0.16,-0.1,-0.02,27330.0,16650.0,-33910.0
32.7588599,35.0228493,478.1,-0.069,0.04775,0.9905,0.78,-0.28,0.06,27270.0,16850.0,-33910.0
32.7588599,35.0228493,478.1,-0.05825,0.0245,1.00825,-0.02,-0.6,-0.08,27220.0,17030.0,-33920.0
32.7588599,35.0228493,478.1,-0.0635,0.0225,0.99925,-0.9,-0.32,-0.08,27230.0,17180.0,-33920.0
32.7588599,35.0228493,478.1,-0.07325,0.037,0.98525,-0.32,0.52,0.06,27210.0,17310.0,-33920.0
32.7588599,35.0228493,478.1,-0.07425,0.03225,0.994,0.72,0.76,0.12,27220.0,17270.0,-33920.0
32.7588599,35.0228493,478.1,-0.077,0.0275,1.00575,0.4,0.3,0.14,27220.0,17240.0,-33920.0
32.7588599,35.0228493,478.1,-0.081,0.0415,0.99875,-0.44,-0.2,-0.08,27190.0,17190.0,-33920.0
32.7588599,35.0228493,478.1,-0.07225,0.03775,0.98925,-0.5,-0.46,-0.04,27190.0,17180.0,-33920.0
32.7588599,35.0228493,478.1,-0.059,0.0155,0.99525,-0.06,-0.54,0.0,27210.0,17170.0,-33920.0
32.7588599,35.0228493,478.1,-0.06125,0.02175,0.99475,0.18,-0.24,-0.04,27190.0,17160.0,-33920.0
32.7588599,35.0228493,478.1,-0.07125,0.0455,0.993,0.28,0.38,0.0,27200.0,17170.0,-33920.0
32.7588599,35.0228493,478.1,-0.07475,0.0345,0.99825,0.14,0.76,0.08,27210.0,17180.0,-33920.0
32.7588599,35.0228493,478.1,-0.07675,0.013,1.0035,-0.46,0.3,0.02,27190.0,17210.0,-33920.0
32.7588599,35.0228493,478.1,-0.081,0.02925,0.99075,-0.16,-0.08,0.0,27230.0,17310.0,-33920.0
32.7588599,35.0228493,478.1,-0.0735,0.04925,0.9855,0.6,-0.36,0.02,27260.0,17330.0,-33920.0
32.7588599,35.0228493,478.1,-0.05925,0.0335,1.00175,0.4,-0.54,-0.04,27240.0,17340.0,-33920.0
32.7588599,35.0228493,478.1,-0.0585,0.01925,1.0055,-0.58,-0.48,-0.08,27260.0,17350.0,-33920.0
32.7588599,35.0228493,478.1,-0.06975,0.03275,0.98825,-0.6,0.26,-0.02,27260.0,17320.0,-33920.0
32.7588599,35.0228493,478.1,-0.07425,0.03775,0.98675,0.42,0.78,0.1,27240.0,17320.0,-33920.0
32.7588599,35.0228493,478.1,-0.07625,0.027,1.00375,0.68,0.56,0.08,27210.0,17310.0,-33920.0
32.7588599,35.0228493,478.1,-0.08175,0.03475,1.003,-0.1,-0.06,0.04,27230.0,17310.0,-33920.0
32.7588599,35.0228493,478.1,-0.0795,0.044,0.99125,-0.48,-0.3,0.0,27190.0,17230.0,-33920.0
32.7588599,35.0228493,478.1,-0.064,0.02625,0.99175,-0.14,-0.52,0.04,27190.0,17230.0,-33920.0
32.7588599,35.0228493,478.1,-0.058,0.0175,0.99675,0.1,-0.54,-0.1,27200.0,17310.0,-33920.0
32.7588599,35.0228493,478.1,-0.066,0.03925,0.99475,0.16,0.0,-0.02,27180.0,17240.0,-33920.0
32.7588599,35.0228493,478.1,-0.0725,0.043,0.99625,0.18,0.56,0.02,27150.0,17180.0,-33920.0
32.7588599,35.0228493,478.1,-0.07475,0.0185,1.00575,-0.2,0.54,0.08,27140.0,17160.0,-33920.0
32.7588599,35.0228493,478.1,-0.08025,0.02075,0.9965,-0.38,0.14,-0.02,27150.0,17100.0,-33920.0
32.7588599,35.0228493,478.1,-0.0805,0.04775,0.9865,0.38,-0.16,-0.02,27150.0,17090.0,-33920.0
32.7588599,35.0228493,478.1,-0.06675,0.0445,0.9945,0.68,-0.46,-0.02,27150.0,17050.0,-33920.0
32.7588599,35.0228493,478.1,-0.058,0.0205,1.00725,-0.26,-0.64,-0.14,27130.0,17080.0,-33920.0
32.7588599,35.0228493,478.1,-0.066,0.02475,0.995,-0.84,-0.24,-0.02,27080.0,17070.0,-33920.0
32.7588599,35.0228493,478.1,-0.07325,0.039,0.984,0.1,0.74,0.02,27140.0,17150.0,-33920.0
32.7588599,35.0228493,478.1,-0.07425,0.03225,0.997,0.8,0.78,0.12,27150.0,17200.0,-33920.0
32.7588599,35.0228493,478.1,-0.0795,0.0315,1.00575,0.14,0.16,0.04,27130.0,17170.0,-33920.0
32.7588599,35.0228493,478.1,-0.08275,0.04425,0.9955,-0.54,-0.16,-0.02,27090.0,17120.0,-33920.0
32.7588599,35.0228493,478.1,-0.07025,0.034,0.98825,-0.3,-0.52,-0.04,27110.0,17130.0,-33920.0
32.7588599,35.0228493,478.1,-0.05775,0.01475,0.997,-0.02,-0.58,-0.08,27110.0,17110.0,-33920.0
32.7588599,35.0228493,478.1,-0.061,0.02875,0.994,0.16,-0.32,0.0,27130.0,17170.0,-33920.0
32.7588599,35.0228493,478.1,-0.069,0.04775,0.99425,0.3,0.46,-0.02,27140.0,17190.0,-33920.0
32.7588599,35.0228493,478.1,-0.07225,0.02875,1.00225,-0.02,0.62,0.04,27130.0,17140.0,-33920.0
