Lat_GNSS,Long_GNSS,Height_GNSS,Acc_X,Acc_Y,Acc_Z,Gyro_X,Gyro_Y,Gyro_Z,Magn_X,Magn_Y,Magn_Z
32.7643164,35.0164574,482.81,-0.04575,-0.03375,0.99725,-0.14,-0.84,-0.06,34270.0,-2870.0,-32090.0
32.7643164,35.0164574,482.81,-0.04875,-0.02025,0.994,0.1,-0.36,-0.08,34250.0,-2800.0,-32110.0
32.7643164,35.0164574,482.81,-0.0545,-0.00875,0.9995,0.26,0.48,0.0,34280.0,-2790.0,-32110.0
32.7643164,35.0164574,482.81,-0.05675,-0.025,1.0085,-0.16,0.74,0.12,34260.0,-2820.0,-32100.0
32.7643164,35.0164574,482.81,-0.06625,-0.03275,0.99675,-0.58,0.5,0.02,34280.0,-2830.0,-32100.0
32.7643164,35.0164574,482.81,-0.07375,-0.0155,0.99,-0.14,0.18,-0.04,34280.0,-2810.0,-32100.0
32.7643164,35.0164574,482.81,-0.061,-0.0055,0.99575,0.56,-0.38,0.02,34250.0,-2800.0,-32100.0
32.7643164,35.0164574,482.81,-0.048,-0.018,1.00375,0.14,-0.8,-0.12,34240.0,-2760.0,-32110.0
32.7643164,35.0164574,482.81,-0.05,-0.02725,1.004,-0.8,-0.6,-0.04,34240.0,-2740.0,-32120.0
32.7643164,35.0164574,482.81,-0.0575,-0.01525,0.9855,-0.52,0.48,-0.06,34190.0,-2760.0,-32120.0
32.7643164,35.0164574,482.81,-0.0605,-0.0155,0.99375,0.56,0.88,0.06,34220.0,-2800.0,-32100.0
32.7643164,35.0164574,482.81,-0.06575,-0.02125,1.00675,0.54,0.64,0.08,34220.0,-2750.0,-32120.0
32.7643164,35.0164574,482.82,-0.07575,-0.00725,0.99675,-0.18,0.04,-0.02,34120.0,-2580.0,-32180.0
32.7643164,35.0164574,482.82,-0.068,-0.006,0.99925,-0.36,-0.32,0.0,34150.0,-2480.0,-32200.0
32.7643164,35.0164574,482.82,-0.051,-0.02225,0.99225,0.02,-0.68,-0.02,34190.0,-2520.0,-32180.0
32.7643164,35.0164574,482.82,-0.0505,-0.02175,0.99575,0.26,-0.68,-0.04,34200.0,-2590.0,-32160.0
32.7643164,35.0164574,482.82,-0.05575,0.001,0.99625,0.34,0.06,-0.08,34220.0,-2660.0,-32140.0
32.7643164,35.0164574,482.82,-0.05725,0.0015,0.99275,0.38,0.6,0.1,34180.0,-2690.0,-32130.0
32.7643164,35.0164574,482.82,-0.06275,-0.02325,1.0095,-0.1,0.56,0.1,34190.0,-2720.0,-32120.0
32.7643164,35.0164574,482.82,-0.07275,-0.01125,0.9935,-0.28,0.32,0.02,34150.0,-2720.0,-32120.0
32.7643164,35.0164574,482.82,-0.07075,0.0145,0.98525,0.52,-0.14,0.02,34170.0,-2710.0,-32130.0
32.7643164,35.0164574,482.82,-0.05275,0.00475,1.004,0.68,-0.58,0.0,34160.0,-2670.0,-32140.0
32.7643164,35.0164574,482.82,-0.05025,-0.01225,1.0075,-0.38,-0.86,-0.08,34210.0,-2650.0,-32140.0
32.7643164,35.0164574,482.82,-0.05575,-0.00425,0.995,-0.82,-0.12,-0.02,34240.0,-2690.0,-32120.0
32.7643164,35.0164574,482.82,-0.057,0.00275,0.987,0.1,0.7,0.02,34240.0,-2710.0,-32120.0
32.7643164,35.0164574,482.82,-0.06125,-0.0095,1.005,0.72,0.7,0.18,34240.0,-2730.0,-32110.0
32.7643164,35.0164574,482.82,-0.06925,-0.00575,1.00675,-0.02,0.28,0.08,34230.0,-2730.0,-32110.0
32.7643164,35.0164574,482.82,-0.07175,0.008,0.99275,-0.5,-0.02,0.02,34240.0,-2730.0,-32100.0
32.7643164,35.0164574,482.82,-0.05625,-0.00675,0.99575,-0.26,-0.48,0.0,34250.0,-2640.0,-32130.0
32.7643164,35.0164574,482.82,-0.048,-0.021,0.996,0.0,-0.68,-0.1,34240.0,-2530.0,-32160.0
32.7643164,35.0164574,482.82,-0.05375,-0.005,0.995,-0.04,-0.34,-0.02,34280.0,-2570.0,-32150.0
32.7643164,35.0164574,482.82,-0.05775,0.00525,0.9955,0.1,0.46,0.02,34260.0,-2590.0,-32150.0
32.7643164,35.0164574,482.82,-0.05975,-0.0165,1.0005,-0.18,0.66,0.12,34240.0,-2500.0,-32180.0
32.7643164,35.0164574,482.82,-0.067,-0.0285,1.0035,-0.58,0.38,0.02,34230.0,-2550.0,-32170.0
32.7643164,35.0164574,482.82,-0.06975,-0.001,0.984,0.08,0.08,-0.04,34300.0,-2810.0,-32130.0
32.7643164,35.0164574,482.82,-0.05725,0.00675,0.99025,0.64,-0.46,0.02,34440.0,-3050.0,-32080.0
32.7643164,35.0164574,482.82,-0.044,-0.01675,1.00875,-0.12,-0.84,-0.02,34510.0,-3230.0,-32040.0
32.7643164,35.0164574,482.82,-0.05025,-0.02275,0.998,-1.02,-0.5,-0.1,34490.0,-3260.0,-32050.0
32.7643164,35.0164574,482.82,-0.05775,-0.011,0.98875,-0.48,0.54,0.0,34500.0,-3300.0,-32050.0
32.7643164,35.0164574,482.82,-0.05875,-0.014,0.9895,0.64,1.02,0.08,34560.0,-3300.0,-32040.0
32.7643164,35.0164574,482.82,-0.067,-0.02175,1.008,0.32,0.54,0.06,34570.0,-3290.0,-32040.0
32.7643164,35.0164574,482.82,-0.07075,-0.00775,1.003,-0.42,0.1,-0.02,34580.0,-3230.0,-32050.0
32.7643164,35.0164574,482.82,-0.06125,-0.007,0.987,-0.44,-0.46,-0.12,34410.0,-3010.0,-32080.0
32.7643164,35.0164574,482.82,-0.047,-0.03125,1.00125,-0.12,-0.66,-0.1,34300.0,-2890.0,-32110.0
32.7643164,35.0164574,482.82,-0.04725,-0.02525,0.996,0.1,-0.26,-0.02,34270.0,-2780.0,-32130.0
32.7643164,35.0164574,482.82,-0.058,-0.00025,0.9945,0.28,0.38,0.04,34270.0,-2780.0,-32120.0
32.7643164,35.0164574,482.82,-0.0605,-0.01,1.0005,0.08,0.76,0.12,34240.0,-2800.0,-32120.0
32.7643164,35.0164574,482.82,-0.0675,-0.02975,1.001,-0.36,0.42,0.08,34240.0,-2780.0,-32120.0
32.7643164,35.0164574,482.82,-0.0735,-0.017,0.997,-0.34,0.02,-0.04,34220.0,-2690.0,-32140.0
32.7643164,35.0164574,482.82,-0.06675,0.00475,0.98525,0.56,-0.26,-0.02,34190.0,-2710.0,-32140.0
32.7643164,35.0164574,482.82,-0.053,-0.0095,0.9995,0.48,-0.56,0.0,34230.0,-2740.0,-32130.0
32.7643164,35.0164574,482.82,-0.048,-0.02375,1.01075,-0.46,-0.66,0.0,34230.0,-2730.0,-32130.0
32.7643164,35.0164574,482.82,-0.0575,-0.00975,0.98925,-0.56,0.12,-0.06,34150.0,-2630.0,-32170.0
32.7643164,35.0164574,482.82,-0.05925,-0.00925,0.9895,0.38,0.74,0.04,34160.0,-2670.0,-32160.0
32.7643164,35.0164574,482.82,-0.0625,-0.0175,1.00325,0.66,0.58,0.1,34250.0,-2730.0,-32130.0
32.7643164,35.0164574,482.82,-0.0715,-0.008,1.00425,-0.02,0.1,0.0,34270.0,-2770.0,-32120.0
32.7643164,35.0164574,482.82,-0.069,0.0035,0.9965,-0.38,-0.22,-0.06,34240.0,-2760.0,-32120.0
32.7643164,35.0164574,482.82,-0.0555,-0.01025,0.98925,0.02,-0.64,0.04,34220.0,-2770.0,-32120.0
32.7643164,35.0164574,482.82,-0.04875,-0.024,1.00375,0.16,-0.62,-0.12,34230.0,-2800.0,-32120.0
32.7643164,35.0164574,482.82,-0.05325,0.0005,0.994,0.18,-0.2,0.02,34240.0,-2810.0,-32110.0
32.7643164,35.0164574,482.82,-0.059,0.00625,0.995,0.44,0.5,0.04,34280.0,-2820.0,-32100.0
32.7643164,35.0164574,482.82,-0.058,-0.01975,1.00725,-0.08,0.58,0.08,34260.0,-2780.0,-32120.0
32.7643164,35.0164574,482.82,-0.068,-0.0205,0.998,-0.44,0.26,0.04,34210.0,-2700.0,-32150.0
32.7643164,35.0164574,482.82,-0.069,0.0045,0.991,0.16,0.0,0.0,34270.0,-2740.0,-32130.0
32.7643164,35.0164574,482.82,-0.05525,0.0065,0.99075,0.72,-0.44,-0.08,34310.0,-2810.0,-32100.0
32.7643164,35.0164574,482.82,-0.04775,-0.01725,1.00975,-0.14,-0.74,-0.06,34250.0,-2830.0,-32100.0
32.7643164,35.0164574,482.82,-0.05225,-0.01225,0.9995,-0.86,-0.3,-0.04,34240.0,-2850.0,-32100.0
32.7643164,35.0164574,482.82,-0.06,0.00175,0.98075,-0.08,0.66,0.02,34290.0,-2810.0,-32110.0
32.7643164,35.0164574,482.82,-0.0595,-0.0125,1.002,0.6,0.8,0.12,34260.0,-2780.0,-32120.0
32.7643164,35.0164574,482.82,-0.06775,-0.0145,1.0035,0.12,0.36,0.06,34280.0,-2810.0,-32100.0
32.7643164,35.0164574,482.82,-0.073,0.003,0.99575,-0.48,-0.08,-0.06,34290.0,-2840.0,-32090.0
32.7643164,35.0164574,482.82,-0.05825,-0.0035,0.9915,-0.2,-0.5,-0.06,34220.0,-2760.0,-32130.0
32.7643165,35.0164574,482.83,-0.0475,-0.024,0.99725,-0.02,-0.74,-0.06,34200.0,-2640.0,-32160.0
32.7643165,35.0164574,482.83,-0.05125,-0.0175,1.00175,-0.08,-0.42,-0.06,34260.0,-2640.0,-32150.0
32.7643165,35.0164574,482.83,-0.0585,0.00275,0.9895,0.14,0.5,-0.02,34280.0,-2740.0,-32120.0
32.7643165,35.0164574,482.83,-0.06125,-0.0155,1.00175,0.08,0.8,0.12,34250.0,-2800.0,-32110.0
32.7643165,35.0164574,482.83,-0.0665,-0.03025,1.00425,-0.4,0.48,0.06,34260.0,-2850.0,-32100.0
32.7643165,35.0164574,482.83,-0.0735,-0.00525,0.9865,-0.08,-0.02,0.0,34280.0,-2840.0,-32090.0
32.7643165,35.0164574,482.83,-0.05975,0.0065,0.99,0.52,-0.44,-0.04,34320.0,-2850.0,-32080.0
32.7643165,35.0164574,482.83,-0.0465,-0.0135,1.00175,0.14,-0.82,0.02,34340.0,-2840.0,-32080.0
32.7643165,35.0164574,482.83,-0.052,-0.02375,1.005,-0.78,-0.52,-0.04,34270.0,-2840.0,-32090.0
32.7643165,35.0164574,482.83,-0.0595,-0.00875,0.98675,-0.52,0.48,-0.02,34200.0,-2790.0,-32120.0
32.7643165,35.0164574,482.83,-0.062,-0.00975,0.98825,0.62,0.88,0.1,34210.0,-2760.0,-32130.0
32.7643165,35.0164574,482.83,-0.06625,-0.022,1.00975,0.44,0.58,0.1,34220.0,-2750.0,-32130.0
32.7643165,35.0164574,482.83,-0.07225,-0.00725,0.999,-0.3,0.0,-0.04,34250.0,-2770.0,-32110.0
32.7643165,35.0164574,482.83,-0.06425,-0.00325,0.9935,-0.34,-0.5,-0.04,34290.0,-2780.0,-32100.0
32.7643165,35.0164574,482.83,-0.0465,-0.02425,0.996,-0.02,-0.78,-0.04,34340.0,-2820.0,-32080.0
32.7643165,35.0164574,482.83,-0.04725,-0.02375,1.00075,0.02,-0.56,-0.06,34350.0,-2780.0,-32090.0
32.7643165,35.0164574,482.83,-0.056,-0.003,0.99875,0.18,0.28,-0.04,34310.0,-2660.0,-32130.0
32.7643165,35.0164574,482.83,-0.0595,-0.0085,0.99575,0.16,0.86,0.14,34320.0,-2720.0,-32110.0
32.7643165,35.0164574,482.83,-0.066,-0.0315,1.01,-0.28,0.58,0.06,34290.0,-2730.0,-32110.0
32.7643165,35.0164574,482.83,-0.072,-0.01575,0.99475,-0.2,0.06,0.04,34290.0,-2700.0,-32120.0
32.7643165,35.0164574,482.83,-0.06625,0.009,0.9875,0.64,-0.28,0.02,34250.0,-2600.0,-32150.0
32.7643165,35.0164574,482.83,-0.0485,-0.006,1.0035,0.62,-0.8,-0.02,34230.0,-2580.0,-32150.0
32.7643165,35.0164574,482.83,-0.04775,-0.0195,1.00625,-0.44,-0.7,-0.04,34260.0,-2580.0,-32150.0
32.7643165,35.0164574,482.83,-0.05725,-0.00625,0.99225,-0.62,0.08,-0.04,34280.0,-2650.0,-32130.0
32.7643165,35.0164574,482.83,-0.059,-0.00275,0.9845,0.3,0.92,0.04,34290.0,-2740.0,-32100.0
32.7643165,35.0164574,482.83,-0.06525,-0.014,1.00175,0.76,0.76,0.14,34320.0,-2760.0,-32090.0
32.7643165,35.0164574,482.83,-0.072,-0.00575,1.004,-0.18,0.16,0.12,34340.0,-2780.0,-32080.0
32.7643165,35.0164574,482.83,-0.06925,0.00825,0.988,-0.42,-0.28,-0.04,34330.0,-2760.0,-32090.0
32.7643165,35.0164574,482.83,-0.05225,-0.01125,0.9915,-0.16,-0.8,0.0,34290.0,-2780.0,-32090.0
32.7643165,35.0164574,482.83,-0.04575,-0.022,0.998,-0.04,-0.78,-0.04,34260.0,-2720.0,-32110.0
32.7643165,35.0164574,482.83,-0.054,-0.00025,0.99125,0.14,-0.14,-0.04,34250.0,-2680.0,-32120.0
32.7643165,35.0164574,482.83,-0.05775,0.0005,0.99675,0.16,0.68,0.06,34290.0,-2730.0,-32100.0
32.7643165,35.0164574,482.83,-0.06175,-0.023,1.0025,-0.16,0.8,0.08,34310.0,-2710.0,-32100.0
32.7643165,35.0164574,482.83,-0.07125,-0.021,0.998,-0.46,0.26,0.04,34340.0,-2740.0,-32090.0
32.7643165,35.0164574,482.83,-0.0685,0.006,0.98725,0.32,-0.14,0.0,34320.0,-2760.0,-32090.0
32.7643165,35.0164574,482.83,-0.05325,0.003,0.9945,0.64,-0.72,-0.1,34320.0,-2710.0,-32100.0
32.7643165,35.0164574,482.83,-0.04475,-0.021,1.014,-0.36,-0.84,-0.1,34280.0,-2670.0,-32120.0
32.7643165,35.0164574,482.83,-0.05325,-0.01325,0.99575,-0.84,-0.14,-0.06,34260.0,-2710.0,-32110.0
32.7643165,35.0164574,482.83,-0.06075,-0.0045,0.9885,0.02,0.76,0.1,34310.0,-2750.0,-32100.0
32.7643165,35.0164574,482.83,-0.06225,-0.0175,1.003,0.7,0.94,0.1,34340.0,-2730.0,-32100.0
32.7643165,35.0164574,482.83,-0.07225,-0.0165,1.009,0.2,0.38,0.04,34230.0,-2570.0,-32160.0
32.7643165,35.0164574,482.83,-0.0725,-0.00475,1.005,-0.36,-0.12,-0.06,34200.0,-2480.0,-32190.0
32.7643165,35.0164574,482.83,-0.05575,-0.016,0.99725,-0.12,-0.74,-0.02,34190.0,-2420.0,-32210.0
32.7643165,35.0164574,482.83,-0.045,-0.039,1.00825,0.12,-0.9,-0.08,34160.0,-2460.0,-32200.0
32.7643165,35.0164574,482.83,-0.04925,-0.02575,1.0075,0.24,-0.26,-0.02,34220.0,-2630.0,-32150.0
32.7643165,35.0164574,482.83,-0.0595,-0.011,1.001,0.62,0.72,0.06,34230.0,-2690.0,-32140.0
32.7643165,35.0164574,482.83,-0.063,-0.02975,1.01475,0.34,0.98,0.08,34230.0,-2710.0,-32130.0
32.7643165,35.0164574,482.83,-0.07175,-0.03425,0.99925,-0.1,0.52,0.1,34310.0,-2750.0,-32110.0
32.7643165,35.0164574,482.83,-0.07575,-0.0085,0.99775,0.34,-0.12,0.04,34310.0,-2780.0,-32100.0
32.7643165,35.0164574,482.83,-0.06275,0.00075,0.9925,1.0,-0.52,0.08,34270.0,-2710.0,-32110.0
32.7643165,35.0164574,482.83,-0.0515,-0.01725,1.002,0.36,-0.76,0.0,34230.0,-2650.0,-32140.0
32.7643165,35.0164574,482.83,-0.053,-0.02475,1.0085,-0.52,-0.38,0.0,34260.0,-2710.0,-32130.0
32.7643165,35.0164574,482.83,-0.06125,-0.0135,0.9865,0.06,0.58,0.06,34280.0,-2740.0,-32110.0
32.7643165,35.0164574,482.83,-0.06625,-0.02075,0.99425,1.0,1.0,0.14,34300.0,-2790.0,-32100.0
32.7643165,35.0164574,482.83,-0.07025,-0.02525,1.0115,0.82,0.54,0.22,34300.0,-2810.0,-32090.0
32.7643165,35.0164574,482.83,-0.077,-0.0125,1.0015,0.16,0.04,0.06,34270.0,-2770.0,-32110.0
32.7643165,35.0164574,482.83,-0.06475,-0.01925,1.0025,0.2,-0.46,-0.02,34170.0,-2740.0,-32130.0
32.7643165,35.0164574,482.83,-0.05025,-0.03225,0.998,0.56,-0.68,-0.06,34130.0,-2710.0,-32150.0
32.7643165,35.0164574,482.83,-0.04975,-0.0235,1.00125,0.78,-0.48,0.06,34170.0,-2760.0,-32130.0
32.7643165,35.0164574,482.83,-0.056,-0.009,1.0065,1.02,0.36,0.02,34190.0,-2750.0,-32140.0
32.7643166,35.0164574,482.83,-0.06225,-0.02175,1.006,0.7,0.86,0.14,34170.0,-2630.0,-32170.0
32.7643166,35.0164574,482.83,-0.06675,-0.03275,1.0095,0.3,0.68,0.16,34230.0,-2660.0,-32160.0
32.7643166,35.0164574,482.83,-0.074,-0.01175,0.9915,0.7,0.32,0.02,34290.0,-2710.0,-32130.0
32.7643166,35.0164574,482.83,-0.06825,0.0045,0.99725,1.52,-0.14,0.04,34310.0,-2730.0,-32120.0
32.7643166,35.0164574,482.83,-0.052,-0.002,1.0035,1.12,-0.56,0.06,34320.0,-2800.0,-32090.0
32.7643166,35.0164574,482.83,-0.05175,-0.0035,0.99825,0.06,-0.58,0.02,34270.0,-2830.0,-32100.0
32.7643166,35.0164574,482.83,-0.05925,0.0045,0.987,-0.02,0.2,-0.02,34310.0,-2860.0,-32090.0
32.7643166,35.0164574,482.83,-0.0635,0.012,0.98025,0.98,0.92,0.18,34360.0,-2840.0,-32090.0
32.7643166,35.0164574,482.83,-0.06975,0.01825,0.986,1.06,0.78,0.24,34340.0,-2840.0,-32090.0
32.7643166,35.0164574,482.83,-0.075,0.0305,0.989,0.18,0.22,0.1,34340.0,-2870.0,-32090.0
32.7643166,35.0164574,482.83,-0.07325,0.02825,0.9815,-0.42,-0.32,0.02,34440.0,-3060.0,-32060.0
32.7643166,35.0164574,482.83,-0.05275,0.01175,0.98,-0.36,-0.78,0.08,34520.0,-3250.0,-32030.0
32.7643166,35.0164574,482.83,-0.04625,0.0115,0.982,0.06,-0.7,0.02,34560.0,-3300.0,-32020.0
32.7643166,35.0164574,482.83,-0.048,0.02075,0.98975,0.1,-0.18,-0.04,34570.0,-3380.0,-32010.0
32.7643166,35.0164574,482.83,-0.0495,0.01,0.99825,-0.02,0.56,-0.04,34550.0,-3400.0,-32010.0
32.7643166,35.0164574,482.83,-0.05425,-0.01375,1.001,-0.56,0.56,0.04,34520.0,-3390.0,-32030.0
32.7643166,35.0164574,482.83,-0.06,-0.018,0.999,-0.42,0.36,-0.08,34510.0,-3320.0,-32050.0
32.7643166,35.0164574,482.83,-0.06125,-0.0045,0.99625,0.54,0.0,-0.1,34460.0,-3250.0,-32060.0
32.7643166,35.0164574,482.83,-0.0475,-0.0065,1.00725,0.9,-0.38,-0.1,34330.0,-3090.0,-32070.0
32.7643166,35.0164574,482.83,-0.03875,-0.01475,1.0145,0.06,-0.68,-0.08,34270.0,-2930.0,-32100.0
32.7643166,35.0164574,482.83,-0.04425,-0.01575,1.00275,-0.42,-0.16,-0.1,34220.0,-2760.0,-32150.0
32.7643166,35.0164574,482.83,-0.05075,-0.0185,1.00375,0.2,0.74,-0.02,34220.0,-2790.0,-32130.0
32.7643166,35.0164574,482.83,-0.057,-0.01225,1.001,0.94,1.08,0.14,34200.0,-2820.0,-32120.0
32.7643166,35.0164574,482.83,-0.066,-0.004,1.0065,0.74,0.62,0.2,34190.0,-2810.0,-32110.0
32.7643166,35.0164574,482.83,-0.07025,-0.0015,1.009,-0.16,0.16,0.06,34190.0,-2810.0,-32120.0
32.7643166,35.0164574,482.83,-0.06525,-0.013,1.00125,-0.32,-0.22,0.06,34230.0,-2790.0,-32110.0
32.7643166,35.0164574,482.83,-0.053,-0.02625,0.99875,-0.06,-0.44,0.18,34240.0,-2830.0,-32100.0
32.7643166,35.0164574,482.83,-0.05575,-0.017,0.99525,0.32,-0.14,0.12,34230.0,-2820.0,-32100.0
32.7643166,35.0164574,482.83,-0.06125,-0.009,1.005,0.42,0.42,0.22,34250.0,-2820.0,-32100.0
32.7643166,35.0164574,482.83,-0.06375,-0.02475,1.00725,0.06,0.76,0.22,34240.0,-2780.0,-32110.0
32.7643166,35.0164574,482.83,-0.07325,-0.03825,1.003,-0.32,0.5,0.26,34190.0,-2750.0,-32120.0
32.7643166,35.0164574,482.83,-0.07875,-0.0315,0.99975,0.08,0.36,0.08,34180.0,-2770.0,-32120.0
32.7643166,35.0164574,482.83,-0.07325,-0.02,0.999,1.0,0.02,0.06,34240.0,-2800.0,-32100.0
32.7643166,35.0164574,482.83,-0.061,-0.027,1.007,0.88,-0.44,0.04,34230.0,-2760.0,-32100.0
32.7643166,35.0164574,482.83,-0.05825,-0.03175,1.01075,0.04,-0.42,-0.04,34250.0,-2780.0,-32100.0
32.7643166,35.0164574,482.83,-0.06475,-0.0295,0.99525,0.08,0.24,-0.08,34290.0,-2740.0,-32100.0
32.7643166,35.0164574,482.83,-0.066,-0.032,1.002,1.06,0.8,0.0,34290.0,-2720.0,-32110.0
32.7643166,35.0164574,482.83,-0.072,-0.02725,1.00425,1.46,0.66,0.1,34330.0,-2780.0,-32080.0
32.7643166,35.0164574,482.83,-0.07875,-0.016,1.0075,0.92,0.38,0.1,34340.0,-2810.0,-32070.0
32.7643166,35.0164574,482.83,-0.07575,-0.016,1.007,0.52,0.08,-0.08,34290.0,-2730.0,-32100.0
32.7643167,35.0164574,482.83,-0.0635,-0.027,0.997,0.72,-0.36,0.04,34200.0,-2600.0,-32140.0
32.7643167,35.0164574,482.83,-0.05525,-0.0225,0.99825,0.94,-0.54,-0.02,34200.0,-2580.0,-32150.0
32.7643167,35.0164574,482.83,-0.0605,-0.00375,0.9975,1.3,-0.06,-0.02,34290.0,-2690.0,-32100.0
32.7643167,35.0164574,482.83,-0.064,-0.0035,1.005,1.14,0.66,0.1,34320.0,-2750.0,-32090.0
32.7643167,35.0164574,482.83,-0.066,-0.01325,1.003,0.56,0.78,0.2,34340.0,-2780.0,-32070.0
32.7643167,35.0164574,482.83,-0.0745,-0.0045,0.989,0.54,0.44,0.18,34360.0,-2740.0,-32080.0
32.7643167,35.0164574,482.83,-0.07425,0.01075,0.99475,1.16,0.1,0.08,34390.0,-2780.0,-32060.0
32.7643167,35.0164574,482.83,-0.0605,0.01475,0.99275,1.34,-0.36,0.12,34390.0,-2760.0,-32070.0
32.7643167,35.0164574,482.83,-0.05025,0.00625,1.00075,0.52,-0.66,0.14,34430.0,-2790.0,-32050.0
32.7643167,35.0164574,482.83,-0.04975,0.00775,0.99225,0.04,-0.28,0.1,34410.0,-2750.0,-32070.0
32.7643167,35.0164574,482.83,-0.05625,0.01475,0.98375,0.7,0.58,0.14,34420.0,-2760.0,-32070.0
32.7643167,35.0164574,482.83,-0.056,0.01475,0.993,1.2,0.84,0.28,34410.0,-2780.0,-32060.0
32.7643167,35.0164574,482.83,-0.066,0.0235,0.9955,0.72,0.48,0.22,34400.0,-2740.0,-32070.0
32.7643167,35.0164574,482.83,-0.06875,0.02675,0.99475,0.08,0.18,0.1,34440.0,-2760.0,-32060.0
32.7643167,35.0164574,482.83,-0.05825,0.01925,0.98825,0.06,-0.26,0.1,34480.0,-2780.0,-32050.0
32.7643167,35.0164574,482.83,-0.0475,0.0155,0.9835,0.52,-0.56,0.06,34420.0,-2730.0,-32070.0
32.7643167,35.0164574,482.83,-0.044,0.02725,0.98775,0.54,-0.42,0.0,34370.0,-2660.0,-32100.0
32.7643167,35.0164574,482.83,-0.05,0.0355,0.98925,0.42,0.26,0.0,34390.0,-2710.0,-32090.0
32.7643167,35.0164574,482.83,-0.05175,0.0205,0.9935,-0.1,0.68,0.1,34380.0,-2710.0,-32090.0
32.7643167,35.0164574,482.83,-0.05925,0.01225,0.987,-0.44,0.6,0.04,34390.0,-2720.0,-32090.0
32.7643168,35.0164575,482.84,-0.06725,0.024,0.9785,-0.04,0.28,0.0,34400.0,-2610.0,-32110.0
32.7643168,35.0164575,482.84,-0.061,0.03125,0.98675,0.38,-0.08,-0.04,34420.0,-2650.0,-32100.0
32.7643168,35.0164575,482.84,-0.04825,0.02325,0.985,-0.14,-0.6,-0.06,34470.0,-2700.0,-32080.0
32.7643168,35.0164575,482.84,-0.04575,0.0115,0.98875,-1.02,-0.64,-0.08,34500.0,-2740.0,-32060.0
32.7643168,35.0164575,482.84,-0.0525,0.0115,0.9795,-1.04,0.1,-0.22,34450.0,-2820.0,-32060.0
32.7643168,35.0164575,482.84,-0.05675,0.0075,0.9785,-0.02,0.68,0.0,34420.0,-2820.0,-32060.0
32.7643168,35.0164575,482.84,-0.05775,0.004,0.99175,0.0,0.56,0.06,34420.0,-2860.0,-32050.0
32.7643168,35.0164575,482.84,-0.06675,0.00725,0.9915,-0.74,0.12,-0.1,34420.0,-2860.0,-32050.0
32.7643168,35.0164575,482.84,-0.066,-0.00175,0.9885,-1.06,-0.14,-0.18,34440.0,-2890.0,-32040.0
32.7643168,35.0164575,482.84,-0.0505,-0.017,0.986,-0.78,-0.54,-0.1,34410.0,-2790.0,-32060.0
32.7643168,35.0164575,482.84,-0.04625,-0.02075,0.98975,-0.38,-0.66,-0.14,34340.0,-2790.0,-32080.0
32.7643168,35.0164575,482.84,-0.051,-0.01075,0.99025,-0.28,-0.14,-0.14,34320.0,-2810.0,-32080.0
32.7643168,35.0164575,482.84,-0.055,-0.014,0.99675,-0.34,0.48,-0.1,34350.0,-2840.0,-32070.0
32.7643168,35.0164575,482.84,-0.05875,-0.03375,1.00075,-0.7,0.54,0.04,34350.0,-2850.0,-32070.0
32.7643168,35.0164575,482.84,-0.0675,-0.03125,0.98775,-0.66,0.38,-0.06,34340.0,-2870.0,-32060.0
32.7643168,35.0164575,482.84,-0.06975,-0.014,0.99275,0.1,0.04,-0.02,34310.0,-2790.0,-32090.0
32.7643168,35.0164575,482.84,-0.0555,-0.01225,0.99525,0.44,-0.46,-0.04,34290.0,-2750.0,-32110.0
32.7643168,35.0164575,482.84,-0.048,-0.022,0.9985,-0.36,-0.74,0.02,34320.0,-2770.0,-32100.0
32.7643168,35.0164575,482.84,-0.0505,-0.027,1.002,-0.92,-0.36,-0.12,34360.0,-2840.0,-32070.0
32.7643168,35.0164575,482.84,-0.05725,-0.021,0.98775,-0.16,0.56,0.04,34340.0,-2830.0,-32080.0
32.7643168,35.0164575,482.85,-0.06325,-0.02075,0.99525,0.62,0.74,0.1,34260.0,-2690.0,-32130.0
32.7643168,35.0164575,482.85,-0.068,-0.0165,1.009,0.26,0.48,0.08,34250.0,-2620.0,-32150.0
32.7643168,35.0164575,482.85,-0.07225,-0.00775,0.99925,-0.42,-0.02,0.0,34300.0,-2690.0,-32130.0
32.7643168,35.0164575,482.85,-0.063,-0.01725,1.0015,-0.4,-0.42,-0.04,34280.0,-2760.0,-32110.0
32.7643168,35.0164575,482.85,-0.051,-0.027,0.9975,-0.02,-0.66,-0.04,34350.0,-2830.0,-32080.0
32.7643168,35.0164575,482.85,-0.05125,-0.01725,0.9955,0.18,-0.42,-0.04,34420.0,-2860.0,-32060.0
32.7643168,35.0164575,482.85,-0.05775,-0.00525,1.00725,0.28,0.3,-0.08,34440.0,-2880.0,-32050.0
32.7643168,35.0164575,482.85,-0.06275,-0.016,1.00225,0.1,0.74,0.08,34450.0,-2880.0,-32050.0
32.7643168,35.0164575,482.85,-0.07,-0.02975,1.004,-0.34,0.54,0.04,34460.0,-2900.0,-32040.0
32.7643168,35.0164575,482.85,-0.077,-0.013,0.9955,0.1,0.24,0.0,34410.0,-2860.0,-32060.0
32.7643168,35.0164575,482.85,-0.07075,0.00275,0.99125,0.86,-0.16,-0.08,34420.0,-2830.0,-32070.0
32.7643168,35.0164575,482.85,-0.05225,-0.0065,1.00625,0.54,-0.84,-0.06,34480.0,-2890.0,-32040.0
32.7643168,35.0164575,482.85,-0.05275,-0.012,1.00675,-0.36,-0.7,-0.04,34440.0,-2910.0,-32050.0
32.7643168,35.0164575,482.85,-0.0625,-0.004,0.98875,-0.34,0.26,-0.04,34450.0,-2910.0,-32040.0
32.7643168,35.0164575,482.85,-0.06375,-0.0015,0.99175,0.62,0.82,0.12,34450.0,-2950.0,-32030.0
32.7643168,35.0164575,482.85,-0.06975,-0.00325,1.00675,0.84,0.62,0.18,34440.0,-2940.0,-32030.0
32.7643168,35.0164575,482.85,-0.07625,0.01,0.996,0.14,0.08,0.04,34420.0,-2860.0,-32060.0
32.7643168,35.0164575,482.85,-0.0725,0.0125,0.995,-0.28,-0.36,-0.02,34420.0,-2820.0,-32070.0
32.7643168,35.0164575,482.85,-0.05425,-0.00325,0.9955,-0.02,-0.76,0.04,34420.0,-2850.0,-32060.0
32.7643168,35.0164575,482.85,-0.0495,-0.0035,0.992,0.18,-0.7,-0.02,34450.0,-2830.0,-32060.0
32.7643168,35.0164575,482.85,-0.05725,0.013,0.99325,0.34,-0.06,0.0,34450.0,-2720.0,-32090.0
32.7643168,35.0164575,482.85,-0.06025,0.011,0.998,0.16,0.68,0.04,34480.0,-2810.0,-32060.0
32.7643168,35.0164575,482.85,-0.06425,-0.00675,1.002,-0.24,0.54,0.18,34440.0,-2820.0,-32060.0
32.7643168,35.0164575,482.85,-0.07125,-0.0055,0.99375,-0.38,0.12,0.04,34400.0,-2820.0,-32070.0
32.7643168,35.0164575,482.85,-0.06925,0.017,0.9855,0.42,-0.18,-0.02,34420.0,-2840.0,-32060.0
32.7643168,35.0164575,482.85,-0.05225,0.013,0.9985,0.58,-0.68,0.04,34430.0,-2870.0,-32050.0
32.7643168,35.0164575,482.85,-0.04275,-0.00675,1.007,-0.36,-0.8,-0.04,34440.0,-2890.0,-32040.0
32.7643168,35.0164575,482.85,-0.052,-0.00175,0.98925,-0.82,-0.3,-0.12,34470.0,-2860.0,-32050.0
32.7643168,35.0164575,482.85,-0.0565,0.00375,0.98975,-0.04,0.76,0.08,34470.0,-2840.0,-32050.0
32.7643168,35.0164575,482.85,-0.0585,-0.0035,0.99725,0.58,0.82,0.16,34480.0,-2790.0,-32060.0
32.7643168,35.0164575,482.85,-0.07125,-0.00375,1.00475,-0.02,0.32,0.08,34530.0,-2740.0,-32070.0
32.7643168,35.0164575,482.85,-0.07275,0.004,0.99575,-0.66,-0.06,-0.04,34530.0,-2740.0,-32070.0
32.7643168,35.0164575,482.85,-0.057,-0.006,0.98975,-0.32,-0.62,0.0,34530.0,-2780.0,-32050.0
32.7643168,35.0164575,482.85,-0.045,-0.02575,1.0,-0.12,-0.8,-0.14,34540.0,-2790.0,-32050.0
32.7643168,35.0164575,482.85,-0.04775,-0.01,0.99375,0.02,-0.38,-0.1,34520.0,-2790.0,-32050.0
32.7643168,35.0164575,482.85,-0.05525,0.001,0.9965,0.2,0.56,0.04,34530.0,-2780.0,-32050.0
32.7643168,35.0164575,482.85,-0.05775,-0.02325,1.00825,-0.12,0.78,0.06,34500.0,-2710.0,-32070.0
32.7643168,35.0164575,482.85,-0.0705,-0.032,0.9975,-0.48,0.62,0.02,34540.0,-2790.0,-32060.0
32.7643168,35.0164575,482.85,-0.0755,-0.009,0.99275,0.02,0.18,-0.04,34680.0,-3060.0,-32010.0
32.7643168,35.0164575,482.85,-0.063,0.00175,0.992,0.76,-0.46,-0.06,34750.0,-3190.0,-32000.0
32.7643169,35.0164575,482.85,-0.05125,-0.02,1.00975,0.1,-0.88,-0.08,34750.0,-3140.0,-32020.0
32.7643169,35.0164575,482.85,-0.05125,-0.023,1.0055,-0.76,-0.58,-0.06,34770.0,-3220.0,-32000.0
32.7643169,35.0164575,482.85,-0.06225,-0.0075,0.98475,-0.24,0.52,-0.02,34810.0,-3280.0,-31990.0
32.7643169,35.0164575,482.85,-0.0625,-0.01275,0.99775,0.76,0.96,0.1,34840.0,-3380.0,-31960.0
32.7643169,35.0164575,482.85,-0.0695,-0.0145,1.00625,0.48,0.64,0.08,34840.0,-3390.0,-31960.0
32.7643169,35.0164575,482.85,-0.07775,0.00125,1.00125,-0.24,-0.06,0.02,34760.0,-3270.0,-31970.0
32.7643169,35.0164575,482.85,-0.06725,-0.00075,0.99175,-0.28,-0.46,-0.04,34650.0,-3040.0,-32010.0
32.7643169,35.0164575,482.85,-0.05325,-0.01975,0.994,0.0,-0.82,-0.08,34590.0,-2900.0,-32030.0
32.7643169,35.0164575,482.85,-0.052,-0.0155,0.99875,0.2,-0.52,-0.08,34560.0,-2820.0,-32040.0
32.7643169,35.0164575,482.85,-0.05875,0.011,0.9905,0.4,0.3,0.06,34520.0,-2750.0,-32060.0
32.7643169,35.0164575,482.85,-0.062,-0.0015,1.0,0.2,0.7,0.1,34430.0,-2660.0,-32100.0
32.7643169,35.0164575,482.85,-0.066,-0.02125,1.0045,-0.4,0.48,0.12,34500.0,-2710.0,-32070.0
32.7643169,35.0164575,482.85,-0.074,-0.00225,0.98775,-0.1,0.16,0.0,34560.0,-2750.0,-32050.0
32.7643169,35.0164575,482.85,-0.06475,0.01575,0.99,0.7,-0.32,-0.02,34540.0,-2790.0,-32040.0
32.7643169,35.0164575,482.85,-0.04875,0.004,0.9975,0.6,-0.72,-0.02,34560.0,-2810.0,-32030.0
32.7643169,35.0164575,482.85,-0.04775,-0.0075,1.0085,-0.54,-0.8,0.0,34530.0,-2740.0,-32050.0
32.7643169,35.0164575,482.85,-0.056,0.00525,0.989,-0.58,0.12,-0.04,34480.0,-2710.0,-32070.0
32.7643169,35.0164575,482.85,-0.06,0.0065,0.98475,0.4,0.88,0.16,34530.0,-2760.0,-32050.0
32.7643169,35.0164575,482.85,-0.063,-0.0045,1.0095,0.58,0.74,0.18,34540.0,-2790.0,-32040.0
32.7643169,35.0164575,482.85,-0.07325,0.0085,0.99875,-0.1,0.14,0.02,34470.0,-2720.0,-32070.0
32.7643169,35.0164575,482.86,-0.07,0.01375,0.993,-0.52,-0.32,0.0,34430.0,-2590.0,-32110.0
32.7643169,35.0164575,482.86,-0.04975,-0.00525,0.99575,-0.28,-0.74,-0.04,34440.0,-2630.0,-32110.0
32.7643169,35.0164575,482.86,-0.048,-0.0115,0.996,-0.04,-0.76,0.0,34480.0,-2740.0,-32070.0
32.7643169,35.0164575,482.86,-0.05525,0.0055,0.9995,-0.02,0.06,0.0,34480.0,-2810.0,-32050.0
32.7643169,35.0164575,482.86,-0.05825,0.0025,0.99725,0.02,0.7,0.08,34500.0,-2850.0,-32040.0
32.7643169,35.0164575,482.86,-0.0645,-0.0205,1.00825,-0.38,0.66,0.08,34490.0,-2860.0,-32040.0
32.7643169,35.0164575,482.86,-0.07325,-0.01525,0.99525,-0.48,0.28,-0.1,34490.0,-2850.0,-32050.0
32.7643169,35.0164575,482.86,-0.07125,0.008,0.9885,0.32,-0.2,-0.06,34470.0,-2800.0,-32060.0
32.7643169,35.0164575,482.86,-0.05275,-0.0015,0.9995,0.54,-0.72,0.0,34520.0,-2830.0,-32040.0
32.7643169,35.0164575,482.86,-0.0475,-0.021,1.00825,-0.46,-0.84,-0.14,34470.0,-2760.0,-32080.0
32.7643169,35.0164575,482.86,-0.05825,-0.01425,0.995,-0.8,-0.16,-0.08,34440.0,-2760.0,-32080.0
32.7643169,35.0164575,482.86,-0.062,-0.0055,0.9865,0.2,0.94,0.1,34440.0,-2810.0,-32070.0
32.7643169,35.0164575,482.86,-0.066,-0.01425,0.9975,0.68,0.9,0.16,34430.0,-2840.0,-32070.0
32.7643169,35.0164575,482.86,-0.07375,-0.012,1.0065,0.06,0.22,0.02,34480.0,-2830.0,-32060.0
32.7643169,35.0164575,482.86,-0.0735,0.003,0.99175,-0.52,-0.28,-0.02,34470.0,-2860.0,-32050.0
32.7643169,35.0164575,482.86,-0.057,-0.01075,0.991,-0.22,-0.8,-0.06,34450.0,-2830.0,-32060.0
32.7643169,35.0164575,482.86,-0.04575,-0.027,0.99825,0.02,-0.74,-0.1,34470.0,-2790.0,-32070.0
32.7643169,35.0164575,482.86,-0.05375,-0.007,0.993,0.2,-0.26,-0.02,34490.0,-2840.0,-32060.0
32.7643169,35.0164575,482.86,-0.0595,0.003,0.997,0.28,0.74,0.04,34460.0,-2830.0,-32060.0
32.7643169,35.0164575,482.86,-0.06325,-0.018,1.00175,-0.08,0.82,0.08,34450.0,-2820.0,-32060.0
32.7643169,35.0164575,482.86,-0.0725,-0.0255,1.00025,-0.42,0.36,0.0,34420.0,-2720.0,-32100.0
32.7643169,35.0164575,482.86,-0.0715,0.0025,0.98875,0.12,-0.1,-0.02,34410.0,-2720.0,-32100.0
32.7643169,35.0164575,482.86,-0.05675,0.00975,0.99,0.82,-0.68,0.0,34490.0,-2790.0,-32070.0
32.7643169,35.0164575,482.86,-0.0455,-0.01525,1.01275,0.0,-0.98,-0.12,34480.0,-2830.0,-32060.0
32.7643169,35.0164575,482.86,-0.05225,-0.012,0.998,-0.78,-0.36,-0.08,34450.0,-2870.0,-32050.0
32.7643169,35.0164575,482.86,-0.06025,0.002,0.98625,-0.12,0.64,0.0,34460.0,-2920.0,-32040.0
32.7643169,35.0164575,482.86,-0.06075,-0.00675,0.99675,0.8,1.06,0.14,34540.0,-2950.0,-32030.0
32.7643169,35.0164575,482.86,-0.06925,-0.00725,1.00375,0.5,0.42,0.08,34520.0,-2940.0,-32030.0
32.7643169,35.0164575,482.86,-0.073,0.00925,1.0015,-0.36,-0.14,-0.1,34470.0,-2940.0,-32040.0
32.7643169,35.0164575,482.86,-0.06075,0.00775,0.98875,-0.26,-0.64,0.0,34460.0,-2860.0,-32060.0
32.7643169,35.0164575,482.86,-0.04825,-0.016,0.9985,-0.04,-0.78,-0.04,34460.0,-2820.0,-32060.0
32.7643169,35.0164575,482.86,-0.05,-0.008,0.9985,-0.04,-0.38,-0.06,34470.0,-2860.0,-32050.0
32.7643169,35.0164575,482.86,-0.0605,0.01275,0.99075,0.2,0.5,-0.02,34440.0,-2890.0,-32050.0
32.7643169,35.0164575,482.86,-0.06175,-0.00325,1.0035,0.14,0.88,0.14,34440.0,-2890.0,-32050.0
32.7643169,35.0164575,482.86,-0.068,-0.019,1.00175,-0.44,0.46,0.1,34440.0,-2900.0,-32040.0
32.7643169,35.0164575,482.86,-0.07475,-0.0005,0.99225,-0.26,-0.02,0.0,34480.0,-2820.0,-32060.0
32.7643169,35.0164575,482.86,-0.063,0.01525,0.98975,0.58,-0.48,-0.04,34480.0,-2810.0,-32060.0
32.7643169,35.0164575,482.86,-0.04925,-0.00375,1.003,0.3,-0.84,-0.02,34440.0,-2830.0,-32060.0
32.7643169,35.0164575,482.86,-0.0495,-0.01625,1.00875,-0.78,-0.56,-0.06,34460.0,-2880.0,-32050.0
32.7643169,35.0164575,482.86,-0.05975,0.001,0.98625,-0.5,0.38,0.0,34510.0,-2840.0,-32040.0
32.7643169,35.0164575,482.86,-0.063,0.001,0.98975,0.42,0.98,0.1,34450.0,-2690.0,-32100.0
32.764317,35.0164575,482.86,-0.06625,-0.01125,1.00875,0.5,0.68,0.12,34460.0,-2590.0,-32130.0
32.764317,35.0164575,482.86,-0.07525,0.00075,0.99975,-0.24,0.02,0.02,34420.0,-2560.0,-32140.0
32.764317,35.0164575,482.86,-0.07,0.0075,0.99475,-0.46,-0.38,-0.04,34340.0,-2580.0,-32140.0
32.764317,35.0164575,482.86,-0.05275,-0.01075,0.9905,-0.08,-0.74,-0.06,34400.0,-2710.0,-32100.0
32.764317,35.0164575,482.86,-0.04825,-0.01925,1.001,-0.04,-0.72,-0.08,34450.0,-2790.0,-32070.0
32.764317,35.0164575,482.86,-0.055,0.00425,0.99425,0.0,0.1,-0.02,34410.0,-2820.0,-32070.0
32.764317,35.0164575,482.86,-0.061,0.0025,0.99375,0.1,0.7,0.12,34440.0,-2840.0,-32050.0
32.764317,35.0164575,482.86,-0.0635,-0.0255,1.00975,-0.36,0.66,0.04,34480.0,-2810.0,-32050.0
32.764317,35.0164575,482.86,-0.073,-0.01825,0.99225,-0.44,0.32,0.06,34520.0,-2770.0,-32050.0
32.764317,35.0164575,482.86,-0.07175,0.00825,0.98975,0.34,-0.22,-0.02,34510.0,-2680.0,-32080.0
32.764317,35.0164575,482.86,-0.0535,-0.00025,0.996,0.58,-0.7,0.0,34490.0,-2750.0,-32060.0
32.764317,35.0164575,482.86,-0.0475,-0.0225,1.009,-0.4,-0.84,-0.1,34480.0,-2760.0,-32060.0
32.764317,35.0164575,482.86,-0.055,-0.01575,0.9955,-0.86,-0.16,-0.06,34480.0,-2750.0,-32070.0
32.764317,35.0164575,482.86,-0.05925,-0.0015,0.98175,0.18,0.74,0.06,34490.0,-2780.0,-32050.0
32.764317,35.0164575,482.86,-0.063,-0.01325,1.00175,0.84,0.9,0.12,34470.0,-2800.0,-32050.0
32.764317,35.0164575,482.86,-0.06925,-0.013,1.00825,0.04,0.24,0.04,34460.0,-2730.0,-32060.0
32.764317,35.0164575,482.86,-0.07375,0.00325,0.99425,-0.5,-0.26,-0.02,34510.0,-2660.0,-32070.0
32.764317,35.0164575,482.86,-0.057,-0.0085,0.99275,-0.22,-0.64,-0.02,34530.0,-2710.0,-32060.0
32.764317,35.0164575,482.86,-0.04675,-0.02475,0.99575,0.18,-0.76,-0.04,34480.0,-2690.0,-32070.0
32.764317,35.0164575,482.87,-0.05075,-0.007,0.9985,0.2,-0.28,-0.02,34460.0,-2600.0,-32100.0
32.764317,35.0164575,482.87,-0.05775,0.01075,0.9935,0.28,0.56,0.06,34450.0,-2640.0,-32090.0
32.764317,35.0164575,482.87,-0.06125,-0.01125,1.002,0.0,0.74,0.18,34410.0,-2690.0,-32090.0
32.764317,35.0164575,482.87,-0.0685,-0.027,1.005,-0.44,0.42,0.06,34410.0,-2660.0,-32090.0
32.764317,35.0164575,482.87,-0.0745,0.00275,0.9865,0.08,0.04,-0.02,34450.0,-2710.0,-32070.0
32.764317,35.0164575,482.87,-0.06275,0.015,0.99075,0.92,-0.42,0.02,34430.0,-2730.0,-32070.0
32.764317,35.0164575,482.87,-0.048,-0.00875,1.009,0.2,-0.84,0.02,34450.0,-2760.0,-32060.0
32.764317,35.0164575,482.87,-0.0515,-0.0125,1.00125,-0.8,-0.52,-0.1,34510.0,-2750.0,-32050.0
32.764317,35.0164575,482.87,-0.0585,0.0025,0.98675,-0.36,0.44,0.0,34530.0,-2750.0,-32050.0
32.764317,35.0164575,482.87,-0.0595,0.00125,0.99025,0.82,0.88,0.16,34540.0,-2760.0,-32050.0
32.764317,35.0164575,482.87,-0.067,-0.00825,1.00975,0.5,0.56,0.12,34470.0,-2680.0,-32090.0
32.764317,35.0164575,482.87,-0.074,0.0065,1.0015,-0.46,0.06,-0.04,34470.0,-2720.0,-32070.0
32.764317,35.0164575,482.87,-0.06925,0.00775,0.9885,-0.44,-0.4,-0.04,34520.0,-2730.0,-32060.0
32.764317,35.0164575,482.87,-0.05175,-0.01625,0.996,-0.16,-0.64,-0.02,34540.0,-2750.0,-32050.0
32.764317,35.0164575,482.87,-0.0505,-0.01225,0.995,0.16,-0.5,-0.08,34530.0,-2750.0,-32050.0
32.764317,35.0164575,482.87,-0.05775,0.012,0.995,0.26,0.02,0.04,34490.0,-2700.0,-32070.0
32.764317,35.0164575,482.87,-0.059,0.00325,0.99775,0.1,0.66,0.04,34470.0,-2710.0,-32080.0
32.764317,35.0164575,482.87,-0.065,-0.02225,1.00525,-0.46,0.54,0.06,34460.0,-2780.0,-32060.0
32.764317,35.0164575,482.87,-0.07325,-0.0115,0.9945,-0.38,0.26,-0.06,34530.0,-2810.0,-32040.0
32.764317,35.0164575,482.87,-0.0695,0.016,0.984,0.54,-0.16,-0.02,34500.0,-2750.0,-32060.0
32.764317,35.0164575,482.87,-0.05475,-0.00025,1.00125,0.54,-0.62,0.04,34410.0,-2660.0,-32110.0
32.764317,35.0164575,482.87,-0.0485,-0.0185,1.01025,-0.62,-0.78,-0.02,34400.0,-2720.0,-32100.0
32.764317,35.0164575,482.87,-0.058,-0.00475,0.98775,-0.8,-0.04,-0.06,34460.0,-2750.0,-32080.0
32.764317,35.0164575,482.87,-0.0605,0.00075,0.9875,0.38,0.78,0.06,34470.0,-2800.0,-32070.0
32.764317,35.0164575,482.87,-0.06275,-0.011,1.00125,0.72,0.68,0.1,34450.0,-2750.0,-32080.0
32.764317,35.0164575,482.87,-0.07175,-0.00725,1.00875,-0.18,0.12,0.0,34520.0,-2900.0,-32060.0
32.764317,35.0164575,482.87,-0.0715,0.00575,0.993,-0.66,-0.2,-0.02,34640.0,-3150.0,-32010.0
32.764317,35.0164575,482.87,-0.05825,-0.01075,0.99,-0.18,-0.6,-0.02,34690.0,-3290.0,-31990.0
32.764317,35.0164575,482.87,-0.04675,-0.02575,1.00175,0.1,-0.66,-0.06,34760.0,-3360.0,-31970.0
32.764317,35.0164575,482.87,-0.05225,-0.00175,0.99225,0.16,-0.3,-0.08,34760.0,-3330.0,-31990.0
32.764317,35.0164575,482.87,-0.05925,0.00775,0.999,0.22,0.54,0.02,34760.0,-3370.0,-31980.0
32.764317,35.0164575,482.87,-0.06,-0.02,1.00525,-0.16,0.66,0.08,34830.0,-3450.0,-31960.0
32.764317,35.0164575,482.87,-0.06975,-0.02625,0.99975,-0.52,0.36,0.06,34870.0,-3500.0,-31940.0
32.764317,35.0164575,482.87,-0.07275,0.003,0.99125,0.2,0.04,-0.06,34730.0,-3350.0,-31970.0
32.764317,35.0164575,482.87,-0.05875,0.01,0.98975,0.88,-0.5,-0.08,34530.0,-3130.0,-32020.0
32.764317,35.0164575,482.87,-0.04775,-0.01775,1.015,-0.04,-0.9,-0.1,34490.0,-2970.0,-32050.0
32.764317,35.0164575,482.87,-0.05075,-0.01725,1.00075,-1.02,-0.42,-0.04,34450.0,-2880.0,-32070.0
32.764317,35.0164575,482.87,-0.06,-0.00075,0.982,-0.22,0.54,-0.04,34450.0,-2890.0,-32060.0
32.764317,35.0164575,482.87,-0.05925,-0.00875,0.998,0.84,0.96,0.12,34470.0,-2940.0,-32040.0
32.764317,35.0164575,482.87,-0.06675,-0.0125,1.005,0.44,0.44,0.08,34400.0,-2880.0,-32060.0
32.7643171,35.0164575,482.87,-0.07425,0.003,1.00075,-0.44,-0.02,-0.04,34400.0,-2750.0,-32090.0
32.7643171,35.0164575,482.87,-0.06525,0.0,0.98825,-0.42,-0.46,-0.02,34470.0,-2760.0,-32080.0
32.7643171,35.0164575,482.87,-0.052,-0.02225,0.9935,0.1,-0.7,0.02,34490.0,-2850.0,-32060.0
32.7643171,35.0164575,482.87,-0.05025,-0.0155,0.999,0.2,-0.42,-0.02,34470.0,-2890.0,-32050.0
32.7643171,35.0164575,482.87,-0.05825,0.01325,0.9885,0.4,0.3,-0.04,34460.0,-2940.0,-32030.0
32.7643171,35.0164575,482.87,-0.061,-0.0005,1.0005,0.12,0.6,0.14,34490.0,-2950.0,-32030.0
32.7643171,35.0164575,482.87,-0.06475,-0.02475,1.0055,-0.3,0.48,0.06,34560.0,-2960.0,-32020.0
32.7643171,35.0164575,482.87,-0.07475,-0.00525,0.98925,-0.24,0.16,0.0,34540.0,-2930.0,-32020.0
32.7643171,35.0164575,482.87,-0.0685,0.0155,0.98825,0.7,-0.2,0.02,34500.0,-2940.0,-32030.0
32.7643171,35.0164575,482.87,-0.05275,0.00175,1.0005,0.56,-0.64,0.04,34440.0,-2900.0,-32050.0
32.7643171,35.0164575,482.87,-0.04975,-0.014,1.00975,-0.66,-0.8,-0.06,34460.0,-2870.0,-32050.0
32.7643171,35.0164575,482.87,-0.05825,-0.00075,0.988,-0.74,0.06,-0.08,34520.0,-2910.0,-32030.0
32.7643171,35.0164575,482.87,-0.06225,0.0015,0.987,0.42,0.8,0.1,34450.0,-2920.0,-32040.0
32.7643171,35.0164575,482.87,-0.0615,-0.01025,1.00875,0.68,0.6,0.16,34470.0,-2890.0,-32040.0
32.7643171,35.0164575,482.87,-0.07275,0.00075,1.001,-0.08,0.16,0.06,34530.0,-2920.0,-32020.0
32.7643171,35.0164575,482.87,-0.07125,0.0095,0.9955,-0.5,-0.26,0.0,34530.0,-2840.0,-32040.0
32.7643171,35.0164575,482.87,-0.0525,-0.00825,0.99125,-0.2,-0.6,-0.02,34530.0,-2770.0,-32060.0
32.7643171,35.0164575,482.87,-0.04875,-0.01925,1.0015,0.02,-0.7,-0.04,34520.0,-2760.0,-32060.0
32.7643171,35.0164575,482.87,-0.05575,0.001,0.99325,0.2,-0.08,-0.06,34480.0,-2780.0,-32060.0
32.7643171,35.0164575,482.87,-0.06,0.01,0.9955,0.2,0.7,0.06,34490.0,-2780.0,-32070.0
32.7643171,35.0164575,482.87,-0.06225,-0.016,1.00875,-0.14,0.58,0.1,34460.0,-2660.0,-32100.0
32.7643171,35.0164575,482.87,-0.0695,-0.0185,0.9955,-0.44,0.26,-0.02,34370.0,-2590.0,-32140.0
32.7643171,35.0164575,482.87,-0.072,0.008,0.989,0.16,-0.06,-0.02,34380.0,-2620.0,-32120.0
32.7643171,35.0164575,482.87,-0.0545,0.00775,0.996,0.66,-0.58,0.04,34430.0,-2700.0,-32090.0
32.7643171,35.0164575,482.87,-0.04675,-0.015,1.00775,-0.12,-0.8,-0.04,34430.0,-2760.0,-32070.0
32.7643171,35.0164575,482.87,-0.054,-0.013,0.99875,-0.9,-0.3,-0.08,34490.0,-2780.0,-32060.0
32.7643171,35.0164575,482.87,-0.0595,0.003,0.983,-0.12,0.7,0.0,34500.0,-2810.0,-32050.0
32.7643171,35.0164575,482.87,-0.062,-0.00625,0.998,0.78,0.88,0.18,34470.0,-2810.0,-32050.0
32.7643171,35.0164575,482.87,-0.06875,-0.01375,1.009,0.18,0.32,0.06,34540.0,-2770.0,-32050.0
32.7643171,35.0164575,482.87,-0.0755,0.005,0.9925,-0.58,-0.1,-0.06,34530.0,-2710.0,-32070.0
32.7643171,35.0164575,482.87,-0.0635,-0.00125,0.99375,-0.32,-0.54,0.0,34460.0,-2700.0,-32080.0
32.7643171,35.0164575,482.87,-0.04825,-0.023,0.996,0.06,-0.62,-0.06,34450.0,-2740.0,-32060.0
32.7643171,35.0164575,482.87,-0.05025,-0.01275,0.99625,0.06,-0.5,-0.04,34460.0,-2740.0,-32060.0
32.7643171,35.0164575,482.87,-0.05725,0.00925,0.9955,0.12,0.28,0.0,34520.0,-2750.0,-32050.0
32.7643171,35.0164575,482.87,-0.05925,-0.00475,0.9975,0.14,0.7,0.1,34520.0,-2780.0,-32050.0
32.7643171,35.0164575,482.87,-0.06675,-0.029,1.00775,-0.42,0.54,0.04,34520.0,-2750.0,-32060.0
32.7643171,35.0164575,482.87,-0.0745,-0.0075,0.98975,-0.18,0.18,-0.02,34480.0,-2690.0,-32070.0
32.7643171,35.0164575,482.87,-0.069,0.01425,0.98725,0.66,-0.3,0.04,34470.0,-2700.0,-32070.0
32.7643171,35.0164575,482.87,-0.051,-0.0075,1.006,0.42,-0.72,-0.04,34530.0,-2760.0,-32050.0
32.7643171,35.0164575,482.87,-0.05,-0.02075,1.00425,-0.7,-0.7,-0.04,34580.0,-2730.0,-32050.0
32.7643171,35.0164575,482.87,-0.0585,-0.003,0.989,-0.6,0.08,-0.08,34490.0,-2570.0,-32110.0
32.7643171,35.0164575,482.87,-0.059,0.00175,0.9865,0.56,0.84,0.04,34430.0,-2490.0,-32140.0
32.7643171,35.0164575,482.87,-0.064,-0.01175,1.0075,0.66,0.62,0.12,34430.0,-2590.0,-32110.0
32.7643171,35.0164575,482.87,-0.07125,-0.00475,1.0075,-0.32,0.1,0.08,34400.0,-2660.0,-32100.0
32.7643171,35.0164575,482.87,-0.07125,0.00925,0.9885,-0.42,-0.26,-0.06,34480.0,-2740.0,-32070.0
32.7643171,35.0164575,482.87,-0.0565,-0.01075,0.995,-0.02,-0.52,-0.02,34490.0,-2760.0,-32060.0
32.7643171,35.0164575,482.87,-0.04875,-0.02075,1.0005,0.2,-0.56,0.0,34470.0,-2790.0,-32050.0
32.7643171,35.0164575,482.87,-0.0555,0.00575,0.9935,0.14,-0.22,-0.02,34520.0,-2790.0,-32050.0
32.7643171,35.0164575,482.87,-0.05975,0.01075,0.998,0.18,0.5,0.04,34560.0,-2810.0,-32040.0
32.7643171,35.0164575,482.87,-0.061,-0.01675,1.00375,-0.16,0.58,0.06,34510.0,-2760.0,-32060.0
32.7643171,35.0164575,482.87,-0.06925,-0.02125,1.00225,-0.44,0.26,0.08,34480.0,-2750.0,-32060.0
32.7643171,35.0164575,482.87,-0.07175,0.01125,0.98475,0.22,0.02,-0.02,34490.0,-2800.0,-32050.0
32.7643171,35.0164575,482.87,-0.0595,0.0125,0.9915,0.76,-0.34,-0.04,34490.0,-2820.0,-32050.0
32.7643171,35.0164575,482.87,-0.0475,-0.01475,1.0135,-0.22,-0.72,-0.12,34560.0,-2820.0,-32040.0
32.7643171,35.0164575,482.87,-0.05375,-0.01,0.99175,-0.94,-0.34,-0.08,34560.0,-2820.0,-32040.0
32.7643171,35.0164575,482.87,-0.062,0.0035,0.98575,-0.1,0.56,0.0,34510.0,-2840.0,-32040.0
32.7643171,35.0164575,482.87,-0.061,-0.00575,0.9955,0.72,0.8,0.14,34460.0,-2780.0,-32070.0
32.7643171,35.0164575,482.87,-0.06875,-0.01,1.00825,0.22,0.42,0.08,34450.0,-2750.0,-32080.0
32.7643171,35.0164575,482.87,-0.0735,0.0045,0.99925,-0.58,-0.08,-0.02,34450.0,-2740.0,-32080.0
32.7643171,35.0164575,482.87,-0.0635,0.00225,0.9845,-0.3,-0.48,-0.1,34420.0,-2760.0,-32080.0
32.7643172,35.0164575,482.88,-0.049,-0.0225,1.0005,0.08,-0.66,0.04,34380.0,-2660.0,-32110.0
32.7643172,35.0164575,482.88,-0.04825,-0.01325,0.997,0.08,-0.48,-0.08,34400.0,-2680.0,-32110.0
32.7643172,35.0164575,482.88,-0.05875,0.01175,0.99225,0.24,0.3,0.0,34390.0,-2750.0,-32100.0
32.7643172,35.0164575,482.88,-0.05875,-0.00575,1.00275,0.04,0.72,0.12,34370.0,-2730.0,-32100.0
32.7643172,35.0164575,482.88,-0.06625,-0.0275,1.0035,-0.38,0.5,0.02,34390.0,-2830.0,-32070.0
32.7643172,35.0164575,482.88,-0.0745,-0.0085,0.99325,-0.24,0.12,0.06,34410.0,-2860.0,-32060.0
32.7643172,35.0164575,482.88,-0.06725,0.014,0.9865,0.7,-0.2,0.0,34430.0,-2890.0,-32050.0
32.7643172,35.0164575,482.88,-0.052,-0.00475,1.00375,0.46,-0.74,-0.06,34450.0,-2880.0,-32050.0
32.7643172,35.0164575,482.88,-0.04725,-0.02225,1.01075,-0.74,-0.72,0.02,34420.0,-2840.0,-32070.0
32.7643172,35.0164575,482.88,-0.0575,-0.00325,0.985,-0.72,0.18,-0.12,34410.0,-2820.0,-32070.0
32.7643172,35.0164575,482.88,-0.061,0.0,0.9885,0.58,0.9,0.16,34420.0,-2840.0,-32070.0
32.7643172,35.0164575,482.88,-0.064,-0.01425,1.00675,0.66,0.68,0.06,34470.0,-2860.0,-32050.0
32.7643172,35.0164575,482.88,-0.07375,-0.005,1.00425,-0.28,0.06,0.06,34500.0,-2860.0,-32050.0
32.7643172,35.0164575,482.88,-0.07225,0.005,0.99275,-0.54,-0.26,-0.04,34480.0,-2840.0,-32050.0
32.7643172,35.0164575,482.88,-0.05525,-0.01225,0.989,-0.06,-0.62,-0.04,34430.0,-2870.0,-32050.0
32.7643172,35.0164575,482.88,-0.04775,-0.024,1.00275,0.14,-0.68,-0.1,34420.0,-2850.0,-32060.0
32.7643172,35.0164575,482.88,-0.0535,0.003,0.99375,0.2,-0.14,-0.08,34420.0,-2770.0,-32090.0
32.7643172,35.0164575,482.88,-0.06025,0.00825,0.99425,0.16,0.58,0.02,34410.0,-2760.0,-32090.0
32.7643172,35.0164575,482.88,-0.0605,-0.022,1.0085,-0.28,0.62,0.16,34390.0,-2840.0,-32080.0
32.7643172,35.0164575,482.88,-0.0705,-0.021,0.9965,-0.4,0.3,0.02,34430.0,-2810.0,-32080.0
32.7643172,35.0164575,482.88,-0.073,0.009,0.98775,0.36,-0.06,0.02,34430.0,-2690.0,-32110.0
32.7643172,35.0164575,482.88,-0.05775,0.01,0.993,0.74,-0.48,0.0,34470.0,-2750.0,-32090.0
32.7643172,35.0164575,482.88,-0.049,-0.01425,1.0105,-0.18,-0.8,-0.08,34480.0,-2800.0,-32070.0
32.7643172,35.0164575,482.88,-0.05425,-0.01175,0.99825,-0.98,-0.28,-0.04,34470.0,-2850.0,-32060.0
32.7643172,35.0164575,482.88,-0.061,0.00475,0.98075,0.04,0.62,-0.04,34500.0,-2880.0,-32050.0
32.7643172,35.0164575,482.88,-0.0615,-0.007,0.99925,0.8,0.84,0.12,34500.0,-2870.0,-32050.0
32.7643172,35.0164575,482.88,-0.06725,-0.01025,1.00875,0.28,0.38,0.1,34510.0,-2890.0,-32040.0
32.7643172,35.0164575,482.88,-0.07425,0.00775,0.9955,-0.54,-0.08,0.0,34490.0,-2840.0,-32050.0
32.7643172,35.0164575,482.88,-0.06175,0.001,0.98925,-0.34,-0.48,0.02,34500.0,-2870.0,-32050.0
32.7643172,35.0164575,482.88,-0.049,-0.01925,0.9965,0.06,-0.72,-0.02,34480.0,-2820.0,-32060.0
32.7643172,35.0164575,482.88,-0.05125,-0.009,0.99975,0.14,-0.46,-0.04,34470.0,-2810.0,-32060.0
32.7643172,35.0164575,482.88,-0.05875,0.0125,0.99325,0.16,0.4,-0.02,34500.0,-2860.0,-32050.0
32.7643172,35.0164575,482.88,-0.062,-0.0055,1.0015,-0.06,0.68,0.16,34510.0,-2910.0,-32030.0
32.7643172,35.0164575,482.88,-0.06575,-0.02625,1.0065,-0.46,0.42,0.04,34590.0,-3070.0,-32000.0
32.7643172,35.0164575,482.88,-0.07325,-0.0005,0.9895,-0.16,0.02,0.0,34720.0,-3250.0,-31970.0
32.7643172,35.0164575,482.88,-0.06425,0.01625,0.9905,0.74,-0.36,0.0,34780.0,-3300.0,-31960.0
32.7643172,35.0164575,482.88,-0.04775,-0.00525,1.006,0.22,-0.78,-0.08,34780.0,-3320.0,-31970.0
32.7643172,35.0164575,482.88,-0.0495,-0.018,1.007,-0.88,-0.6,-0.04,34800.0,-3400.0,-31960.0
32.7643172,35.0164575,482.88,-0.059,-0.00225,0.9885,-0.66,0.26,0.0,34830.0,-3450.0,-31950.0
32.7643172,35.0164575,482.88,-0.06125,0.001,0.9855,0.64,0.98,0.08,34810.0,-3410.0,-31960.0
32.7643172,35.0164575,482.88,-0.06625,-0.01275,1.00975,0.58,0.66,0.12,34770.0,-3300.0,-32000.0
32.7643172,35.0164575,482.88,-0.073,-0.001,1.00175,-0.36,0.08,-0.04,34690.0,-3120.0,-32020.0
32.7643172,35.0164575,482.88,-0.07075,0.006,0.98875,-0.52,-0.36,-0.1,34580.0,-3010.0,-32030.0
32.7643172,35.0164575,482.88,-0.05175,-0.01675,0.9945,-0.06,-0.7,-0.06,34530.0,-2950.0,-32030.0
32.7643172,35.0164575,482.88,-0.048,-0.02025,0.99675,0.1,-0.56,-0.08,34530.0,-2930.0,-32020.0
32.7643172,35.0164575,482.88,-0.05625,0.00525,0.99575,0.2,0.04,0.02,34510.0,-2910.0,-32020.0
32.7643172,35.0164575,482.88,-0.06,0.00475,0.99425,0.14,0.7,0.06,34530.0,-2910.0,-32020.0
32.7643172,35.0164575,482.88,-0.06475,-0.0235,1.00525,-0.28,0.62,0.12,34540.0,-2870.0,-32020.0
32.7643172,35.0164575,482.88,-0.0725,-0.02,0.99725,-0.4,0.28,-0.02,34530.0,-2830.0,-32040.0
32.7643172,35.0164575,482.88,-0.072,0.0115,0.98325,0.5,-0.16,-0.04,34500.0,-2760.0,-32060.0
32.7643172,35.0164575,482.88,-0.056,0.00425,0.9985,0.7,-0.66,0.0,34510.0,-2730.0,-32060.0
32.7643172,35.0164575,482.88,-0.04725,-0.0185,1.01025,-0.46,-0.8,-0.06,34520.0,-2780.0,-32050.0
32.7643172,35.0164575,482.88,-0.05625,-0.0085,0.99225,-0.88,-0.26,0.02,34440.0,-2770.0,-32060.0
32.7643172,35.0164575,482.88,-0.06,0.00075,0.987,0.14,0.78,0.02,34490.0,-2780.0,-32050.0
32.7643172,35.0164575,482.88,-0.062,-0.00925,0.99725,0.86,0.88,0.14,34550.0,-2820.0,-32030.0
32.7643172,35.0164575,482.88,-0.06975,-0.00975,1.011,0.06,0.24,0.1,34480.0,-2780.0,-32050.0
32.7643172,35.0164575,482.88,-0.0725,0.007,0.99525,-0.56,-0.16,0.0,34490.0,-2720.0,-32060.0
32.7643172,35.0164575,482.88,-0.061,-0.003,0.9885,-0.24,-0.58,0.04,34530.0,-2730.0,-32060.0
32.7643172,35.0164575,482.88,-0.04725,-0.02475,1.00275,0.06,-0.68,-0.04,34500.0,-2770.0,-32050.0
32.7643172,35.0164575,482.88,-0.052,-0.00375,0.99275,0.14,-0.34,0.0,34500.0,-2720.0,-32070.0
32.7643172,35.0164575,482.89,-0.0595,0.012,0.99775,0.3,0.48,0.02,34440.0,-2610.0,-32110.0
32.7643172,35.0164575,482.89,-0.0595,-0.012,1.0035,-0.02,0.62,0.06,34390.0,-2560.0,-32130.0
32.7643172,35.0164575,482.89,-0.068,-0.02525,1.0025,-0.5,0.38,0.08,34490.0,-2610.0,-32100.0
32.7643172,35.0164575,482.89,-0.072,0.00075,0.991,0.0,0.06,-0.04,34500.0,-2680.0,-32080.0
32.7643172,35.0164575,482.89,-0.06225,0.01675,0.98675,0.84,-0.36,-0.06,34500.0,-2750.0,-32060.0
32.7643172,35.0164575,482.89,-0.04925,-0.00975,1.0115,0.22,-0.8,0.04,34470.0,-2770.0,-32060.0
32.7643172,35.0164575,482.89,-0.05125,-0.0155,1.00275,-0.92,-0.52,-0.1,34520.0,-2830.0,-32040.0
32.7643172,35.0164575,482.89,-0.06225,0.00125,0.9825,-0.46,0.44,0.04,34560.0,-2830.0,-32030.0
32.7643172,35.0164575,482.89,-0.06125,-0.003,0.9935,0.8,0.9,0.1,34570.0,-2860.0,-32020.0
32.7643172,35.0164575,482.89,-0.0675,-0.01025,1.00425,0.6,0.54,0.12,34530.0,-2790.0,-32050.0
32.7643172,35.0164575,482.89,-0.07425,0.004,1.0045,-0.44,-0.1,0.06,34460.0,-2760.0,-32070.0
32.7643172,35.0164575,482.89,-0.067,0.006,0.988,-0.48,-0.42,-0.02,34440.0,-2800.0,-32060.0
32.7643172,35.0164575,482.89,-0.0515,-0.0185,0.9955,-0.1,-0.7,-0.04,34470.0,-2810.0,-32050.0
32.7643172,35.0164575,482.89,-0.04725,-0.01925,1.0,0.08,-0.58,-0.04,34500.0,-2820.0,-32050.0
32.7643172,35.0164575,482.89,-0.056,0.0115,0.98925,0.2,0.14,-0.06,34450.0,-2860.0,-32050.0
32.7643172,35.0164575,482.89,-0.0605,0.00375,1.00125,0.2,0.7,0.04,34460.0,-2820.0,-32060.0
32.7643172,35.0164575,482.89,-0.065,-0.02375,1.00575,-0.44,0.58,0.12,34460.0,-2790.0,-32070.0
32.7643172,35.0164575,482.89,-0.076,-0.01425,0.99425,-0.44,0.22,-0.06,34460.0,-2780.0,-32060.0
32.7643172,35.0164575,482.89,-0.0725,0.0105,0.9875,0.5,-0.14,0.08,34490.0,-2820.0,-32060.0
32.7643172,35.0164575,482.89,-0.05425,0.00225,0.996,0.74,-0.72,-0.04,34460.0,-2820.0,-32070.0
32.7643172,35.0164575,482.89,-0.04675,-0.01875,1.01375,-0.5,-0.9,-0.08,34380.0,-2680.0,-32120.0
32.7643173,35.0164575,482.89,-0.0535,-0.0045,0.99025,-0.84,-0.16,-0.08,34380.0,-2600.0,-32140.0
32.7643173,35.0164575,482.89,-0.0595,0.00175,0.98525,0.2,0.76,0.06,34380.0,-2620.0,-32130.0
32.7643173,35.0164575,482.89,-0.06075,-0.014,1.00525,0.72,0.84,0.14,34350.0,-2700.0,-32110.0
32.7643173,35.0164575,482.89,-0.071,-0.0075,1.00375,0.08,0.32,0.06,34390.0,-2780.0,-32090.0
32.7643173,35.0164575,482.89,-0.07475,0.008,0.996,-0.48,-0.16,-0.08,34460.0,-2820.0,-32060.0
32.7643173,35.0164575,482.89,-0.0585,-0.00675,0.989,-0.18,-0.52,-0.06,34460.0,-2850.0,-32050.0
32.7643173,35.0164575,482.89,-0.04925,-0.024,1.00125,-0.02,-0.72,-0.12,34440.0,-2850.0,-32060.0
32.7643173,35.0164575,482.89,-0.05275,-0.0055,0.995,0.04,-0.3,-0.02,34430.0,-2870.0,-32060.0
32.7643173,35.0164575,482.89,-0.0585,0.012,0.992,0.38,0.48,0.06,34410.0,-2850.0,-32070.0
32.7643173,35.0164575,482.89,-0.06,-0.01425,1.00725,0.02,0.66,0.1,34440.0,-2780.0,-32080.0
32.7643173,35.0164575,482.89,-0.06575,-0.02575,1.00075,-0.48,0.36,0.06,34460.0,-2850.0,-32060.0
32.7643173,35.0164575,482.89,-0.07325,0.003,0.988,-0.04,-0.02,-0.02,34430.0,-2820.0,-32070.0
32.7643173,35.0164575,482.89,-0.06025,0.01175,0.99025,0.74,-0.36,-0.02,34400.0,-2850.0,-32060.0
32.7643173,35.0164575,482.89,-0.049,-0.0115,1.00625,0.16,-0.76,-0.02,34430.0,-2880.0,-32050.0
32.7643173,35.0164575,482.89,-0.05325,-0.0155,1.005,-0.76,-0.48,0.0,34440.0,-2880.0,-32050.0
32.7643173,35.0164575,482.89,-0.06075,0.00275,0.98175,-0.32,0.46,0.0,34420.0,-2820.0,-32080.0
32.7643173,35.0164575,482.89,-0.06325,-0.0035,0.9925,0.66,0.84,0.14,34410.0,-2780.0,-32090.0
32.7643173,35.0164575,482.89,-0.066,-0.01425,1.01025,0.46,0.52,0.06,34450.0,-2840.0,-32060.0
32.7643173,35.0164575,482.89,-0.07325,0.00525,0.99575,-0.36,-0.02,0.0,34470.0,-2820.0,-32070.0
32.7643173,35.0164575,482.89,-0.06575,0.00625,0.9915,-0.34,-0.46,-0.04,34420.0,-2710.0,-32100.0
32.7643173,35.0164575,482.89,-0.0495,-0.01825,0.99575,0.0,-0.66,-0.06,34470.0,-2720.0,-32090.0
32.7643173,35.0164575,482.89,-0.04975,-0.0165,0.9985,0.06,-0.54,-0.04,34470.0,-2770.0,-32080.0
32.7643173,35.0164575,482.89,-0.05825,0.008,0.994,0.14,0.24,-0.02,34460.0,-2770.0,-32080.0
32.7643173,35.0164575,482.89,-0.0615,0.0025,0.9955,0.24,0.72,0.04,34460.0,-2820.0,-32060.0
32.7643173,35.0164575,482.89,-0.0655,-0.025,1.01025,-0.24,0.5,0.06,34430.0,-2830.0,-32060.0
32.7643173,35.0164575,482.89,-0.07225,-0.011,0.99325,-0.36,0.12,0.0,34410.0,-2850.0,-32060.0
32.7643173,35.0164575,482.89,-0.0695,0.0155,0.986,0.56,-0.24,0.0,34420.0,-2850.0,-32060.0
32.7643173,35.0164575,482.89,-0.05075,-0.00025,1.00325,0.52,-0.62,-0.02,34410.0,-2860.0,-32060.0
32.7643173,35.0164575,482.89,-0.047,-0.01825,1.0085,-0.46,-0.74,-0.04,34460.0,-2830.0,-32060.0
32.7643173,35.0164575,482.89,-0.0575,-0.00625,0.993,-0.76,0.02,-0.02,34490.0,-2770.0,-32070.0
32.7643173,35.0164575,482.89,-0.06025,0.004,0.98425,0.34,0.84,0.06,34470.0,-2800.0,-32060.0
32.7643173,35.0164575,482.89,-0.06475,-0.008,1.004,0.8,0.8,0.12,34470.0,-2800.0,-32060.0
32.7643173,35.0164575,482.89,-0.0715,-0.00775,1.008,-0.12,0.2,0.06,34460.0,-2780.0,-32080.0
32.7643173,35.0164575,482.89,-0.0735,0.00925,0.99025,-0.6,-0.34,-0.04,34460.0,-2750.0,-32080.0
32.7643173,35.0164575,482.89,-0.05675,-0.0065,0.9925,-0.06,-0.7,0.0,34490.0,-2740.0,-32080.0
32.7643173,35.0164575,482.89,-0.046,-0.0235,0.99975,0.14,-0.66,-0.04,34480.0,-2710.0,-32080.0
32.7643173,35.0164575,482.89,-0.0525,-0.002,0.99475,0.08,-0.26,0.04,34440.0,-2770.0,-32070.0
32.7643173,35.0164575,482.89,-0.05925,0.011,0.99625,0.12,0.58,0.02,34420.0,-2820.0,-32060.0
32.7643173,35.0164575,482.89,-0.061,-0.0125,1.00075,-0.1,0.74,0.14,34440.0,-2750.0,-32070.0
32.7643174,35.0164575,482.89,-0.06875,-0.027,1.00525,-0.46,0.34,0.02,34410.0,-2640.0,-32110.0
32.7643174,35.0164575,482.89,-0.07225,0.003,0.98575,0.02,-0.06,-0.06,34380.0,-2650.0,-32110.0
32.7643174,35.0164575,482.89,-0.06175,0.014,0.9895,0.82,-0.46,0.04,34430.0,-2710.0,-32090.0
32.7643174,35.0164575,482.89,-0.0475,-0.01475,1.01325,0.04,-0.78,-0.1,34480.0,-2710.0,-32070.0
32.7643174,35.0164575,482.89,-0.05175,-0.0175,0.99675,-0.9,-0.46,-0.08,34460.0,-2700.0,-32080.0
32.7643174,35.0164575,482.89,-0.06075,0.00075,0.98625,-0.24,0.46,-0.06,34450.0,-2740.0,-32080.0
32.7643174,35.0164575,482.89,-0.06,-0.00125,0.9905,0.86,0.96,0.2,34440.0,-2780.0,-32070.0
32.7643174,35.0164575,482.89,-0.066,-0.01225,1.00825,0.48,0.36,0.06,34430.0,-2760.0,-32070.0
32.7643174,35.0164575,482.89,-0.07275,-0.00075,1.00425,-0.56,-0.06,0.0,34500.0,-2760.0,-32050.0
32.7643174,35.0164575,482.89,-0.0675,0.005,0.984,-0.44,-0.4,0.0,34510.0,-2720.0,-32070.0
32.7643174,35.0164575,482.89,-0.0535,-0.01925,0.99725,0.12,-0.52,-0.02,34420.0,-2640.0,-32100.0
32.7643174,35.0164575,482.89,-0.0485,-0.0175,0.99875,0.2,-0.44,-0.04,34430.0,-2710.0,-32080.0
32.7643174,35.0164575,482.89,-0.05725,0.01075,0.99175,0.18,0.04,-0.06,34500.0,-2740.0,-32060.0
32.7643174,35.0164575,482.89,-0.05875,0.00175,1.00225,0.02,0.58,0.04,34520.0,-2760.0,-32050.0
32.7643174,35.0164575,482.89,-0.0625,-0.02525,1.003,-0.34,0.44,0.06,34560.0,-2760.0,-32040.0
32.7643174,35.0164575,482.89,-0.07175,-0.015,0.99775,-0.26,0.14,0.04,34550.0,-2730.0,-32050.0
32.7643174,35.0164575,482.89,-0.06975,0.01475,0.987,0.54,-0.1,-0.04,34500.0,-2680.0,-32070.0
32.7643174,35.0164575,482.89,-0.05625,0.0045,0.997,0.68,-0.48,-0.02,34520.0,-2730.0,-32060.0
32.7643174,35.0164575,482.89,-0.047,-0.02175,1.01475,-0.46,-0.74,-0.02,34540.0,-2750.0,-32050.0
32.7643174,35.0164575,482.89,-0.056,-0.0065,0.987,-0.82,-0.12,-0.06,34490.0,-2680.0,-32080.0
32.7643174,35.0164575,482.9,-0.0615,0.0045,0.98525,0.36,0.7,0.04,34480.0,-2600.0,-32100.0
32.7643174,35.0164575,482.9,-0.06075,-0.009,1.0055,0.86,0.8,0.1,34640.0,-2840.0,-32060.0
32.7643174,35.0164575,482.9,-0.07,-0.0075,1.0055,0.0,0.2,0.06,34780.0,-3110.0,-32000.0
32.7643174,35.0164575,482.9,-0.073,0.00575,0.99625,-0.72,-0.12,-0.06,34830.0,-3220.0,-31980.0
32.7643174,35.0164575,482.9,-0.06025,-0.002,0.98375,-0.1,-0.46,0.0,34840.0,-3360.0,-31960.0
32.7643174,35.0164575,482.9,-0.04875,-0.0215,1.0025,0.26,-0.64,-0.04,34800.0,-3400.0,-31950.0
32.7643174,35.0164575,482.9,-0.0515,-0.00475,0.997,0.1,-0.34,-0.08,34810.0,-3460.0,-31940.0
32.7643174,35.0164575,482.9,-0.061,0.013,0.9925,0.12,0.4,0.04,34820.0,-3450.0,-31940.0
32.7643174,35.0164575,482.9,-0.06,-0.01275,1.00525,-0.12,0.7,0.04,34790.0,-3460.0,-31950.0
32.7643174,35.0164575,482.9,-0.06675,-0.02525,0.99875,-0.38,0.46,0.02,34620.0,-3210.0,-32000.0
32.7643174,35.0164575,482.9,-0.07275,0.00225,0.9905,0.1,-0.08,0.0,34490.0,-2980.0,-32050.0
32.7643174,35.0164575,482.9,-0.0625,0.017,0.9895,0.76,-0.32,-0.02,34520.0,-2930.0,-32040.0
32.7643174,35.0164575,482.9,-0.0505,-0.00875,1.007,0.1,-0.74,-0.04,34490.0,-2860.0,-32050.0
32.7643174,35.0164575,482.9,-0.051,-0.02225,1.00625,-0.94,-0.52,-0.06,34460.0,-2830.0,-32060.0
32.7643174,35.0164575,482.9,-0.06125,0.0,0.98175,-0.32,0.38,-0.06,34440.0,-2840.0,-32060.0
32.7643174,35.0164575,482.9,-0.06275,0.00025,0.99125,0.84,0.84,0.14,34400.0,-2780.0,-32080.0
32.7643174,35.0164575,482.9,-0.06475,-0.01175,1.01075,0.54,0.44,0.14,34420.0,-2740.0,-32090.0
32.7643174,35.0164575,482.9,-0.072,0.0,1.00075,-0.56,-0.14,-0.04,34460.0,-2800.0,-32070.0
32.7643174,35.0164575,482.9,-0.06675,0.00375,0.9905,-0.62,-0.44,-0.06,34430.0,-2820.0,-32060.0
32.7643174,35.0164575,482.9,-0.051,-0.01575,0.9925,0.04,-0.52,0.0,34470.0,-2790.0,-32070.0
32.7643174,35.0164575,482.9,-0.04825,-0.02075,1.00275,0.22,-0.46,-0.12,34480.0,-2670.0,-32100.0
32.7643174,35.0164575,482.9,-0.05725,0.007,0.994,0.12,0.18,-0.02,34460.0,-2650.0,-32110.0
32.7643174,35.0164575,482.9,-0.06325,0.006,0.99525,0.04,0.64,0.02,34500.0,-2730.0,-32080.0
32.7643174,35.0164575,482.9,-0.06275,-0.02475,1.008,-0.28,0.5,0.02,34480.0,-2750.0,-32080.0
32.7643174,35.0164575,482.9,-0.07075,-0.01775,0.99525,-0.28,0.06,-0.02,34410.0,-2780.0,-32080.0
32.7643174,35.0164575,482.9,-0.071,0.0125,0.99025,0.52,-0.16,0.0,34400.0,-2800.0,-32080.0
32.7643174,35.0164575,482.9,-0.0545,0.00575,0.99675,0.68,-0.54,0.02,34510.0,-2860.0,-32050.0
32.7643174,35.0164575,482.9,-0.048,-0.01925,1.0125,-0.44,-0.7,-0.04,34510.0,-2840.0,-32050.0
32.7643174,35.0164575,482.9,-0.0555,-0.013,0.99275,-0.94,-0.18,-0.04,34500.0,-2880.0,-32040.0
32.7643174,35.0164575,482.9,-0.06125,0.005,0.9805,0.24,0.74,0.04,34460.0,-2830.0,-32070.0
32.7643174,35.0164575,482.9,-0.06225,-0.008,1.002,0.94,0.76,0.16,34400.0,-2820.0,-32080.0
32.7643174,35.0164575,482.9,-0.06825,-0.01125,1.00975,0.06,0.22,0.04,34460.0,-2870.0,-32060.0
32.7643174,35.0164575,482.9,-0.07525,0.00475,0.99275,-0.72,-0.12,0.02,34470.0,-2860.0,-32050.0
32.7643174,35.0164575,482.9,-0.062,-0.00375,0.989,-0.22,-0.44,-0.04,34460.0,-2890.0,-32050.0
32.7643174,35.0164575,482.9,-0.04975,-0.02225,0.9955,0.3,-0.6,-0.04,34490.0,-2910.0,-32040.0
32.7643174,35.0164575,482.9,-0.05125,-0.008,0.99975,0.12,-0.4,-0.04,34480.0,-2880.0,-32050.0
32.7643174,35.0164575,482.9,-0.05825,0.01275,0.99225,0.1,0.3,0.0,34490.0,-2780.0,-32070.0
32.7643174,35.0164575,482.9,-0.06025,-0.00875,1.00025,-0.12,0.56,0.08,34440.0,-2830.0,-32060.0
32.7643174,35.0164575,482.9,-0.0645,-0.029,1.00575,-0.38,0.42,0.02,34440.0,-2880.0,-32050.0
32.7643174,35.0164575,482.9,-0.07275,-0.001,0.987,-0.02,0.12,-0.04,34430.0,-2850.0,-32060.0
32.7643174,35.0164576,482.9,-0.0665,0.01675,0.991,0.76,-0.3,0.04,34410.0,-2700.0,-32110.0
32.7643174,35.0164576,482.9,-0.05,-0.00675,1.00625,0.28,-0.66,-0.06,34430.0,-2610.0,-32120.0
32.7643174,35.0164576,482.9,-0.04975,-0.019,1.00375,-0.86,-0.68,-0.08,34390.0,-2600.0,-32140.0
32.7643174,35.0164576,482.9,-0.05875,-0.002,0.98675,-0.56,0.3,-0.02,34370.0,-2680.0,-32120.0
32.7643174,35.0164576,482.9,-0.059,0.00375,0.987,0.76,0.88,0.08,34460.0,-2800.0,-32070.0
32.7643174,35.0164576,482.9,-0.06425,-0.01075,1.011,0.66,0.68,0.16,34510.0,-2830.0,-32060.0
32.7643174,35.0164576,482.9,-0.0715,-0.0015,1.00525,-0.52,0.12,-0.02,34490.0,-2840.0,-32050.0
32.7643174,35.0164576,482.9,-0.07175,0.00675,0.988,-0.58,-0.28,-0.04,34490.0,-2840.0,-32050.0
32.7643174,35.0164576,482.9,-0.05325,-0.01425,0.99375,0.1,-0.62,0.02,34490.0,-2870.0,-32040.0
32.7643174,35.0164576,482.9,-0.048,-0.018,0.99875,0.32,-0.56,-0.06,34480.0,-2840.0,-32050.0
32.7643174,35.0164576,482.9,-0.056,0.00775,0.997,0.2,-0.04,-0.04,34460.0,-2780.0,-32070.0
32.7643174,35.0164576,482.9,-0.06025,0.00775,0.9965,-0.02,0.58,0.08,34460.0,-2790.0,-32070.0
32.7643174,35.0164576,482.9,-0.0635,-0.02225,1.0055,-0.3,0.58,0.06,34440.0,-2800.0,-32070.0
32.7643174,35.0164576,482.9,-0.07075,-0.02175,0.99825,-0.42,0.28,0.0,34470.0,-2840.0,-32050.0
32.7643174,35.0164576,482.9,-0.07225,0.01325,0.98425,0.56,-0.04,-0.08,34480.0,-2850.0,-32040.0
32.7643174,35.0164576,482.9,-0.0585,0.00975,0.9975,0.8,-0.54,0.0,34460.0,-2840.0,-32040.0
32.7643174,35.0164576,482.9,-0.04825,-0.01775,1.012,-0.52,-0.78,-0.06,34440.0,-2780.0,-32070.0
32.7643174,35.0164576,482.9,-0.05675,-0.012,0.99275,-1.0,-0.3,-0.12,34440.0,-2690.0,-32090.0
32.7643174,35.0164576,482.9,-0.062,0.002,0.985,0.06,0.62,0.04,34430.0,-2740.0,-32080.0
32.7643174,35.0164576,482.9,-0.0615,-0.00525,0.9955,1.02,0.82,0.06,34400.0,-2740.0,-32090.0
32.7643174,35.0164576,482.9,-0.06825,-0.01025,1.01325,0.18,0.22,0.0,34410.0,-2630.0,-32110.0
32.7643174,35.0164576,482.9,-0.073,0.0055,0.99525,-0.82,-0.1,-0.08,34420.0,-2680.0,-32090.0
32.7643174,35.0164576,482.9,-0.06325,-0.00125,0.9865,-0.3,-0.52,-0.02,34360.0,-2710.0,-32090.0
32.7643174,35.0164576,482.9,-0.04925,-0.02475,0.99975,0.28,-0.56,-0.04,34340.0,-2700.0,-32100.0
32.7643174,35.0164576,482.9,-0.05175,-0.009,0.995,0.22,-0.4,-0.1,34390.0,-2720.0,-32080.0
32.7643174,35.0164576,482.9,-0.061,0.01225,0.9965,0.16,0.36,0.0,34390.0,-2720.0,-32080.0
32.7643174,35.0164576,482.9,-0.06025,-0.00875,1.00125,-0.08,0.58,0.08,34410.0,-2760.0,-32070.0
32.7643174,35.0164576,482.9,-0.06575,-0.02975,1.00325,-0.46,0.34,0.08,34480.0,-2750.0,-32060.0
32.7643174,35.0164576,482.9,-0.07175,-0.00675,0.9915,-0.08,0.02,-0.04,34470.0,-2750.0,-32060.0
32.7643174,35.0164576,482.9,-0.0635,0.0175,0.9855,0.84,-0.32,0.04,34500.0,-2720.0,-32060.0
32.7643174,35.0164576,482.9,-0.05,-0.00475,1.00825,0.36,-0.72,0.02,34480.0,-2700.0,-32070.0
32.7643174,35.0164576,482.9,-0.04825,-0.021,1.00725,-0.9,-0.66,-0.08,34460.0,-2700.0,-32080.0
32.7643174,35.0164576,482.9,-0.06025,-0.00275,0.984,-0.62,0.22,0.0,34460.0,-2710.0,-32080.0
32.7643174,35.0164576,482.9,-0.06025,-0.00075,0.989,0.74,0.88,0.1,34500.0,-2760.0,-32060.0
32.7643174,35.0164576,482.9,-0.06425,-0.00975,1.00575,0.82,0.66,0.12,34470.0,-2750.0,-32060.0
32.7643174,35.0164576,482.9,-0.072,0.00025,1.006,-0.3,0.02,0.04,34460.0,-2710.0,-32070.0
32.7643174,35.0164576,482.9,-0.06925,0.0085,0.99025,-0.66,-0.24,-0.06,34480.0,-2640.0,-32090.0
32.7643174,35.0164576,482.9,-0.054,-0.01175,0.99125,-0.02,-0.56,-0.06,34470.0,-2600.0,-32110.0
32.7643174,35.0164576,482.9,-0.04675,-0.0225,1.002,0.22,-0.58,-0.08,34500.0,-2640.0,-32090.0
32.7643174,35.0164576,482.9,-0.05525,0.00775,0.992,0.24,-0.04,0.02,34510.0,-2660.0,-32090.0
32.7643174,35.0164576,482.9,-0.061,0.011,0.998,0.18,0.66,0.06,34420.0,-2590.0,-32120.0
32.7643174,35.0164576,482.9,-0.06225,-0.01925,1.0065,-0.34,0.62,0.1,34460.0,-2650.0,-32100.0
32.7643174,35.0164576,482.9,-0.072,-0.01975,0.9965,-0.5,0.26,0.02,34490.0,-2720.0,-32080.0
32.7643174,35.0164576,482.9,-0.07325,0.00825,0.98925,0.3,-0.06,-0.04,34480.0,-2750.0,-32070.0
32.7643174,35.0164576,482.9,-0.05825,0.009,0.9905,0.8,-0.46,-0.06,34440.0,-2770.0,-32060.0
32.7643174,35.0164576,482.9,-0.049,-0.0175,1.01525,-0.22,-0.84,-0.1,34470.0,-2780.0,-32060.0
32.7643174,35.0164576,482.9,-0.0545,-0.01175,0.9945,-1.04,-0.3,-0.06,34500.0,-2790.0,-32060.0
32.7643174,35.0164576,482.9,-0.06175,0.00325,0.981,0.02,0.6,0.0,34500.0,-2750.0,-32070.0
32.7643174,35.0164576,482.9,-0.061,-0.00825,1.00125,0.84,0.86,0.12,34490.0,-2790.0,-32060.0
32.7643174,35.0164576,482.9,-0.06925,-0.0105,1.0065,0.24,0.36,0.04,34440.0,-2750.0,-32080.0
32.7643174,35.0164576,482.9,-0.0755,0.00575,0.9995,-0.54,-0.16,0.0,34450.0,-2690.0,-32090.0
32.7643174,35.0164576,482.9,-0.063,-0.002,0.98825,-0.32,-0.5,-0.06,34510.0,-2760.0,-32070.0
32.7643174,35.0164576,482.9,-0.0495,-0.02325,0.998,0.12,-0.68,0.02,34520.0,-2820.0,-32050.0
32.7643174,35.0164576,482.9,-0.05025,-0.01125,0.99825,0.18,-0.38,-0.04,34500.0,-2860.0,-32050.0
32.7643174,35.0164576,482.9,-0.0575,0.014,0.9915,0.26,0.3,-0.04,34480.0,-2890.0,-32040.0
32.7643174,35.0164576,482.9,-0.05975,-0.008,1.0035,0.04,0.62,0.14,34470.0,-2830.0,-32060.0
32.7643174,35.0164576,482.9,-0.0645,-0.03,1.00575,-0.56,0.42,0.02,34420.0,-2790.0,-32070.0
32.7643174,35.0164576,482.9,-0.07375,-0.00675,0.9875,-0.22,0.1,0.02,34440.0,-2820.0,-32070.0
32.7643174,35.0164576,482.9,-0.066,0.01375,0.989,0.84,-0.22,0.0,34490.0,-2860.0,-32050.0
32.7643174,35.0164576,482.9,-0.05,-0.005,1.00225,0.5,-0.64,-0.02,34460.0,-2800.0,-32070.0
32.7643175,35.0164576,482.9,-0.05025,-0.01875,1.00925,-0.78,-0.72,-0.08,34440.0,-2700.0,-32100.0
32.7643175,35.0164576,482.9,-0.0585,-0.0035,0.98525,-0.68,0.18,-0.08,34470.0,-2640.0,-32120.0
32.7643175,35.0164576,482.9,-0.06075,-0.0005,0.98675,0.64,0.86,0.1,34460.0,-2720.0,-32100.0
32.7643175,35.0164576,482.9,-0.0625,-0.014,1.009,0.72,0.66,0.14,34440.0,-2800.0,-32070.0
32.7643175,35.0164576,482.9,-0.07075,0.001,1.0015,-0.26,0.06,0.04,34440.0,-2880.0,-32050.0
32.7643175,35.0164576,482.9,-0.07,0.00875,0.993,-0.52,-0.32,-0.06,34440.0,-2890.0,-32050.0
32.7643175,35.0164576,482.9,-0.05175,-0.014,0.992,-0.12,-0.62,0.02,34470.0,-2910.0,-32040.0
32.7643175,35.0164576,482.9,-0.048,-0.0205,0.9995,0.08,-0.58,-0.04,34460.0,-2860.0,-32060.0
32.7643175,35.0164576,482.9,-0.055,0.005,0.9965,0.26,-0.08,-0.04,34460.0,-2870.0,-32060.0
32.7643175,35.0164576,482.9,-0.0595,0.0105,0.99425,0.3,0.66,0.04,34540.0,-3040.0,-32030.0
32.7643175,35.0164576,482.9,-0.0635,-0.01975,1.01125,-0.28,0.52,0.08,34680.0,-3210.0,-32010.0
32.7643175,35.0164576,482.9,-0.071,-0.02025,0.998,-0.5,0.34,0.0,34770.0,-3370.0,-31970.0
32.7643175,35.0164576,482.9,-0.073,0.0115,0.98575,0.36,-0.04,-0.06,34710.0,-3440.0,-31970.0
32.7643175,35.0164576,482.9,-0.0555,0.007,0.99725,0.82,-0.58,0.02,34700.0,-3460.0,-31960.0
32.7643175,35.0164576,482.9,-0.04775,-0.0155,1.0105,-0.24,-0.74,-0.1,34820.0,-3500.0,-31940.0
32.7643175,35.0164576,482.9,-0.0555,-0.0095,0.99725,-0.96,-0.38,-0.06,34790.0,-3450.0,-31950.0
32.7643175,35.0164576,482.9,-0.061,0.00225,0.983,-0.04,0.72,-0.06,34770.0,-3400.0,-31970.0
32.7643175,35.0164576,482.9,-0.064,-0.00775,0.9965,0.8,0.88,0.16,34650.0,-3220.0,-32000.0
32.7643175,35.0164576,482.9,-0.07025,-0.01125,1.0095,0.18,0.36,0.06,34510.0,-3040.0,-32040.0
32.7643175,35.0164576,482.9,-0.075,0.009,0.992,-0.5,-0.08,0.06,34520.0,-2920.0,-32050.0
32.7643175,35.0164576,482.91,-0.063,-0.0005,0.99,-0.28,-0.6,-0.04,34520.0,-2760.0,-32080.0
32.7643175,35.0164576,482.91,-0.0485,-0.02275,0.999,0.02,-0.76,0.0,34450.0,-2720.0,-32100.0
32.7643175,35.0164576,482.91,-0.052,-0.00775,0.99425,0.04,-0.44,-0.02,34420.0,-2750.0,-32090.0
32.7643175,35.0164576,482.91,-0.0595,0.011,0.99575,0.18,0.46,0.04,34470.0,-2790.0,-32070.0
32.7643175,35.0164576,482.91,-0.06025,-0.00575,0.999,0.0,0.8,0.06,34500.0,-2820.0,-32060.0
32.7643175,35.0164576,482.91,-0.06725,-0.02675,1.0055,-0.48,0.38,0.06,34520.0,-2820.0,-32050.0
32.7643175,35.0164576,482.91,-0.073,-0.003,0.98975,-0.24,0.04,-0.08,34530.0,-2870.0,-32030.0
32.7643175,35.0164576,482.91,-0.064,0.014,0.9865,0.72,-0.4,-0.04,34460.0,-2870.0,-32050.0
32.7643175,35.0164576,482.91,-0.048,-0.0095,1.008,0.38,-0.76,-0.06,34440.0,-2870.0,-32040.0
32.7643175,35.0164576,482.91,-0.04975,-0.018,1.0035,-0.76,-0.54,-0.08,34450.0,-2800.0,-32070.0
32.7643175,35.0164576,482.91,-0.05975,-0.00125,0.987,-0.54,0.3,0.02,34470.0,-2780.0,-32060.0
32.7643175,35.0164576,482.91,-0.0595,-0.00275,0.98975,0.64,1.0,0.04,34430.0,-2800.0,-32060.0
32.7643175,35.0164576,482.91,-0.06475,-0.0145,1.0075,0.56,0.54,0.12,34440.0,-2790.0,-32070.0
32.7643175,35.0164576,482.91,-0.07125,-0.003,1.004,-0.38,0.0,0.0,34450.0,-2810.0,-32060.0
32.7643175,35.0164576,482.91,-0.06625,0.00775,0.98825,-0.34,-0.34,-0.02,34500.0,-2830.0,-32040.0
32.7643175,35.0164576,482.91,-0.052,-0.015,0.99625,0.02,-0.64,-0.04,34520.0,-2790.0,-32050.0
32.7643175,35.0164576,482.91,-0.04775,-0.022,1.0005,0.02,-0.46,-0.02,34480.0,-2710.0,-32080.0
32.7643175,35.0164576,482.91,-0.0575,0.005,0.99225,0.16,0.14,0.0,34450.0,-2710.0,-32080.0
32.7643175,35.0164576,482.91,-0.06075,0.00325,0.9985,0.18,0.68,0.1,34480.0,-2770.0,-32050.0
32.7643175,35.0164576,482.91,-0.06325,-0.02225,1.00425,-0.14,0.62,0.02,34490.0,-2740.0,-32060.0
32.7643175,35.0164576,482.91,-0.072,-0.0165,0.99875,-0.36,0.12,-0.04,34410.0,-2570.0,-32110.0
32.7643175,35.0164576,482.91,-0.06975,0.012,0.98625,0.42,-0.08,0.08,34380.0,-2500.0,-32140.0
32.7643175,35.0164576,482.91,-0.0555,0.006,0.9955,0.74,-0.54,0.04,34420.0,-2480.0,-32140.0
32.7643175,35.0164576,482.91,-0.04775,-0.019,1.014,-0.34,-0.66,-0.06,34420.0,-2550.0,-32120.0
32.7643175,35.0164576,482.91,-0.057,-0.00725,0.99,-0.82,-0.12,-0.06,34420.0,-2660.0,-32090.0
32.7643175,35.0164576,482.91,-0.0645,0.00425,0.9855,0.16,0.66,0.06,34450.0,-2720.0,-32070.0
32.7643175,35.0164576,482.91,-0.063,-0.0085,1.00075,0.84,0.8,0.16,34460.0,-2750.0,-32060.0
32.7643175,35.0164576,482.91,-0.071,-0.00675,1.00375,0.02,0.2,0.1,34530.0,-2760.0,-32040.0
32.7643175,35.0164576,482.91,-0.0735,0.008,0.9985,-0.58,-0.18,-0.06,34510.0,-2760.0,-32050.0
32.7643175,35.0164576,482.91,-0.05975,0.0005,0.98475,-0.16,-0.54,-0.02,34430.0,-2710.0,-32070.0
32.7643175,35.0164576,482.91,-0.0495,-0.02125,1.003,0.1,-0.68,-0.04,34420.0,-2660.0,-32090.0
32.7643175,35.0164576,482.91,-0.05225,-0.007,0.996,0.0,-0.36,-0.06,34490.0,-2710.0,-32070.0
32.7643175,35.0164576,482.91,-0.06075,0.01325,0.992,0.22,0.48,0.0,34510.0,-2700.0,-32060.0
32.7643175,35.0164576,482.91,-0.06,-0.0095,1.00475,0.04,0.66,0.1,34560.0,-2750.0,-32050.0
32.7643175,35.0164576,482.91,-0.067,-0.02425,1.002,-0.36,0.4,0.04,34550.0,-2750.0,-32040.0
32.7643175,35.0164576,482.91,-0.072,-0.00025,0.99225,-0.08,-0.02,0.0,34540.0,-2740.0,-32050.0
32.7643175,35.0164576,482.91,-0.06075,0.0145,0.98875,0.66,-0.28,0.02,34510.0,-2670.0,-32070.0
32.7643175,35.0164576,482.91,-0.0475,-0.0075,1.008,0.26,-0.72,-0.08,34510.0,-2630.0,-32090.0
32.7643175,35.0164576,482.91,-0.04875,-0.0195,1.00725,-0.84,-0.5,-0.08,34520.0,-2670.0,-32070.0
32.7643175,35.0164576,482.91,-0.0585,0.002,0.98375,-0.46,0.42,-0.04,34510.0,-2660.0,-32080.0
32.7643175,35.0164576,482.91,-0.06225,0.0,0.993,0.68,0.88,0.1,34470.0,-2580.0,-32110.0
32.7643175,35.0164576,482.91,-0.0645,-0.014,1.009,0.52,0.58,0.16,34460.0,-2580.0,-32120.0
32.7643175,35.0164576,482.91,-0.0725,0.00025,1.00075,-0.42,-0.1,0.0,34420.0,-2620.0,-32110.0
32.7643175,35.0164576,482.91,-0.0665,0.006,0.9915,-0.48,-0.42,-0.02,34450.0,-2660.0,-32090.0
32.7643175,35.0164576,482.91,-0.051,-0.01375,0.99175,0.0,-0.58,-0.02,34460.0,-2760.0,-32060.0
32.7643175,35.0164576,482.91,-0.04975,-0.02025,1.00275,0.16,-0.5,-0.04,34420.0,-2760.0,-32070.0
32.7643175,35.0164576,482.91,-0.059,0.0045,0.99275,0.02,0.16,-0.04,34440.0,-2810.0,-32050.0
32.7643175,35.0164576,482.91,-0.06375,0.00475,0.993,0.14,0.72,0.06,34480.0,-2840.0,-32050.0
32.7643175,35.0164576,482.91,-0.06425,-0.02525,1.00925,-0.24,0.44,0.1,34450.0,-2850.0,-32050.0
32.7643175,35.0164576,482.91,-0.07175,-0.0165,0.9915,-0.42,0.06,0.0,34450.0,-2820.0,-32060.0
32.7643175,35.0164576,482.91,-0.07025,0.01325,0.98825,0.38,-0.22,0.0,34440.0,-2770.0,-32070.0
32.7643175,35.0164576,482.91,-0.052,0.00575,0.99625,0.58,-0.54,0.0,34420.0,-2770.0,-32070.0
32.7643175,35.0164576,482.91,-0.048,-0.0185,1.009,-0.42,-0.64,-0.12,34460.0,-2780.0,-32070.0
32.7643175,35.0164576,482.91,-0.05775,-0.01175,0.994,-0.84,-0.1,-0.06,34510.0,-2810.0,-32050.0
32.7643175,35.0164576,482.91,-0.06425,0.006,0.981,0.2,0.78,0.04,34480.0,-2850.0,-32050.0
32.7643175,35.0164576,482.91,-0.06575,-0.0075,0.9995,0.86,0.76,0.18,34510.0,-2800.0,-32060.0
32.7643175,35.0164576,482.91,-0.0695,-0.0105,1.00925,0.0,0.14,0.04,34520.0,-2740.0,-32080.0
32.7643175,35.0164576,482.91,-0.07275,0.00625,0.99175,-0.56,-0.28,-0.06,34500.0,-2810.0,-32060.0
32.7643175,35.0164576,482.91,-0.05725,-0.00275,0.99025,-0.24,-0.58,0.0,34440.0,-2840.0,-32060.0
32.7643175,35.0164576,482.91,-0.04675,-0.021,0.998,0.18,-0.58,-0.04,34440.0,-2790.0,-32080.0
32.7643175,35.0164576,482.91,-0.0505,-0.006,1.00025,0.08,-0.38,0.02,34410.0,-2710.0,-32100.0
32.7643175,35.0164576,482.91,-0.059,0.012,0.995,0.12,0.54,-0.04,34420.0,-2760.0,-32090.0
32.7643175,35.0164576,482.91,-0.061,-0.0105,1.00275,-0.12,0.64,0.06,34430.0,-2780.0,-32080.0
32.7643175,35.0164576,482.91,-0.0665,-0.02925,1.0075,-0.48,0.4,0.02,34430.0,-2800.0,-32080.0
32.7643175,35.0164576,482.91,-0.072,0.0005,0.9865,0.02,-0.02,0.0,34440.0,-2810.0,-32070.0
32.7643175,35.0164576,482.91,-0.06275,0.0165,0.99375,0.82,-0.38,-0.02,34470.0,-2840.0,-32060.0
32.7643175,35.0164576,482.91,-0.04675,-0.0095,1.007,0.1,-0.74,0.02,34520.0,-2880.0,-32040.0
32.7643175,35.0164576,482.91,-0.0495,-0.01925,1.00575,-0.9,-0.58,-0.1,34450.0,-2860.0,-32060.0
32.7643175,35.0164576,482.91,-0.05975,-0.003,0.986,-0.62,0.4,0.0,34450.0,-2870.0,-32050.0
32.7643175,35.0164576,482.91,-0.06275,0.0005,0.988,0.74,1.06,0.08,34490.0,-2840.0,-32060.0
32.7643175,35.0164576,482.91,-0.069,-0.01175,1.009,0.72,0.64,0.18,34500.0,-2780.0,-32070.0
32.7643175,35.0164576,482.91,-0.07425,-0.00125,1.00375,-0.48,-0.02,-0.04,34530.0,-2840.0,-32050.0
32.7643175,35.0164576,482.91,-0.07125,0.0055,0.9845,-0.64,-0.48,-0.06,34520.0,-2870.0,-32040.0
32.7643175,35.0164576,482.91,-0.054,-0.0245,0.99225,0.02,-0.56,-0.02,34430.0,-2820.0,-32070.0
32.7643175,35.0164576,482.91,-0.05075,-0.02575,0.99425,0.2,-0.5,-0.04,34420.0,-2780.0,-32080.0
32.7643175,35.0164576,482.91,-0.05825,0.009,1.006,0.42,0.12,0.04,34460.0,-2790.0,-32070.0
32.7643175,35.0164576,482.91,-0.0615,0.00625,0.98075,0.2,0.66,0.06,34420.0,-2810.0,-32070.0
32.7643175,35.0164576,482.91,-0.064,-0.025,1.0155,-0.4,0.46,0.06,34450.0,-2860.0,-32050.0
32.7643175,35.0164576,482.91,-0.07125,-0.02125,1.003,-0.52,0.06,0.02,34500.0,-2880.0,-32040.0
32.7643175,35.0164576,482.91,-0.068,0.0185,0.9725,0.64,-0.12,-0.02,34480.0,-2810.0,-32060.0
32.7643175,35.0164576,482.91,-0.05475,0.007,1.0055,0.8,-0.62,0.0,34490.0,-2680.0,-32090.0
32.7643175,35.0164576,482.91,-0.04675,-0.0165,1.0135,-0.46,-0.68,-0.04,34480.0,-2730.0,-32070.0
32.7643175,35.0164576,482.91,-0.056,-0.009,0.98875,-1.02,-0.16,-0.14,34500.0,-2780.0,-32060.0
32.7643175,35.0164576,482.91,-0.0615,-0.0015,0.98525,0.08,0.76,-0.02,34530.0,-2830.0,-32050.0
32.7643175,35.0164576,482.91,-0.06125,-0.00825,0.996,1.0,0.82,0.12,34550.0,-2840.0,-32040.0
32.7643175,35.0164576,482.91,-0.06825,-0.006,1.009,0.24,0.1,0.1,34520.0,-2850.0,-32030.0
32.7643175,35.0164576,482.91,-0.07,0.00775,0.99825,-0.64,-0.2,-0.06,34490.0,-2870.0,-32030.0
32.7643175,35.0164576,482.91,-0.05825,-0.0025,0.98625,-0.38,-0.58,-0.02,34500.0,-2840.0,-32040.0
32.7643175,35.0164576,482.91,-0.045,-0.02375,1.0025,0.08,-0.5,-0.02,34520.0,-2860.0,-32030.0
32.7643175,35.0164576,482.91,-0.0485,-0.00425,0.9935,0.28,-0.3,0.02,34460.0,-2800.0,-32050.0
32.7643175,35.0164576,482.91,-0.05725,0.0165,0.998,0.32,0.46,0.06,34450.0,-2760.0,-32060.0
32.7643175,35.0164576,482.91,-0.05775,-0.0065,1.00925,-0.16,0.7,0.18,34490.0,-2780.0,-32050.0
32.7643175,35.0164576,482.91,-0.0655,-0.0265,1.00275,-0.7,0.36,0.12,34480.0,-2760.0,-32060.0
32.7643175,35.0164576,482.91,-0.07125,-0.00425,0.9915,-0.18,0.12,0.04,34520.0,-2730.0,-32060.0
32.7643175,35.0164576,482.91,-0.06175,0.01725,0.987,0.86,-0.32,0.04,34560.0,-2720.0,-32050.0
32.7643175,35.0164576,482.91,-0.05075,-0.00525,1.01,0.44,-0.68,-0.02,34510.0,-2650.0,-32070.0
32.7643175,35.0164576,482.91,-0.05025,-0.0215,1.00775,-1.06,-0.54,-0.04,34480.0,-2710.0,-32080.0
32.7643175,35.0164576,482.91,-0.0625,-0.00325,0.9815,-0.74,0.46,-0.04,34630.0,-2980.0,-32010.0
32.7643175,35.0164576,482.91,-0.06375,-0.0045,0.992,0.7,1.0,0.16,34680.0,-3180.0,-31990.0
32.7643175,35.0164576,482.91,-0.0685,-0.01425,1.00325,0.78,0.62,0.1,34780.0,-3250.0,-31970.0
32.7643175,35.0164576,482.91,-0.07675,-0.0005,1.00325,-0.32,-0.06,0.06,34770.0,-3180.0,-32010.0
32.7643175,35.0164576,482.91,-0.07175,0.00525,0.9905,-0.66,-0.42,-0.08,34760.0,-3200.0,-32000.0
32.7643175,35.0164576,482.91,-0.05675,-0.01475,0.9885,-0.08,-0.7,-0.02,34820.0,-3290.0,-31980.0
32.7643175,35.0164576,482.91,-0.05175,-0.0235,1.0,0.16,-0.54,-0.04,34840.0,-3310.0,-31970.0
32.7643175,35.0164576,482.91,-0.06075,0.0075,0.98775,0.28,0.06,-0.02,34840.0,-3330.0,-31960.0
32.7643175,35.0164576,482.91,-0.0665,0.00825,0.99875,0.26,0.7,0.04,34700.0,-3100.0,-32010.0
32.7643175,35.0164576,482.91,-0.0655,-0.0235,1.0045,-0.38,0.46,0.02,34620.0,-2970.0,-32020.0
32.7643175,35.0164576,482.91,-0.0735,-0.01975,0.9905,-0.54,0.04,-0.02,34590.0,-2870.0,-32030.0
32.7643175,35.0164576,482.91,-0.071,0.0105,0.98775,0.4,-0.22,-0.06,34610.0,-2850.0,-32020.0
32.7643175,35.0164576,482.91,-0.0535,0.01025,0.9935,0.98,-0.62,-0.02,34530.0,-2750.0,-32060.0
32.7643175,35.0164576,482.91,-0.047,-0.0175,1.0135,-0.3,-0.8,-0.06,34490.0,-2740.0,-32060.0
32.7643175,35.0164576,482.91,-0.05375,-0.01125,0.99975,-1.06,-0.16,-0.14,34500.0,-2760.0,-32060.0
32.7643175,35.0164576,482.91,-0.05975,0.006,0.979,0.08,0.76,0.0,34560.0,-2770.0,-32050.0
32.7643175,35.0164576,482.91,-0.059,-0.00575,1.00525,1.06,0.8,0.14,34570.0,-2780.0,-32040.0
32.7643175,35.0164576,482.91,-0.0645,-0.00725,1.01025,0.24,0.12,0.04,34510.0,-2810.0,-32040.0
32.7643175,35.0164576,482.91,-0.06975,0.00975,1.00025,-0.64,-0.28,-0.04,34500.0,-2790.0,-32050.0
32.7643175,35.0164576,482.91,-0.0555,0.00025,0.991,-0.44,-0.52,-0.02,34480.0,-2700.0,-32080.0
32.7643175,35.0164576,482.91,-0.04475,-0.02025,0.9995,0.2,-0.6,-0.02,34460.0,-2680.0,-32090.0
32.7643175,35.0164576,482.91,-0.0485,-0.00725,0.99975,0.24,-0.28,-0.02,34480.0,-2740.0,-32070.0
32.7643175,35.0164576,482.91,-0.05825,0.01775,0.99525,0.18,0.5,0.06,34460.0,-2750.0,-32080.0
32.7643175,35.0164576,482.91,-0.062,-0.00475,1.002,-0.18,0.78,0.14,34390.0,-2620.0,-32120.0
32.7643175,35.0164576,482.91,-0.0645,-0.02925,1.008,-0.6,0.4,0.1,34430.0,-2530.0,-32140.0
32.7643175,35.0164576,482.91,-0.0735,-0.004,0.984,-0.22,0.02,-0.02,34460.0,-2560.0,-32130.0
32.7643175,35.0164576,482.91,-0.06475,0.01775,0.98825,0.86,-0.24,0.0,34410.0,-2640.0,-32120.0
32.7643175,35.0164576,482.91,-0.0505,-0.00375,1.00325,0.42,-0.62,0.04,34410.0,-2700.0,-32100.0
32.7643175,35.0164576,482.91,-0.053,-0.02075,1.007,-0.92,-0.58,-0.08,34410.0,-2760.0,-32080.0
32.7643175,35.0164576,482.91,-0.06325,-0.007,0.9845,-0.82,0.28,-0.04,34390.0,-2770.0,-32090.0
32.7643175,35.0164576,482.91,-0.06475,-0.0015,0.981,0.68,0.94,0.1,34430.0,-2830.0,-32060.0
32.7643175,35.0164576,482.91,-0.0665,-0.0155,1.00825,0.86,0.56,0.1,34440.0,-2840.0,-32060.0
32.7643175,35.0164576,482.91,-0.07225,-0.0035,1.00075,-0.28,-0.1,-0.04,34480.0,-2820.0,-32060.0
32.7643175,35.0164576,482.91,-0.0715,0.00475,0.99,-0.72,-0.44,-0.04,34450.0,-2780.0,-32070.0
32.7643175,35.0164576,482.91,-0.054,-0.01925,0.992,-0.18,-0.62,-0.06,34460.0,-2850.0,-32060.0
32.7643175,35.0164576,482.91,-0.05,-0.02775,0.9975,0.2,-0.48,-0.06,34430.0,-2820.0,-32070.0
32.7643175,35.0164576,482.91,-0.0565,0.0005,0.99775,0.22,0.02,0.02,34440.0,-2850.0,-32070.0
32.7643175,35.0164576,482.91,-0.062,0.009,0.996,0.3,0.62,0.08,34480.0,-2870.0,-32050.0
32.7643175,35.0164576,482.91,-0.06425,-0.0205,1.01025,-0.26,0.46,0.08,34460.0,-2850.0,-32060.0
32.7643175,35.0164576,482.91,-0.06875,-0.02625,1.001,-0.64,0.14,0.0,34440.0,-2840.0,-32070.0
32.7643175,35.0164576,482.91,-0.07125,0.0075,0.98475,0.32,-0.08,-0.06,34420.0,-2760.0,-32090.0
32.7643175,35.0164576,482.91,-0.05625,0.01075,0.99675,0.92,-0.42,-0.08,34410.0,-2770.0,-32090.0
32.7643175,35.0164576,482.91,-0.047,-0.014,1.013,0.04,-0.66,-0.08,34440.0,-2770.0,-32080.0
32.7643176,35.0164576,482.92,-0.0565,-0.0125,1.0005,-1.0,-0.36,-0.1,34420.0,-2690.0,-32110.0
32.7643176,35.0164576,482.92,-0.0615,0.00225,0.98375,-0.18,0.64,0.04,34420.0,-2750.0,-32100.0
32.7643176,35.0164576,482.92,-0.06225,-0.00325,0.993,1.04,0.86,0.14,34370.0,-2780.0,-32100.0
32.7643176,35.0164576,482.92,-0.0675,-0.0085,1.01225,0.36,0.2,0.04,34400.0,-2780.0,-32090.0
32.7643176,35.0164576,482.92,-0.073,0.0095,0.9955,-0.58,-0.2,-0.04,34480.0,-2790.0,-32070.0
32.7643176,35.0164576,482.92,-0.06275,0.004,0.99,-0.46,-0.54,-0.06,34500.0,-2780.0,-32070.0
32.7643176,35.0164576,482.92,-0.04725,-0.02175,0.9965,0.02,-0.66,-0.08,34560.0,-2810.0,-32060.0
32.7643176,35.0164576,482.92,-0.049,-0.00825,0.9945,0.24,-0.48,-0.08,34540.0,-2800.0,-32060.0
32.7643176,35.0164576,482.92,-0.05775,0.016,0.9955,0.34,0.32,0.1,34510.0,-2840.0,-32060.0
32.7643176,35.0164576,482.92,-0.05775,0.001,0.99825,0.02,0.68,0.04,34570.0,-2830.0,-32060.0
32.7643176,35.0164576,482.92,-0.063,-0.02325,1.00625,-0.56,0.38,0.08,34610.0,-2780.0,-32060.0
32.7643176,35.0164576,482.92,-0.0705,-0.006,0.99,-0.24,0.04,-0.02,34570.0,-2780.0,-32060.0
32.7643176,35.0164576,482.92,-0.064,0.01725,0.985,0.74,-0.22,0.04,34530.0,-2790.0,-32060.0
32.7643176,35.0164576,482.92,-0.04925,-0.00275,1.005,0.42,-0.62,0.04,34550.0,-2820.0,-32060.0
32.7643176,35.0164576,482.92,-0.0505,-0.016,1.008,-0.74,-0.56,-0.1,34520.0,-2840.0,-32060.0
32.7643176,35.0164576,482.92,-0.0615,-0.001,0.98475,-0.76,0.24,-0.02,34570.0,-2810.0,-32050.0
32.7643176,35.0164576,482.92,-0.0625,-0.0025,0.98725,0.44,0.92,0.06,34540.0,-2730.0,-32080.0
32.7643176,35.0164576,482.92,-0.065,-0.01325,1.0045,0.66,0.6,0.14,34480.0,-2670.0,-32110.0
32.7643176,35.0164576,482.92,-0.073,-0.00125,1.00275,-0.14,0.0,-0.04,34570.0,-2700.0,-32080.0
32.7643176,35.0164576,482.92,-0.07025,0.0045,0.99375,-0.6,-0.26,0.02,34560.0,-2710.0,-32080.0
32.7643175,35.0164576,482.92,-0.05375,-0.015,0.99175,-0.2,-0.62,0.0,34520.0,-2600.0,-32110.0
32.7643175,35.0164576,482.92,-0.05125,-0.02275,0.99925,0.08,-0.46,-0.02,34510.0,-2640.0,-32100.0
32.7643175,35.0164576,482.92,-0.05925,0.0005,0.996,0.2,0.1,-0.02,34520.0,-2660.0,-32100.0
32.7643175,35.0164576,482.92,-0.061,0.0025,0.9955,0.12,0.62,0.06,34530.0,-2670.0,-32090.0
32.7643175,35.0164576,482.92,-0.065,-0.02625,1.0095,-0.44,0.44,0.1,34570.0,-2730.0,-32070.0
32.7643175,35.0164576,482.92,-0.07325,-0.021,0.99925,-0.5,0.18,-0.06,34590.0,-2720.0,-32060.0
32.7643175,35.0164576,482.92,-0.06975,0.00375,0.981,0.46,-0.24,-0.04,34560.0,-2740.0,-32060.0
32.7643175,35.0164576,482.92,-0.055,-0.00425,1.0075,0.7,-0.64,-0.04,34520.0,-2700.0,-32070.0
32.7643175,35.0164576,482.92,-0.04775,-0.01675,1.00325,-0.2,-0.76,-0.02,34540.0,-2700.0,-32070.0
32.7643175,35.0164576,482.92,-0.05675,-0.0085,0.9965,-0.74,-0.16,-0.02,34530.0,-2650.0,-32080.0
32.7643175,35.0164576,482.92,-0.06075,-0.00325,0.994,0.2,0.8,0.08,34500.0,-2560.0,-32110.0
32.7643175,35.0164576,482.92,-0.06025,-0.011,0.9885,0.68,0.64,0.16,34530.0,-2650.0,-32090.0
32.7643175,35.0164576,482.92,-0.072,-0.00625,1.0115,0.12,0.2,0.06,34560.0,-2700.0,-32070.0
32.7643175,35.0164576,482.92,-0.06975,0.00925,0.99675,-0.24,-0.06,-0.02,34540.0,-2730.0,-32060.0
32.7643175,35.0164576,482.92,-0.0525,-0.0085,0.98225,-0.3,-0.72,0.02,34540.0,-2750.0,-32050.0
32.7643175,35.0164576,482.92,-0.04825,-0.02425,1.011,-0.06,-0.8,-0.02,34520.0,-2680.0,-32070.0
32.7643175,35.0164576,482.92,-0.05075,0.00125,0.988,0.28,-0.14,-0.06,34480.0,-2650.0,-32090.0
32.7643175,35.0164576,482.92,-0.05325,0.0075,0.98825,0.48,0.46,0.06,34510.0,-2600.0,-32110.0
32.7643175,35.0164576,482.92,-0.06025,-0.016,1.02025,-0.08,0.64,0.08,34520.0,-2550.0,-32110.0
32.7643175,35.0164576,482.92,-0.06975,-0.0105,0.987,-0.46,0.5,-0.02,34460.0,-2490.0,-32140.0
32.7643175,35.0164576,482.91,-0.072,0.0105,0.99075,0.22,0.04,0.06,34440.0,-2460.0,-32150.0
32.7643175,35.0164576,482.91,-0.05925,0.00175,1.00425,0.66,-0.44,-0.06,34450.0,-2430.0,-32160.0
32.7643175,35.0164576,482.91,-0.04925,-0.0095,0.994,-0.08,-0.8,-0.1,34500.0,-2420.0,-32150.0
32.7643175,35.0164576,482.91,-0.0555,0.00075,1.0045,-0.62,-0.34,-0.04,34560.0,-2450.0,-32130.0
32.7643175,35.0164576,482.91,-0.05875,0.00675,0.98725,0.16,0.6,0.0,34570.0,-2500.0,-32120.0
32.7643175,35.0164576,482.91,-0.05975,-0.00625,0.9895,0.46,0.78,0.1,34560.0,-2510.0,-32120.0
32.7643175,35.0164576,482.91,-0.07325,-0.003,1.0165,-0.04,0.4,0.02,34590.0,-2500.0,-32120.0
32.7643175,35.0164576,482.91,-0.076,0.014,0.988,-0.18,0.14,0.0,34550.0,-2470.0,-32130.0
32.7643175,35.0164576,482.91,-0.06075,-0.00075,0.98925,-0.22,-0.52,0.02,34470.0,-2410.0,-32160.0
32.7643175,35.0164576,482.91,-0.0555,-0.01525,1.01075,-0.22,-0.88,-0.12,34420.0,-2400.0,-32170.0
32.7643175,35.0164576,482.91,-0.057,0.0045,0.9845,-0.12,-0.34,-0.1,34440.0,-2430.0,-32160.0
32.7643175,35.0164576,482.91,-0.056,0.00625,0.995,0.14,0.28,0.04,34480.0,-2490.0,-32140.0
32.7643175,35.0164576,482.91,-0.06125,-0.01825,1.0145,-0.06,0.5,0.08,34480.0,-2510.0,-32140.0
32.7643175,35.0164576,482.91,-0.06975,-0.014,0.99,-0.48,0.5,0.06,34510.0,-2520.0,-32130.0
32.7643175,35.0164576,482.91,-0.071,0.00825,0.991,0.06,0.0,0.04,34510.0,-2540.0,-32120.0
32.7643175,35.0164576,482.91,-0.0605,0.00025,1.00025,0.52,-0.52,0.02,34470.0,-2570.0,-32130.0
32.7643175,35.0164576,482.91,-0.05175,-0.0185,1.00125,-0.34,-0.82,0.0,34460.0,-2550.0,-32130.0
32.7643175,35.0164576,482.91,-0.0555,-0.0105,0.999,-0.74,-0.34,-0.06,34500.0,-2540.0,-32130.0
32.7643175,35.0164576,482.91,-0.06075,-0.0035,0.98775,0.0,0.48,0.02,34430.0,-2520.0,-32150.0
32.7643175,35.0164576,482.91,-0.0595,-0.016,0.995,0.44,0.7,0.14,34420.0,-2520.0,-32150.0
32.7643176,35.0164576,482.92,-0.06725,-0.0115,1.0075,0.04,0.36,0.08,34470.0,-2500.0,-32150.0
32.7643176,35.0164576,482.92,-0.07325,0.00225,0.99375,-0.36,0.0,0.02,34490.0,-2500.0,-32140.0
32.7643176,35.0164576,482.92,-0.057,-0.0125,0.9905,-0.14,-0.42,0.08,34500.0,-2530.0,-32140.0
32.7643176,35.0164576,482.92,-0.04775,-0.0245,1.0,-0.12,-0.8,-0.06,34470.0,-2560.0,-32140.0
32.7643176,35.0164576,482.92,-0.055,-0.0065,0.99275,0.12,-0.36,-0.08,34510.0,-2720.0,-32090.0
32.7643176,35.0164576,482.92,-0.05575,-0.00075,0.994,0.36,0.42,0.04,34660.0,-3020.0,-32040.0
32.7643176,35.0164576,482.92,-0.05775,-0.02125,1.004,-0.14,0.58,0.1,34790.0,-3230.0,-31990.0
32.7643176,35.0164576,482.92,-0.07,-0.02025,1.00025,-0.32,0.44,0.14,34790.0,-3290.0,-31990.0
32.7643176,35.0164576,482.92,-0.07125,0.00275,0.98725,0.24,0.18,-0.12,34820.0,-3370.0,-31970.0
32.7643176,35.0164576,482.92,-0.05475,0.002,0.99325,0.68,-0.54,-0.02,34820.0,-3330.0,-31980.0
32.7643176,35.0164576,482.92,-0.0475,-0.0155,1.011,-0.06,-0.88,-0.1,34810.0,-3360.0,-31990.0
32.7643176,35.0164576,482.92,-0.052,-0.00875,0.997,-0.64,-0.4,-0.08,34840.0,-3410.0,-31970.0
32.7643176,35.0164576,482.92,-0.057,0.00025,0.98425,0.02,0.64,-0.04,34840.0,-3350.0,-31970.0
32.7643176,35.0164576,482.92,-0.0605,-0.00925,1.002,0.6,0.8,0.14,34700.0,-3160.0,-32010.0
32.7643176,35.0164576,482.92,-0.07275,-0.0065,1.0045,0.18,0.58,0.08,34610.0,-3010.0,-32030.0
32.7643176,35.0164576,482.92,-0.0755,0.00925,0.99375,-0.3,0.08,-0.08,34610.0,-2920.0,-32040.0
32.7643176,35.0164576,482.92,-0.062,-0.00075,0.9955,-0.16,-0.6,0.02,34600.0,-2820.0,-32060.0
32.7643176,35.0164576,482.92,-0.05225,-0.0155,1.00025,-0.04,-0.88,-0.1,34550.0,-2770.0,-32080.0
32.7643176,35.0164576,482.92,-0.055,0.0,0.9935,0.06,-0.38,-0.08,34500.0,-2760.0,-32090.0
32.7643176,35.0164576,482.92,-0.057,0.011,0.995,0.32,0.4,0.04,34510.0,-2740.0,-32090.0
32.7643176,35.0164576,482.92,-0.06125,-0.0095,1.00725,0.02,0.64,0.06,34480.0,-2630.0,-32120.0
32.7643175,35.0164576,482.92,-0.07225,-0.01275,0.996,-0.46,0.56,0.02,34500.0,-2560.0,-32140.0
32.7643175,35.0164576,482.92,-0.07625,0.0115,0.99025,0.12,0.16,0.0,34470.0,-2550.0,-32150.0
32.7643175,35.0164576,482.92,-0.06275,0.00975,0.99475,0.64,-0.52,0.0,34440.0,-2630.0,-32130.0
32.7643175,35.0164576,482.92,-0.05375,-0.01025,1.003,-0.16,-0.9,-0.06,34520.0,-2730.0,-32090.0
32.7643175,35.0164576,482.92,-0.05475,-0.0035,0.999,-0.76,-0.44,-0.04,34590.0,-2830.0,-32050.0
32.7643175,35.0164576,482.92,-0.0585,0.0065,0.98775,-0.02,0.44,0.06,34560.0,-2860.0,-32050.0
32.7643175,35.0164576,482.92,-0.06,-0.007,0.995,0.48,0.68,0.1,34550.0,-2840.0,-32050.0
32.7643175,35.0164576,482.92,-0.06775,-0.0075,1.0065,0.04,0.5,0.06,34530.0,-2810.0,-32060.0
32.7643175,35.0164576,482.92,-0.072,0.01,0.99575,-0.36,0.02,-0.06,34530.0,-2790.0,-32070.0
32.7643175,35.0164576,482.92,-0.06025,0.00025,0.99,-0.14,-0.46,0.02,34550.0,-2750.0,-32070.0
32.7643175,35.0164576,482.92,-0.049,-0.0195,1.00125,-0.16,-0.84,-0.06,34570.0,-2800.0,-32060.0
32.7643175,35.0164576,482.92,-0.0515,-0.00525,0.99575,-0.2,-0.52,-0.06,34530.0,-2820.0,-32060.0
32.7643175,35.0164576,482.92,-0.0565,0.00525,0.99175,0.14,0.34,0.08,34570.0,-2830.0,-32050.0
32.7643175,35.0164576,482.92,-0.0585,-0.01775,1.0045,0.02,0.62,0.12,34580.0,-2810.0,-32050.0
32.7643175,35.0164576,482.92,-0.0665,-0.02175,1.003,-0.4,0.46,0.06,34570.0,-2810.0,-32050.0
32.7643175,35.0164576,482.92,-0.07025,0.002,0.99075,-0.04,0.1,0.02,34580.0,-2790.0,-32050.0
32.7643175,35.0164576,482.92,-0.05775,0.0025,0.99325,0.54,-0.44,0.0,34530.0,-2700.0,-32080.0
32.7643175,35.0164576,482.92,-0.04575,-0.0185,1.009,-0.1,-0.84,-0.04,34500.0,-2710.0,-32080.0
32.7643175,35.0164576,482.92,-0.051,-0.0145,1.0015,-0.72,-0.48,-0.04,34490.0,-2690.0,-32090.0
32.7643175,35.0164576,482.92,-0.05975,-0.00475,0.985,-0.14,0.56,-0.08,34490.0,-2580.0,-32120.0
32.7643175,35.0164576,482.92,-0.06175,-0.0155,1.0005,0.54,0.88,0.1,34520.0,-2630.0,-32100.0
32.7643175,35.0164576,482.92,-0.0695,-0.01675,1.0015,0.2,0.58,0.02,34450.0,-2670.0,-32100.0
32.7643175,35.0164576,482.92,-0.07575,-0.00075,0.99875,-0.28,0.04,-0.04,34430.0,-2670.0,-32100.0
32.7643175,35.0164576,482.92,-0.0635,-0.006,0.98875,-0.16,-0.48,-0.04,34500.0,-2760.0,-32070.0
32.7643175,35.0164576,482.92,-0.04825,-0.02325,0.99975,-0.04,-0.88,-0.06,34490.0,-2750.0,-32070.0
32.7643175,35.0164576,482.92,-0.051,-0.01325,0.996,0.06,-0.5,-0.14,34520.0,-2740.0,-32060.0
32.7643175,35.0164576,482.92,-0.0575,0.004,0.99025,0.32,0.34,0.02,34540.0,-2750.0,-32060.0
32.7643175,35.0164576,482.92,-0.06075,-0.01075,1.00275,0.18,0.74,0.08,34510.0,-2740.0,-32070.0
32.7643175,35.0164576,482.92,-0.07075,-0.0205,1.00175,-0.22,0.64,0.1,34560.0,-2700.0,-32070.0
32.7643175,35.0164576,482.92,-0.0785,0.00225,0.98975,-0.06,0.2,-0.02,34550.0,-2660.0,-32080.0
32.7643175,35.0164576,482.92,-0.0655,0.012,0.991,0.68,-0.54,0.0,34500.0,-2630.0,-32090.0
32.7643175,35.0164576,482.92,-0.05025,-0.00775,1.0045,0.22,-1.0,-0.06,34490.0,-2650.0,-32090.0
32.7643175,35.0164576,482.92,-0.05075,-0.0095,1.0015,-0.58,-0.74,-0.1,34530.0,-2670.0,-32090.0
32.7643175,35.0164576,482.92,-0.05725,0.00625,0.98775,-0.24,0.36,-0.06,34540.0,-2700.0,-32070.0
32.7643175,35.0164576,482.92,-0.0585,0.0005,0.99225,0.56,0.88,0.12,34530.0,-2660.0,-32090.0
32.7643175,35.0164576,482.92,-0.06725,-0.009,1.00975,0.32,0.72,0.12,34550.0,-2610.0,-32100.0
32.7643175,35.0164576,482.92,-0.076,0.00775,0.99625,-0.26,0.16,0.08,34530.0,-2610.0,-32090.0
32.7643175,35.0164576,482.92,-0.06675,0.009,0.99275,-0.12,-0.38,-0.02,34580.0,-2640.0,-32080.0
32.7643175,35.0164576,482.92,-0.051,-0.0125,0.99775,0.0,-0.94,0.0,34600.0,-2640.0,-32080.0
32.7643175,35.0164576,482.92,-0.05,-0.008,0.99825,-0.1,-0.68,-0.06,34570.0,-2550.0,-32110.0
32.7643175,35.0164576,482.92,-0.05425,0.0125,0.99125,0.14,0.08,0.04,34560.0,-2570.0,-32100.0
32.7643175,35.0164576,482.92,-0.0565,0.0,1.002,0.16,0.7,0.1,34590.0,-2630.0,-32090.0
32.7643175,35.0164576,482.92,-0.065,-0.0205,1.00425,-0.42,0.6,0.1,34570.0,-2660.0,-32080.0
32.7643175,35.0164576,482.92,-0.075,-0.00075,0.99375,-0.26,0.32,-0.04,34560.0,-2680.0,-32080.0
32.7643175,35.0164576,482.92,-0.06675,0.0165,0.98725,0.5,-0.32,0.02,34570.0,-2680.0,-32080.0
32.7643175,35.0164576,482.92,-0.05175,-0.0045,1.0035,0.28,-0.8,0.06,34580.0,-2750.0,-32060.0
32.7643175,35.0164576,482.92,-0.0495,-0.01675,1.0065,-0.76,-0.76,-0.1,34530.0,-2720.0,-32070.0
32.7643175,35.0164576,482.92,-0.05675,0.00025,0.9885,-0.58,0.22,-0.08,34580.0,-2740.0,-32060.0
32.7643175,35.0164576,482.92,-0.05875,-0.00175,0.98825,0.42,0.76,0.02,34580.0,-2690.0,-32070.0
32.7643175,35.0164576,482.92,-0.065,-0.0155,1.00825,0.36,0.74,0.12,34540.0,-2690.0,-32080.0
32.7643175,35.0164576,482.92,-0.0745,-0.0045,1.00175,-0.32,0.14,0.06,34550.0,-2700.0,-32080.0
32.7643175,35.0164576,482.92,-0.0695,0.0045,0.9885,-0.42,-0.24,0.0,34560.0,-2720.0,-32070.0
32.7643175,35.0164576,482.92,-0.0535,-0.0165,0.99575,0.0,-0.78,-0.04,34550.0,-2750.0,-32070.0
32.7643175,35.0164576,482.92,-0.04975,-0.02175,0.9985,-0.04,-0.7,-0.1,34590.0,-2790.0,-32050.0
32.7643175,35.0164576,482.92,-0.057,0.00025,0.99375,0.08,-0.06,-0.04,34580.0,-2790.0,-32040.0
32.7643175,35.0164576,482.92,-0.0595,-0.00275,0.99625,0.12,0.66,0.16,34520.0,-2770.0,-32070.0
32.7643175,35.0164576,482.92,-0.0635,-0.0275,1.005,-0.24,0.64,0.08,34550.0,-2770.0,-32070.0
32.7643175,35.0164576,482.92,-0.0735,-0.017,0.99575,-0.32,0.26,-0.02,34590.0,-2790.0,-32060.0
32.7643175,35.0164576,482.92,-0.06925,0.009,0.98575,0.4,-0.08,0.0,34560.0,-2720.0,-32080.0
32.7643175,35.0164576,482.92,-0.05275,-0.00125,0.998,0.6,-0.74,0.02,34530.0,-2620.0,-32110.0
32.7643175,35.0164576,482.92,-0.04775,-0.0205,1.0105,-0.4,-0.88,-0.08,34530.0,-2640.0,-32110.0
32.7643175,35.0164576,482.92,-0.056,-0.01,0.99275,-0.72,-0.1,-0.08,34550.0,-2750.0,-32080.0
32.7643175,35.0164576,482.92,-0.05975,-0.00125,0.9855,0.26,0.88,0.12,34540.0,-2770.0,-32080.0
32.7643175,35.0164576,482.92,-0.0635,-0.01125,1.00075,0.82,0.84,0.14,34550.0,-2820.0,-32060.0
32.7643175,35.0164576,482.92,-0.07325,-0.005,1.0055,0.02,0.3,0.02,34520.0,-2830.0,-32060.0
32.7643175,35.0164576,482.92,-0.07325,0.0065,0.9965,-0.46,-0.24,0.02,34530.0,-2890.0,-32050.0
32.7643175,35.0164576,482.92,-0.05725,-0.00875,0.9905,-0.22,-0.72,-0.04,34510.0,-2830.0,-32060.0
32.7643175,35.0164576,482.92,-0.04675,-0.021,1.0005,0.06,-0.82,-0.02,34520.0,-2850.0,-32060.0
32.7643175,35.0164576,482.92,-0.05225,0.001,0.9945,0.3,-0.24,-0.02,34500.0,-2820.0,-32070.0
32.7643175,35.0164576,482.92,-0.05725,0.00975,0.996,0.38,0.56,0.02,34480.0,-2820.0,-32070.0
32.7643175,35.0164576,482.92,-0.06125,-0.01625,1.0075,-0.12,0.76,0.08,34530.0,-2880.0,-32050.0
32.7643175,35.0164576,482.92,-0.07125,-0.01725,0.9975,-0.44,0.46,0.06,34560.0,-2850.0,-32050.0
32.7643175,35.0164576,482.92,-0.0745,0.009,0.9885,0.28,0.0,0.02,34560.0,-2800.0,-32060.0
32.7643175,35.0164576,482.92,-0.0595,0.00975,0.99325,0.76,-0.56,0.02,34540.0,-2810.0,-32060.0
32.7643175,35.0164576,482.92,-0.04875,-0.0105,1.0105,-0.06,-0.9,-0.04,34480.0,-2800.0,-32080.0
32.7643175,35.0164576,482.92,-0.053,-0.0055,0.99775,-0.8,-0.44,-0.04,34480.0,-2750.0,-32090.0
32.7643175,35.0164576,482.92,-0.059,0.0035,0.984,-0.08,0.62,-0.02,34520.0,-2780.0,-32080.0
32.7643175,35.0164576,482.92,-0.061,-0.00725,0.99925,0.66,0.84,0.1,34450.0,-2810.0,-32080.0
32.7643175,35.0164576,482.92,-0.07025,-0.00575,1.005,0.2,0.44,0.08,34450.0,-2800.0,-32080.0
32.7643175,35.0164576,482.92,-0.0745,0.0115,0.997,-0.32,-0.06,-0.02,34490.0,-2680.0,-32110.0
32.7643175,35.0164576,482.92,-0.062,-0.00025,0.99125,-0.36,-0.62,-0.06,34520.0,-2700.0,-32100.0
32.7643175,35.0164576,482.92,-0.05,-0.022,0.9995,-0.12,-0.76,-0.1,34570.0,-2760.0,-32070.0
32.7643175,35.0164576,482.92,-0.0525,-0.00675,0.99325,0.04,-0.42,0.0,34540.0,-2770.0,-32080.0
32.7643175,35.0164576,482.92,-0.05625,0.01075,0.99175,0.32,0.44,0.04,34510.0,-2780.0,-32080.0
32.7643175,35.0164576,482.92,-0.06,-0.01,1.0045,0.06,0.62,0.12,34520.0,-2800.0,-32070.0
32.7643175,35.0164576,482.92,-0.069,-0.0235,1.00325,-0.62,0.48,0.08,34550.0,-2830.0,-32050.0
32.7643175,35.0164576,482.92,-0.07625,0.0,0.9895,-0.22,0.16,0.0,34540.0,-2770.0,-32070.0
32.7643175,35.0164576,482.92,-0.06425,0.0085,0.987,0.62,-0.38,0.06,34490.0,-2680.0,-32100.0
32.7643175,35.0164576,482.92,-0.0505,-0.0125,1.0075,0.26,-0.86,-0.02,34510.0,-2670.0,-32100.0
32.7643175,35.0164576,482.92,-0.0505,-0.013,1.003,-0.78,-0.64,-0.02,34530.0,-2710.0,-32080.0
32.7643175,35.0164576,482.92,-0.058,0.001,0.98725,-0.4,0.38,0.02,34550.0,-2790.0,-32060.0
32.7643175,35.0164576,482.92,-0.06,-0.009,0.99425,0.42,0.86,0.08,34580.0,-2820.0,-32060.0
32.7643175,35.0164576,482.92,-0.06625,-0.0165,1.00825,0.32,0.64,0.14,34680.0,-3050.0,-32030.0
32.7643175,35.0164576,482.92,-0.074,0.002,0.9995,-0.22,0.06,0.0,34800.0,-3220.0,-31990.0
32.7643175,35.0164576,482.92,-0.0665,0.004,0.9905,-0.22,-0.36,-0.06,34830.0,-3250.0,-31990.0
32.7643175,35.0164576,482.92,-0.051,-0.0195,0.999,-0.1,-0.84,-0.04,34830.0,-3280.0,-31990.0
32.7643175,35.0164576,482.92,-0.04925,-0.01725,0.99675,-0.1,-0.56,-0.1,34790.0,-3250.0,-32010.0
32.7643175,35.0164576,482.92,-0.05775,0.00425,0.99325,0.18,0.14,0.02,34830.0,-3290.0,-32000.0
32.7643175,35.0164576,482.92,-0.0605,-0.00675,0.9995,0.18,0.76,0.12,34870.0,-3320.0,-31990.0
32.7643175,35.0164576,482.92,-0.06625,-0.02575,1.0055,-0.22,0.68,0.04,34780.0,-3100.0,-32030.0
32.7643175,35.0164577,482.92,-0.07275,-0.00675,0.99225,-0.22,0.12,-0.02,34650.0,-2810.0,-32090.0
32.7643175,35.0164577,482.92,-0.0655,0.0125,0.986,0.6,-0.32,-0.02,34560.0,-2680.0,-32110.0
32.7643175,35.0164577,482.92,-0.05025,-0.0055,1.00225,0.44,-0.84,-0.06,34490.0,-2670.0,-32110.0
32.7643175,35.0164577,482.92,-0.04875,-0.0185,1.00725,-0.54,-0.66,-0.14,34490.0,-2680.0,-32100.0
32.7643175,35.0164577,482.92,-0.05875,-0.00125,0.98675,-0.54,0.22,0.0,34540.0,-2740.0,-32080.0
32.7643175,35.0164577,482.92,-0.0625,0.00125,0.98775,0.54,0.96,0.08,34550.0,-2770.0,-32060.0
32.7643175,35.0164577,482.92,-0.067,-0.012,1.00525,0.64,0.72,0.08,34550.0,-2760.0,-32060.0
32.7643175,35.0164577,482.92,-0.07475,-0.00275,1.00175,-0.28,0.08,0.0,34540.0,-2730.0,-32070.0
32.7643175,35.0164577,482.92,-0.07025,0.008,0.99125,-0.44,-0.32,0.02,34510.0,-2710.0,-32080.0
32.7643175,35.0164577,482.92,-0.0535,-0.0095,0.993,-0.02,-0.82,-0.08,34500.0,-2680.0,-32090.0
32.7643175,35.0164577,482.92,-0.0455,-0.01925,1.0015,0.12,-0.72,-0.1,34540.0,-2740.0,-32060.0
32.7643175,35.0164577,482.92,-0.0525,0.00325,0.995,0.08,-0.08,0.06,34510.0,-2740.0,-32070.0
32.7643175,35.0164577,482.92,-0.0585,0.00775,0.99575,0.2,0.72,0.06,34510.0,-2720.0,-32070.0
32.7643175,35.0164577,482.92,-0.06275,-0.01825,1.00525,-0.1,0.76,0.06,34550.0,-2700.0,-32080.0
32.7643175,35.0164577,482.92,-0.072,-0.01625,1.0,-0.36,0.34,0.02,34510.0,-2660.0,-32090.0
32.7643175,35.0164577,482.92,-0.0735,0.0115,0.986,0.24,-0.06,-0.04,34500.0,-2660.0,-32090.0
32.7643175,35.0164577,482.92,-0.05875,0.0095,0.99775,0.7,-0.58,0.02,34490.0,-2580.0,-32110.0
32.7643175,35.0164577,482.92,-0.04775,-0.01625,1.00875,-0.26,-0.78,-0.1,34490.0,-2610.0,-32100.0
32.7643175,35.0164577,482.92,-0.0535,-0.01,0.996,-0.82,-0.28,-0.1,34480.0,-2640.0,-32110.0
32.7643174,35.0164577,482.92,-0.06,0.006,0.982,0.0,0.64,-0.06,34460.0,-2570.0,-32130.0
32.7643174,35.0164577,482.92,-0.061,-0.00375,1.00125,0.8,0.86,0.12,34460.0,-2580.0,-32120.0
32.7643174,35.0164577,482.92,-0.06875,-0.00975,1.00575,0.06,0.36,0.1,34460.0,-2640.0,-32110.0
32.7643174,35.0164577,482.92,-0.075,0.006,0.99925,-0.7,-0.08,-0.06,34520.0,-2640.0,-32100.0
32.7643174,35.0164577,482.92,-0.06425,0.001,0.98575,-0.22,-0.48,0.02,34550.0,-2690.0,-32080.0
32.7643174,35.0164577,482.92,-0.0505,-0.021,1.001,0.14,-0.66,-0.04,34480.0,-2720.0,-32080.0
32.7643174,35.0164577,482.92,-0.051,-0.011,0.99625,0.1,-0.48,0.02,34510.0,-2760.0,-32070.0
32.7643174,35.0164577,482.92,-0.05825,0.01075,0.9945,0.0,0.32,-0.06,34550.0,-2770.0,-32060.0
32.7643174,35.0164577,482.92,-0.06,-0.00875,0.9995,-0.06,0.68,0.04,34560.0,-2800.0,-32050.0
32.7643174,35.0164577,482.92,-0.06425,-0.0285,1.007,-0.44,0.46,0.08,34540.0,-2800.0,-32060.0
32.7643174,35.0164577,482.92,-0.0725,-0.006,0.9885,-0.14,0.06,-0.02,34520.0,-2770.0,-32070.0
32.7643174,35.0164577,482.92,-0.06525,0.01425,0.98925,0.68,-0.22,-0.1,34490.0,-2770.0,-32070.0
32.7643174,35.0164577,482.92,-0.05075,-0.008,1.00525,0.34,-0.66,-0.08,34550.0,-2780.0,-32060.0
32.7643174,35.0164577,482.92,-0.049,-0.0215,1.00575,-0.82,-0.6,-0.1,34580.0,-2830.0,-32050.0
32.7643174,35.0164577,482.92,-0.05975,-0.00275,0.985,-0.52,0.16,-0.06,34530.0,-2810.0,-32060.0
32.7643174,35.0164577,482.92,-0.0615,0.00125,0.98925,0.66,0.86,0.06,34490.0,-2790.0,-32080.0
32.7643174,35.0164577,482.92,-0.0645,-0.013,1.0075,0.66,0.6,0.06,34510.0,-2750.0,-32080.0
32.7643174,35.0164577,482.92,-0.0705,-0.0045,1.00425,-0.36,-0.02,0.0,34540.0,-2770.0,-32070.0
32.7643174,35.0164577,482.92,-0.069,0.0055,0.99,-0.56,-0.3,0.0,34590.0,-2790.0,-32060.0
32.7643174,35.0164577,482.92,-0.0535,-0.01275,0.991,0.08,-0.64,-0.02,34570.0,-2770.0,-32070.0
32.7643174,35.0164577,482.91,-0.0465,-0.0225,1.00175,0.24,-0.5,0.04,34480.0,-2660.0,-32110.0
32.7643174,35.0164577,482.91,-0.05525,0.00275,0.9925,0.12,-0.04,-0.04,34450.0,-2700.0,-32110.0
32.7643174,35.0164577,482.91,-0.06175,0.00825,0.99525,0.18,0.68,-0.06,34480.0,-2780.0,-32090.0
32.7643174,35.0164577,482.91,-0.06375,-0.01925,1.0055,-0.18,0.62,0.08,34480.0,-2810.0,-32080.0
32.7643174,35.0164577,482.91,-0.0705,-0.0205,0.99975,-0.44,0.12,0.0,34460.0,-2820.0,-32070.0
32.7643174,35.0164577,482.91,-0.07325,0.00975,0.989,0.34,-0.12,0.0,34470.0,-2830.0,-32070.0
32.7643174,35.0164577,482.91,-0.05875,0.0115,0.99625,0.76,-0.52,0.02,34490.0,-2840.0,-32070.0
32.7643174,35.0164577,482.91,-0.04775,-0.016,1.013,-0.22,-0.68,-0.02,34540.0,-2830.0,-32060.0
32.7643174,35.0164577,482.91,-0.05275,-0.014,0.99575,-0.88,-0.34,-0.12,34540.0,-2830.0,-32060.0
32.7643174,35.0164577,482.91,-0.0605,0.00575,0.98375,-0.06,0.54,0.0,34510.0,-2820.0,-32070.0
32.7643174,35.0164577,482.91,-0.06175,-0.002,0.9975,0.9,0.88,0.08,34480.0,-2790.0,-32080.0
32.7643174,35.0164577,482.91,-0.069,-0.012,1.01025,0.24,0.4,0.16,34520.0,-2840.0,-32060.0
32.7643174,35.0164577,482.91,-0.0765,0.00125,0.99625,-0.84,-0.06,-0.02,34570.0,-2860.0,-32050.0
32.7643174,35.0164577,482.91,-0.068,0.0015,0.98625,-0.4,-0.44,-0.04,34520.0,-2890.0,-32040.0
32.7643174,35.0164577,482.91,-0.05175,-0.019,0.995,0.36,-0.56,0.02,34510.0,-2910.0,-32040.0
32.7643174,35.0164577,482.91,-0.0495,-0.01175,0.999,0.24,-0.6,-0.02,34540.0,-2890.0,-32050.0
32.7643174,35.0164577,482.91,-0.05675,0.014,0.9915,0.02,0.18,-0.04,34520.0,-2820.0,-32070.0
32.7643174,35.0164577,482.91,-0.059,0.00025,1.00075,-0.12,0.56,0.1,34550.0,-2830.0,-32060.0
32.7643174,35.0164577,482.91,-0.06275,-0.02775,1.0045,-0.4,0.52,0.08,34550.0,-2850.0,-32050.0
32.7643174,35.0164577,482.91,-0.07125,-0.01,0.99275,-0.2,0.12,-0.02,34470.0,-2770.0,-32080.0
32.7643174,35.0164577,482.91,-0.069,0.01825,0.9845,0.66,-0.12,0.04,34460.0,-2670.0,-32110.0
32.7643174,35.0164577,482.91,-0.05275,0.0015,1.0035,0.44,-0.56,-0.04,34500.0,-2700.0,-32100.0
32.7643174,35.0164577,482.91,-0.048,-0.021,1.0085,-0.66,-0.74,-0.04,34510.0,-2790.0,-32070.0
32.7643174,35.0164577,482.91,-0.057,-0.00675,0.9895,-0.84,-0.04,-0.06,34500.0,-2830.0,-32060.0
32.7643174,35.0164577,482.91,-0.06075,0.00325,0.9855,0.48,0.82,0.08,34520.0,-2860.0,-32050.0
32.7643174,35.0164577,482.91,-0.0605,-0.01,1.009,0.84,0.7,0.14,34550.0,-2890.0,-32040.0
32.7643174,35.0164577,482.91,-0.06725,-0.0075,1.00675,-0.16,0.08,0.06,34590.0,-2930.0,-32020.0
32.7643174,35.0164577,482.91,-0.0695,0.00625,0.99225,-0.8,-0.24,-0.1,34550.0,-2860.0,-32040.0
32.7643174,35.0164577,482.91,-0.0555,-0.0075,0.99075,-0.06,-0.5,-0.02,34520.0,-2850.0,-32050.0
32.7643174,35.0164577,482.91,-0.047,-0.02325,1.00125,0.3,-0.42,-0.02,34520.0,-2810.0,-32060.0
32.7643174,35.0164577,482.91,-0.05325,-0.00325,0.99675,0.14,-0.12,-0.02,34550.0,-2800.0,-32060.0
32.7643174,35.0164577,482.91,-0.06275,0.01175,0.99575,0.06,0.64,-0.02,34590.0,-2830.0,-32040.0
32.7643174,35.0164577,482.91,-0.06375,-0.01425,1.00325,-0.1,0.68,0.04,34560.0,-2810.0,-32050.0
32.7643174,35.0164577,482.91,-0.069,-0.02775,1.0025,-0.46,0.3,0.04,34550.0,-2820.0,-32050.0
32.7643174,35.0164577,482.91,-0.07325,0.00275,0.987,0.1,-0.06,-0.04,34530.0,-2840.0,-32050.0
32.7643174,35.0164577,482.91,-0.0615,0.01575,0.991,0.74,-0.4,-0.06,34510.0,-2800.0,-32060.0
32.7643174,35.0164577,482.91,-0.048,-0.01225,1.01075,0.12,-0.72,-0.04,34570.0,-2760.0,-32060.0
32.7643174,35.0164577,482.91,-0.0525,-0.021,1.00075,-1.06,-0.46,-0.06,34560.0,-2780.0,-32060.0
32.7643174,35.0164577,482.91,-0.063,-0.002,0.98225,-0.36,0.5,-0.04,34500.0,-2770.0,-32070.0
32.7643174,35.0164577,482.91,-0.065,0.00125,0.99225,0.92,1.0,0.14,34540.0,-2750.0,-32070.0
32.7643174,35.0164577,482.91,-0.06875,-0.012,1.00675,0.56,0.48,0.14,34530.0,-2650.0,-32100.0
32.7643174,35.0164577,482.91,-0.0745,-0.002,1.002,-0.62,-0.18,-0.06,34520.0,-2630.0,-32100.0
32.7643174,35.0164577,482.91,-0.0685,0.003,0.988,-0.56,-0.46,-0.08,34550.0,-2700.0,-32080.0
32.7643174,35.0164577,482.91,-0.051,-0.017,0.99175,0.16,-0.64,0.0,34540.0,-2730.0,-32070.0
32.7643174,35.0164577,482.91,-0.04725,-0.01975,1.001,0.32,-0.54,-0.04,34500.0,-2770.0,-32060.0
32.7643174,35.0164577,482.91,-0.05575,0.0095,0.99475,0.12,0.08,-0.06,34490.0,-2750.0,-32070.0
32.7643174,35.0164577,482.91,-0.06,0.00775,0.995,0.0,0.58,0.04,34550.0,-2810.0,-32050.0
32.7643174,35.0164577,482.91,-0.06125,-0.02375,1.00825,-0.26,0.58,0.06,34550.0,-2800.0,-32050.0
32.7643174,35.0164577,482.91,-0.06975,-0.0195,0.9945,-0.32,0.06,0.02,34510.0,-2770.0,-32060.0
32.7643174,35.0164577,482.91,-0.06975,0.0145,0.987,0.58,-0.04,0.0,34510.0,-2710.0,-32080.0
32.7643174,35.0164577,482.91,-0.055,0.0105,0.99825,0.78,-0.46,0.02,34520.0,-2620.0,-32100.0
32.7643174,35.0164577,482.91,-0.04675,-0.01675,1.01225,-0.4,-0.64,-0.04,34580.0,-2690.0,-32070.0
32.7643174,35.0164577,482.91,-0.05475,-0.0115,0.99275,-1.0,-0.22,-0.02,34560.0,-2720.0,-32070.0
32.7643174,35.0164577,482.91,-0.06025,0.00475,0.98275,0.18,0.66,0.0,34560.0,-2770.0,-32050.0
32.7643174,35.0164577,482.91,-0.0595,-0.0035,1.00075,0.94,0.78,0.1,34550.0,-2780.0,-32050.0
32.7643174,35.0164577,482.91,-0.065,-0.008,1.01025,0.2,0.2,0.08,34530.0,-2740.0,-32070.0
32.7643174,35.0164577,482.91,-0.07225,0.0055,0.99825,-0.8,-0.08,-0.02,34570.0,-2680.0,-32080.0
32.7643174,35.0164577,482.91,-0.062,-0.001,0.98525,-0.4,-0.32,-0.04,34530.0,-2680.0,-32080.0
32.7643174,35.0164577,482.91,-0.0505,-0.02175,1.00025,0.22,-0.44,0.0,34550.0,-2740.0,-32060.0
32.7643174,35.0164577,482.91,-0.0535,-0.00875,0.99725,0.3,-0.38,-0.02,34570.0,-2720.0,-32070.0
32.7643174,35.0164577,482.91,-0.06,0.01325,0.99325,0.12,0.28,0.0,34560.0,-2680.0,-32100.0
32.7643174,35.0164577,482.91,-0.0605,-0.00625,1.00425,-0.18,0.5,0.1,34690.0,-2860.0,-32080.0
32.7643174,35.0164577,482.91,-0.06325,-0.0305,1.003,-0.42,0.34,0.02,34730.0,-2920.0,-32070.0
32.7643174,35.0164577,482.91,-0.07125,-0.0065,0.98825,-0.08,0.12,0.04,34740.0,-3040.0,-32060.0
32.7643174,35.0164577,482.91,-0.06525,0.018,0.98925,0.78,-0.18,0.02,34840.0,-3240.0,-32000.0
32.7643174,35.0164577,482.91,-0.05175,-0.004,1.00475,0.46,-0.6,-0.04,34870.0,-3330.0,-31980.0
32.7643174,35.0164577,482.91,-0.051,-0.0225,1.0085,-0.88,-0.62,-0.12,34840.0,-3380.0,-31970.0
32.7643174,35.0164577,482.91,-0.0625,-0.00725,0.9845,-0.72,0.24,-0.08,34870.0,-3410.0,-31960.0
32.7643174,35.0164577,482.91,-0.0645,0.002,0.98525,0.76,0.92,0.1,34820.0,-3300.0,-31980.0
32.7643174,35.0164577,482.91,-0.065,-0.01125,1.00875,0.88,0.52,0.14,34700.0,-3070.0,-32020.0
32.7643174,35.0164577,482.91,-0.071,-0.003,1.00525,-0.24,-0.1,0.0,34650.0,-2910.0,-32040.0
32.7643174,35.0164577,482.91,-0.0695,0.00525,0.99025,-0.8,-0.38,-0.06,34610.0,-2900.0,-32040.0
32.7643174,35.0164577,482.91,-0.05425,-0.0135,0.9915,-0.08,-0.54,-0.06,34550.0,-2870.0,-32050.0
32.7643174,35.0164577,482.91,-0.048,-0.02325,0.99925,0.3,-0.44,-0.04,34590.0,-2860.0,-32040.0
32.7643174,35.0164577,482.91,-0.056,0.003,0.99625,0.28,-0.06,0.0,34590.0,-2850.0,-32040.0
32.7643174,35.0164577,482.91,-0.06275,0.01125,0.99525,0.06,0.62,0.04,34540.0,-2860.0,-32050.0
32.7643174,35.0164577,482.91,-0.0625,-0.0195,1.00725,-0.32,0.56,0.14,34500.0,-2790.0,-32070.0
32.7643174,35.0164577,482.91,-0.069,-0.02675,0.99825,-0.52,0.2,0.0,34480.0,-2730.0,-32090.0
32.7643174,35.0164577,482.91,-0.0715,0.00825,0.98725,0.38,-0.12,0.06,34470.0,-2790.0,-32080.0
32.7643174,35.0164577,482.91,-0.0575,0.014,0.9935,0.92,-0.42,-0.06,34360.0,-2730.0,-32110.0
32.7643174,35.0164577,482.91,-0.04725,-0.01325,1.01125,-0.14,-0.82,-0.04,34350.0,-2660.0,-32130.0
32.7643174,35.0164577,482.91,-0.05375,-0.0155,0.99825,-1.12,-0.34,-0.08,34390.0,-2710.0,-32120.0
32.7643174,35.0164577,482.91,-0.06,0.00175,0.9825,-0.26,0.56,0.0,34420.0,-2770.0,-32100.0
32.7643174,35.0164577,482.91,-0.06125,-0.0035,0.99425,0.88,0.94,0.14,34430.0,-2770.0,-32090.0
32.7643174,35.0164577,482.91,-0.0645,-0.009,1.00725,0.52,0.36,0.1,34490.0,-2840.0,-32070.0
32.7643174,35.0164577,482.91,-0.07275,0.0055,0.9995,-0.54,-0.2,-0.04,34470.0,-2830.0,-32070.0
32.7643174,35.0164577,482.91,-0.064,0.00275,0.991,-0.58,-0.46,-0.04,34490.0,-2850.0,-32060.0
32.7643174,35.0164577,482.91,-0.049,-0.02175,0.9955,-0.04,-0.6,-0.04,34510.0,-2860.0,-32060.0
32.7643174,35.0164577,482.91,-0.04925,-0.015,0.99675,0.26,-0.38,-0.1,34470.0,-2870.0,-32060.0
32.7643174,35.0164577,482.91,-0.05725,0.01275,0.9925,0.36,0.26,0.0,34500.0,-2850.0,-32070.0
32.7643174,35.0164577,482.91,-0.06025,0.00275,1.00075,0.1,0.68,0.08,34500.0,-2820.0,-32080.0
32.7643174,35.0164577,482.91,-0.0625,-0.028,1.00825,-0.64,0.52,0.06,34490.0,-2810.0,-32070.0
32.7643174,35.0164577,482.91,-0.07375,-0.0125,0.99075,-0.5,0.18,0.04,34480.0,-2810.0,-32080.0
32.7643174,35.0164577,482.91,-0.0695,0.01475,0.98275,0.74,-0.16,-0.04,34530.0,-2830.0,-32070.0
32.7643174,35.0164577,482.91,-0.0525,0.00125,0.999,0.8,-0.66,0.04,34500.0,-2830.0,-32070.0
32.7643174,35.0164577,482.91,-0.0495,-0.01675,1.01325,-0.52,-0.72,-0.12,34480.0,-2790.0,-32080.0
32.7643174,35.0164577,482.91,-0.0575,-0.00475,0.9895,-0.98,-0.04,-0.06,34510.0,-2740.0,-32090.0
32.7643174,35.0164577,482.91,-0.0625,0.00175,0.9835,0.1,0.9,-0.02,34510.0,-2760.0,-32090.0
32.7643174,35.0164577,482.91,-0.06325,-0.01225,1.00375,0.94,0.86,0.12,34520.0,-2810.0,-32070.0
32.7643174,35.0164577,482.91,-0.073,-0.00375,1.00575,0.12,0.12,0.04,34500.0,-2800.0,-32070.0
32.7643173,35.0164578,482.92,-0.0735,0.0095,0.99475,-0.66,-0.28,-0.08,34440.0,-2660.0,-32120.0
32.7643173,35.0164578,482.92,-0.05775,-0.00975,0.99525,-0.34,-0.66,-0.02,34440.0,-2630.0,-32130.0
32.7643173,35.0164578,482.92,-0.04875,-0.02625,0.99925,-0.02,-0.66,-0.02,34510.0,-2690.0,-32100.0
32.7643173,35.0164578,482.92,-0.05375,-0.002,0.9935,0.34,-0.14,-0.04,34530.0,-2750.0,-32080.0
32.7643173,35.0164578,482.92,-0.0605,0.01275,0.99625,0.38,0.62,0.08,34450.0,-2730.0,-32100.0
32.7643173,35.0164578,482.92,-0.06125,-0.016,1.00925,-0.16,0.62,0.1,34490.0,-2700.0,-32090.0
32.7643173,35.0164578,482.92,-0.06925,-0.02425,1.00125,-0.76,0.26,0.04,34540.0,-2760.0,-32070.0
32.7643173,35.0164578,482.92,-0.07225,0.0035,0.98525,0.08,-0.04,-0.06,34580.0,-2750.0,-32060.0
32.7643173,35.0164578,482.92,-0.06,0.01,0.9925,0.94,-0.46,0.0,34610.0,-2770.0,-32050.0
32.7643173,35.0164578,482.92,-0.04825,-0.01325,1.012,0.12,-0.72,0.0,34570.0,-2730.0,-32070.0
32.7643173,35.0164578,482.92,-0.052,-0.01325,1.00125,-0.96,-0.42,-0.12,34530.0,-2680.0,-32080.0
32.7643173,35.0164578,482.92,-0.0595,0.00275,0.9835,-0.34,0.56,0.0,34550.0,-2700.0,-32080.0
32.7643173,35.0164578,482.92,-0.0605,-0.0045,0.99225,0.8,0.88,0.14,34560.0,-2740.0,-32070.0
32.7643173,35.0164578,482.92,-0.06675,-0.01075,1.00925,0.48,0.36,0.06,34560.0,-2750.0,-32060.0
32.7643173,35.0164578,482.92,-0.0735,0.00525,1.0005,-0.46,-0.06,-0.02,34570.0,-2780.0,-32050.0
32.7643173,35.0164578,482.92,-0.066,0.002,0.98875,-0.54,-0.4,0.02,34590.0,-2760.0,-32050.0
32.7643173,35.0164578,482.92,-0.051,-0.02225,0.997,-0.04,-0.58,-0.06,34600.0,-2680.0,-32060.0
32.7643173,35.0164578,482.92,-0.0495,-0.015,0.995,0.2,-0.46,0.0,34600.0,-2630.0,-32080.0
32.7643173,35.0164578,482.92,-0.056,0.0115,0.992,0.3,0.16,-0.08,34620.0,-2690.0,-32060.0
32.7643173,35.0164578,482.92,-0.058,-0.00125,1.001,0.02,0.6,0.08,34600.0,-2620.0,-32080.0
32.7643173,35.0164578,482.92,-0.06375,-0.02725,1.005,-0.52,0.46,0.06,34550.0,-2550.0,-32110.0
32.7643173,35.0164578,482.92,-0.0735,-0.0115,0.99175,-0.42,0.2,0.0,34530.0,-2550.0,-32110.0
32.7643173,35.0164578,482.92,-0.07025,0.01175,0.98575,0.72,-0.04,0.02,34530.0,-2620.0,-32090.0
32.7643173,35.0164578,482.92,-0.0545,-0.00375,1.00175,0.58,-0.56,0.02,34540.0,-2650.0,-32080.0
32.7643173,35.0164578,482.92,-0.04975,-0.01825,1.009,-0.64,-0.72,-0.06,34590.0,-2700.0,-32060.0
32.7643173,35.0164578,482.92,-0.05675,-0.003,0.98825,-0.7,0.02,-0.02,34620.0,-2710.0,-32050.0
32.7643173,35.0164578,482.92,-0.05925,-0.0005,0.9875,0.5,0.68,0.1,34570.0,-2770.0,-32040.0
32.7643173,35.0164578,482.92,-0.062,-0.0125,1.008,0.68,0.6,0.16,34520.0,-2720.0,-32060.0
32.7643173,35.0164578,482.92,-0.07075,-0.0035,1.0065,-0.08,0.16,0.02,34540.0,-2720.0,-32060.0
32.7643173,35.0164578,482.92,-0.0725,0.0085,0.99175,-0.5,-0.12,-0.02,34510.0,-2690.0,-32070.0
32.7643173,35.0164578,482.92,-0.058,-0.01025,0.9945,-0.18,-0.48,0.04,34510.0,-2670.0,-32070.0
32.7643173,35.0164578,482.92,-0.05025,-0.02275,1.00225,0.1,-0.6,-0.08,34540.0,-2710.0,-32060.0
32.7643173,35.0164578,482.92,-0.05375,0.00175,0.9955,0.14,-0.22,-0.04,34470.0,-2670.0,-32080.0
32.7643173,35.0164578,482.92,-0.05925,0.0085,0.996,0.34,0.5,0.04,34500.0,-2690.0,-32080.0
32.7643173,35.0164578,482.92,-0.06175,-0.019,1.0075,-0.16,0.58,0.08,34570.0,-2720.0,-32060.0
32.7643173,35.0164578,482.92,-0.068,-0.01975,0.999,-0.54,0.38,0.02,34570.0,-2680.0,-32070.0
32.7643173,35.0164578,482.92,-0.072,0.01025,0.98325,0.26,0.04,-0.04,34580.0,-2620.0,-32080.0
32.7643173,35.0164578,482.92,-0.057,0.009,0.992,0.88,-0.52,0.02,34560.0,-2690.0,-32060.0
32.7643173,35.0164578,482.92,-0.0485,-0.01425,1.0105,-0.04,-0.84,-0.08,34540.0,-2700.0,-32070.0
32.7643173,35.0164578,482.92,-0.051,-0.00925,0.99825,-0.92,-0.36,-0.1,34580.0,-2680.0,-32070.0
32.7643173,35.0164578,482.92,-0.06125,0.0035,0.981,-0.22,0.74,-0.02,34580.0,-2590.0,-32100.0
32.7643173,35.0164578,482.92,-0.06325,-0.0085,0.9985,0.72,1.02,0.2,34530.0,-2550.0,-32120.0
32.7643173,35.0164578,482.92,-0.06925,-0.009,1.0065,0.34,0.32,0.04,34530.0,-2600.0,-32110.0
32.7643173,35.0164578,482.92,-0.07325,0.0095,0.99425,-0.42,-0.24,-0.06,34530.0,-2650.0,-32100.0
32.7643173,35.0164578,482.92,-0.05925,0.001,0.9935,-0.38,-0.76,-0.04,34520.0,-2690.0,-32080.0
32.7643173,35.0164578,482.92,-0.04525,-0.02175,0.99675,-0.24,-0.88,-0.1,34580.0,-2730.0,-32070.0
32.7643173,35.0164578,482.92,-0.04325,-0.01025,0.99575,0.1,-0.28,-0.02,34600.0,-2790.0,-32050.0
32.7643173,35.0164578,482.92,-0.05775,0.01075,0.99375,0.36,0.6,0.04,34540.0,-2800.0,-32050.0
32.7643173,35.0164578,482.92,-0.062,-0.00675,1.0005,0.1,0.88,0.16,34580.0,-2810.0,-32040.0
32.7643173,35.0164578,482.92,-0.06875,-0.025,1.00675,-0.62,0.42,0.06,34600.0,-2750.0,-32060.0
32.7643173,35.0164578,482.92,-0.0755,-0.00275,0.98875,-0.24,0.0,-0.02,34600.0,-2750.0,-32060.0
32.7643173,35.0164578,482.92,-0.0635,0.01075,0.98825,0.8,-0.6,0.02,34560.0,-2750.0,-32060.0
32.7643173,35.0164578,482.92,-0.04725,-0.00925,1.00925,0.5,-0.86,0.0,34550.0,-2730.0,-32080.0
32.7643173,35.0164578,482.92,-0.04575,-0.01625,1.008,-0.7,-0.64,-0.04,34560.0,-2760.0,-32060.0
32.7643173,35.0164578,482.92,-0.05725,0.00025,0.9885,-0.68,0.56,0.0,34600.0,-2790.0,-32060.0
32.7643173,35.0164578,482.92,-0.061,-0.003,0.98975,0.48,1.06,0.08,34580.0,-2790.0,-32060.0
32.7643173,35.0164578,482.92,-0.067,-0.01475,1.0065,0.58,0.76,0.1,34540.0,-2760.0,-32080.0
32.7643173,35.0164578,482.92,-0.07575,0.0,1.00275,-0.14,0.02,0.06,34510.0,-2760.0,-32080.0
32.7643173,35.0164578,482.92,-0.0695,0.0055,0.99075,-0.42,-0.42,-0.04,34520.0,-2830.0,-32060.0
32.7643173,35.0164578,482.92,-0.053,-0.017,0.99625,-0.14,-0.76,-0.04,34540.0,-2800.0,-32060.0
32.7643173,35.0164578,482.92,-0.0495,-0.01925,0.99725,0.06,-0.54,-0.06,34440.0,-2660.0,-32120.0
32.7643173,35.0164578,482.92,-0.05725,0.00675,0.993,0.28,0.06,0.0,34420.0,-2600.0,-32140.0
32.7643173,35.0164578,482.92,-0.0595,0.00125,0.9985,0.26,0.78,0.1,34450.0,-2610.0,-32140.0
32.7643173,35.0164578,482.92,-0.0635,-0.024,1.00675,-0.34,0.54,0.02,34470.0,-2700.0,-32110.0
32.7643173,35.0164578,482.92,-0.0725,-0.0135,0.9935,-0.38,0.16,0.02,34470.0,-2760.0,-32090.0
32.7643173,35.0164578,482.92,-0.07,0.01275,0.985,0.48,-0.18,0.04,34500.0,-2810.0,-32070.0
32.7643173,35.0164578,482.92,-0.05475,0.0,0.99925,0.68,-0.58,-0.04,34460.0,-2840.0,-32070.0
32.7643173,35.0164578,482.92,-0.0495,-0.0195,1.00975,-0.46,-0.78,-0.12,34530.0,-2880.0,-32050.0
32.7643173,35.0164578,482.92,-0.05775,-0.0055,0.98975,-0.78,-0.08,-0.02,34640.0,-2980.0,-32030.0
32.7643173,35.0164578,482.92,-0.0605,0.00275,0.9845,0.32,0.76,0.0,34720.0,-3170.0,-32010.0
32.7643173,35.0164578,482.92,-0.06125,-0.01075,1.00275,0.74,0.7,0.08,34740.0,-3240.0,-32010.0
32.7643173,35.0164578,482.92,-0.069,-0.00525,1.00775,-0.04,0.2,0.06,34850.0,-3370.0,-31960.0
32.7643173,35.0164578,482.92,-0.07075,0.00825,0.99175,-0.5,-0.12,0.0,34890.0,-3410.0,-31960.0
32.7643173,35.0164578,482.92,-0.05625,-0.00675,0.992,-0.22,-0.54,0.04,34940.0,-3440.0,-31940.0
32.7643173,35.0164578,482.92,-0.048,-0.021,0.999,0.1,-0.66,-0.08,34910.0,-3420.0,-31950.0
32.7643173,35.0164578,482.92,-0.054,0.00125,0.9955,0.22,-0.18,-0.02,34890.0,-3440.0,-31950.0
32.7643173,35.0164578,482.92,-0.05925,0.01,0.9955,0.18,0.56,0.04,34780.0,-3250.0,-31980.0
32.7643173,35.0164578,482.92,-0.06125,-0.017,1.00725,-0.14,0.66,0.16,34630.0,-2960.0,-32050.0
32.7643173,35.0164578,482.92,-0.0685,-0.022,1.0,-0.48,0.36,-0.06,34540.0,-2830.0,-32080.0
32.7643173,35.0164578,482.92,-0.07225,0.00875,0.98625,0.28,0.04,-0.02,34460.0,-2760.0,-32100.0
32.7643173,35.0164579,482.91,-0.059,0.013,0.9945,0.76,-0.54,0.02,34440.0,-2650.0,-32130.0
32.7643173,35.0164579,482.91,-0.04775,-0.0125,1.0095,-0.06,-0.8,-0.04,34510.0,-2670.0,-32110.0
32.7643173,35.0164579,482.91,-0.054,-0.01225,0.9985,-0.94,-0.44,-0.06,34520.0,-2730.0,-32080.0
32.7643173,35.0164579,482.91,-0.062,0.0015,0.98525,-0.2,0.66,0.02,34510.0,-2690.0,-32090.0
32.7643173,35.0164579,482.91,-0.0635,-0.0055,0.99375,0.78,0.98,0.1,34520.0,-2720.0,-32090.0
32.7643173,35.0164579,482.91,-0.06975,-0.01,1.009,0.3,0.38,0.12,34490.0,-2700.0,-32090.0
32.7643173,35.0164579,482.91,-0.0745,0.006,0.99725,-0.52,-0.16,-0.04,34520.0,-2720.0,-32080.0
32.7643173,35.0164579,482.91,-0.063,0.001,0.98825,-0.4,-0.58,0.0,34560.0,-2750.0,-32060.0
32.7643173,35.0164579,482.91,-0.0485,-0.0225,0.9985,-0.02,-0.78,0.0,34500.0,-2750.0,-32070.0
32.7643173,35.0164579,482.91,-0.0495,-0.01325,0.9955,0.1,-0.36,-0.08,34530.0,-2750.0,-32060.0
32.7643173,35.0164579,482.91,-0.0585,0.009,0.99425,0.28,0.46,0.02,34550.0,-2720.0,-32070.0
32.7643173,35.0164579,482.91,-0.062,-0.007,1.002,0.1,0.86,0.12,34570.0,-2710.0,-32070.0
32.7643173,35.0164579,482.91,-0.068,-0.02775,1.003,-0.5,0.46,0.08,34590.0,-2710.0,-32070.0
32.7643173,35.0164579,482.91,-0.07475,-0.00675,0.99175,-0.14,0.02,0.02,34560.0,-2710.0,-32070.0
32.7643173,35.0164579,482.91,-0.0655,0.0135,0.98625,0.72,-0.34,-0.02,34530.0,-2710.0,-32070.0
32.7643173,35.0164579,482.91,-0.04925,-0.006,1.006,0.44,-0.76,-0.04,34530.0,-2680.0,-32070.0
32.7643173,35.0164579,482.91,-0.049,-0.01875,1.00825,-0.68,-0.64,-0.16,34550.0,-2650.0,-32080.0
32.7643173,35.0164579,482.91,-0.05825,-0.002,0.9855,-0.52,0.26,-0.04,34520.0,-2620.0,-32100.0
32.7643173,35.0164579,482.91,-0.06125,0.00025,0.9895,0.52,0.92,0.1,34530.0,-2690.0,-32070.0
32.7643173,35.0164579,482.91,-0.0655,-0.01075,1.00575,0.7,0.66,0.12,34530.0,-2660.0,-32080.0
32.7643172,35.0164579,482.91,-0.073,0.0005,1.00325,-0.2,0.0,0.0,34490.0,-2550.0,-32110.0
32.7643172,35.0164579,482.91,-0.07,0.008,0.9915,-0.58,-0.26,-0.02,34490.0,-2580.0,-32110.0
32.7643172,35.0164579,482.91,-0.05375,-0.01375,0.99325,-0.12,-0.72,0.04,34520.0,-2610.0,-32090.0
32.7643172,35.0164579,482.91,-0.0485,-0.02125,1.00025,0.06,-0.64,-0.04,34490.0,-2590.0,-32100.0
32.7643172,35.0164579,482.91,-0.0555,0.00525,0.9935,0.22,0.02,0.0,34480.0,-2620.0,-32090.0
32.7643172,35.0164579,482.91,-0.05975,0.00625,0.99775,0.2,0.64,0.04,34520.0,-2640.0,-32080.0
32.7643172,35.0164579,482.91,-0.06225,-0.02275,1.00875,-0.38,0.58,0.08,34600.0,-2670.0,-32060.0
32.7643172,35.0164579,482.91,-0.06975,-0.01975,0.99525,-0.52,0.2,0.06,34540.0,-2650.0,-32080.0
32.7643172,35.0164579,482.91,-0.06925,0.00975,0.986,0.42,-0.12,-0.04,34520.0,-2680.0,-32080.0
32.7643172,35.0164579,482.91,-0.05525,0.00675,0.99625,0.76,-0.56,0.0,34520.0,-2640.0,-32090.0
32.7643172,35.0164579,482.91,-0.048,-0.01625,1.011,-0.24,-0.76,-0.06,34520.0,-2630.0,-32090.0
32.7643172,35.0164579,482.91,-0.0565,-0.00925,0.99525,-0.94,-0.2,-0.06,34590.0,-2690.0,-32070.0
32.7643172,35.0164579,482.91,-0.064,0.0015,0.984,0.06,0.78,0.0,34580.0,-2700.0,-32060.0
32.7643172,35.0164579,482.91,-0.064,-0.01025,0.9995,0.88,0.9,0.12,34530.0,-2680.0,-32080.0
32.7643172,35.0164579,482.91,-0.06875,-0.00825,1.006,0.18,0.22,0.1,34550.0,-2690.0,-32070.0
32.7643172,35.0164579,482.91,-0.07075,0.011,0.99625,-0.5,-0.3,-0.04,34570.0,-2680.0,-32070.0
32.7643172,35.0164579,482.91,-0.0565,0.0,0.9895,-0.34,-0.66,-0.04,34530.0,-2640.0,-32090.0
32.7643172,35.0164579,482.91,-0.04575,-0.023,1.00175,-0.02,-0.62,-0.06,34520.0,-2640.0,-32090.0
32.7643172,35.0164579,482.91,-0.05225,-0.00925,0.9945,0.0,-0.18,-0.06,34540.0,-2720.0,-32070.0
32.7643172,35.0164579,482.91,-0.06275,0.0125,0.99275,0.24,0.66,0.06,34530.0,-2670.0,-32090.0
32.7643172,35.0164579,482.91,-0.066,-0.007,1.00225,0.04,0.76,0.16,34540.0,-2590.0,-32110.0
32.7643172,35.0164579,482.91,-0.06975,-0.02575,1.0045,-0.46,0.3,0.04,34510.0,-2560.0,-32120.0
32.7643172,35.0164579,482.91,-0.0725,-0.00275,0.989,-0.26,-0.18,-0.02,34500.0,-2670.0,-32100.0
32.7643172,35.0164579,482.91,-0.06075,0.0145,0.98825,0.74,-0.52,-0.02,34540.0,-2680.0,-32090.0
32.7643172,35.0164579,482.91,-0.0455,-0.00625,1.007,0.36,-0.74,-0.04,34580.0,-2750.0,-32060.0
32.7643172,35.0164579,482.91,-0.04925,-0.017,1.00525,-0.8,-0.5,-0.08,34590.0,-2790.0,-32050.0
32.7643172,35.0164579,482.91,-0.062,-0.00075,0.9885,-0.58,0.48,0.0,34520.0,-2830.0,-32050.0
32.7643172,35.0164579,482.91,-0.0645,-0.0015,0.98825,0.54,1.08,0.1,34540.0,-2800.0,-32060.0
32.7643172,35.0164579,482.91,-0.0675,-0.01525,1.00725,0.62,0.46,0.14,34560.0,-2780.0,-32070.0
32.7643172,35.0164579,482.91,-0.073,-0.0025,1.003,-0.3,-0.1,0.02,34530.0,-2760.0,-32070.0
32.7643172,35.0164579,482.91,-0.06675,0.00775,0.988,-0.52,-0.5,-0.04,34520.0,-2730.0,-32080.0
32.7643172,35.0164579,482.91,-0.05,-0.01525,0.9975,-0.06,-0.72,-0.04,34520.0,-2780.0,-32070.0
32.7643172,35.0164579,482.91,-0.046,-0.02425,0.99975,0.04,-0.6,-0.08,34470.0,-2780.0,-32080.0
32.7643172,35.0164579,482.91,-0.05525,0.00225,0.9915,0.1,0.14,0.04,34560.0,-2810.0,-32060.0
32.7643172,35.0164579,482.91,-0.061,0.0055,0.99675,0.28,0.76,0.04,34600.0,-2830.0,-32050.0
32.7643172,35.0164579,482.91,-0.064,-0.0215,1.006,-0.04,0.64,0.08,34530.0,-2820.0,-32060.0
32.7643172,35.0164579,482.91,-0.07075,-0.01975,0.998,-0.46,0.12,0.08,34500.0,-2740.0,-32090.0
