SampleTimeFine,Acc_X,Acc_Y,Acc_Z,Gyr_X,Gyr_Y,Gyr_Z
2498284389.0,0.0,0.0,0.0,0.0,0.0,0.0
2498292722.0,-0.6317369937896729,0.2244541943073272,9.937931060791016,0.7324391603469849,-4.213043212890625,0.7517266869544983
2498301055.0,-0.646517276763916,0.3200210928916931,10.036149978637695,0.7998812794685364,-3.965275287628174,0.7980883121490479
2498309388.0,-0.7751048803329468,0.1153019219636917,10.121551513671877,0.7644824981689453,-3.9168646335601807,0.7321060299873352
2498317721.0,-0.7943211793899536,-0.1006087213754654,10.086996078491213,0.7037511467933655,-4.118013858795166,0.7587448954582214
2498326054.0,-0.7095745205879211,0.0375389494001865,9.99663543701172,0.8486509323120117,-4.424205780029297,0.8336666226387024
2498334387.0,-0.6510859131813049,0.3281027972698211,10.044740676879885,0.8975740671157837,-4.441854953765869,0.7203236222267151
2498342720.0,-0.6349043250083923,0.3528477251529693,10.14395236968994,0.7951940298080444,-4.206049919128418,0.8265202045440674
2498351053.0,-0.6161120533943176,0.0915011912584304,10.128299713134766,0.5200714468955994,-4.432684421539307,0.8136106729507446
2498359386.0,-0.6341769099235535,-0.0918673798441886,9.93598175048828,0.4636432230472564,-4.694666862487793,0.9121997356414796
2498367719.0,-0.6025079488754272,0.1625600904226303,9.95334815979004,0.5025768876075745,-4.535038948059082,0.8233951926231384
2498376052.0,-0.5975517630577087,0.2982445955276489,9.94710636138916,0.6394850015640259,-4.394545078277588,0.746321976184845
2498384385.0,-0.7369508743286133,0.1008610352873802,10.208333969116213,0.529984176158905,-4.314474582672119,0.810229480266571
2498392718.0,-0.7388314008712769,0.1170553192496299,10.119918823242188,0.4201503396034241,-4.550253868103027,0.8634303212165833
2498401051.0,-0.7989708781242371,0.1833830177783966,10.129484176635742,0.3186410963535309,-4.818460464477539,0.9566404819488524
2498409384.0,-0.5633917450904846,0.2373738586902618,10.008721351623535,0.4235570430755615,-4.819126129150391,0.90874183177948
2498417717.0,-0.5281553864479065,0.1431442946195602,10.09064483642578,0.3349573612213135,-4.771407127380371,0.8574621677398682
2498426050.0,-0.5715479254722595,0.0483512990176677,10.129964828491213,-0.0695298537611961,-4.848916053771973,0.9895548224449158
2498434383.0,-0.536634624004364,0.0361217595636844,9.904848098754885,0.2129823565483093,-4.979983806610107,0.9027735590934752
2498442716.0,-0.5105413794517517,0.3729569613933563,10.04942226409912,0.0594506412744522,-4.887131690979004,0.9603033661842346
2498451049.0,-0.6251370310783386,0.1904264539480209,10.10556697845459,-0.2023652642965316,-4.684831142425537,0.943884551525116
2498459382.0,-0.8855635523796082,-0.0927193164825439,10.140570640563965,-0.1605884432792663,-4.770613193511963,0.9506466388702391
2498467715.0,-0.7462437748908997,-0.1400853246450424,9.939749717712402,0.2975349426269531,-5.01630449295044,0.9967266321182252
2498476048.0,-0.4805207252502441,0.1559102684259414,9.884841918945312,0.8695265054702759,-4.690465927124023,0.8121505975723267
2498484381.0,-0.3359470665454864,0.3181012868881225,9.927694320678713,0.7233972549438477,-4.226925373077393,0.9047973155975342
2498492714.0,-0.5083975195884705,0.1403596401214599,10.113452911376951,0.7869972586631775,-3.8608202934265137,0.8162230849266052
2498501047.0,-0.6511037349700928,-0.0009008811321109,10.151009559631348,0.5326735377311707,-4.006847381591797,0.8509817123413086
2498509380.0,-0.6788157224655151,0.0650427713990211,9.981156349182127,0.5353119373321533,-4.1365838050842285,0.9722907543182372
2498517713.0,-0.5581428408622742,0.1799583882093429,9.931270599365234,0.6792639493942261,-4.1337409019470215,0.775471031665802
2498526046.0,-0.5078200697898865,0.1797953993082046,10.045787811279297,0.8055164217948914,-3.748962879180908,0.8014693260192871
2498534379.0,-0.6405460834503174,0.0634388625621795,10.09656810760498,0.5733234882354736,-3.484215021133423,0.8323090076446533
2498542712.0,-0.7762326002120972,0.0171029176563024,10.009514808654783,0.7274186611175537,-3.752779960632324,0.82900470495224
2498551045.0,-0.7599508762359619,0.1596043556928634,10.022290229797363,1.0293335914611816,-3.8752923011779785,0.7788519859313965
2498559378.0,-0.5825600028038025,0.1517077535390854,10.053974151611328,1.156226396560669,-3.8198630809783936,0.8057725429534912
2498567711.0,-0.5477807521820068,0.038988921791315,10.101433753967283,1.082380771636963,-3.7809298038482666,0.7250877022743225
2498576044.0,-0.518194317817688,-0.0716070905327797,9.871932983398438,1.2020374536514282,-3.6904473304748535,0.7253822684288025
2498584377.0,-0.4790016412734985,0.1148442924022674,9.787370681762695,1.4486384391784668,-3.370307683944702,0.6316981911659241
2498592710.0,-0.5205655097961426,0.1866047978401184,9.910953521728516,1.6002237796783447,-2.9656546115875244,0.5997317433357239
2498601043.0,-0.6921551823616028,0.039567295461893,10.125168800354004,1.578041911125183,-2.9537954330444336,0.5578012466430664
2498609376.0,-0.8348369598388672,-0.1236796975135803,10.116024017333984,1.659648895263672,-3.111809730529785,0.5699423551559448
2498617709.0,-0.6584957242012024,0.0738299638032913,9.961255073547363,1.875730276107788,-3.384523868560791,0.490179568529129
2498626042.0,-0.4430444240570068,0.3324156999588012,9.910140991210938,1.979186534881592,-2.9991583824157715,0.547094464302063
2498634375.0,-0.4296905398368835,0.2248364090919494,9.988195419311523,1.7974791526794434,-2.7410175800323486,0.5863097906112671
2498642708.0,-0.4844871163368225,-0.0680667459964752,9.97701930999756,1.7764240503311155,-2.5137939453125,0.7319267392158508
2498651041.0,-0.5178084373474121,0.0469897128641605,9.954586029052734,1.9624602794647217,-2.5854623317718506,0.5621556043624878
2498659374.0,-0.5601621270179749,0.312379390001297,10.017450332641602,2.0332579612731934,-2.365359306335449,0.5033453106880188
2498667707.0,-0.6858246326446533,0.4011828899383545,10.27488613128662,1.827242493629456,-2.237211227416992,0.4861581921577453
2498676040.0,-0.8569868206977844,0.176200658082962,10.365078926086426,1.627605438232422,-2.5898423194885254,0.557340145111084
2498684373.0,-0.8043343424797058,0.07420165091753,10.194313049316406,1.5175154209136963,-3.042907476425171,0.6706319451332092
2498692706.0,-0.6407835483551025,0.181141123175621,10.03244400024414,1.6991716623306274,-3.012016534805298,0.4467378854751587
2498701039.0,-0.5887491703033447,0.1970384418964386,10.024131774902344,1.57161283493042,-2.969573736190796,0.4289616346359253
2498709372.0,-0.6336506605148315,-0.013265592046082,10.08083152770996,1.5284783840179443,-2.9697020053863525,0.5694813132286072
2498717705.0,-0.5712295174598694,-0.1288227587938308,9.964669227600098,1.64041268825531,-3.1096322536468506,0.5196872353553772
2498726038.0,-0.5129280686378479,0.1250367164611816,9.905088424682615,1.745072364807129,-2.9607627391815186,0.4949951171875
2498734371.0,-0.6246801018714905,0.269647479057312,10.105427742004396,1.7212252616882324,-2.60439133644104,0.2781193554401397
2498742704.0,-0.8294369578361511,0.0658513009548187,10.237268447875977,1.614618897438049,-2.7881734371185303,0.5372073650360107
2498751037.0,-0.7733706831932068,-0.0231707785278558,10.271202087402344,1.5997881889343262,-3.319796800613404,0.401861697435379
2498759370.0,-0.594192385673523,0.1071615293622016,9.984939575195312,1.6780141592025757,-3.3216919898986816,0.5280886888504028
2498767703.0,-0.5465731024742126,0.4254707396030426,10.166528701782228,1.8002454042434692,-2.9212396144866943,0.4126965701580047
2498776036.0,-0.6790214776992798,0.3287180662155151,10.274252891540527,1.5361882448196411,-2.934379816055298,0.4017336964607239
2498784369.0,-0.6931852102279663,0.0670445263385772,10.25623607635498,1.2967718839645386,-3.3962552547454834,0.5056249499320984
2498792702.0,-0.5182319283485413,-0.0020440958905965,9.95300579071045,1.3811450004577637,-3.572327136993408,0.5286264419555664
2498801035.0,-0.4945016503334045,0.155811607837677,9.851102828979492,1.5196670293807983,-3.2087337970733643,0.3939982056617737
2498809368.0,-0.6127094030380249,0.2392881661653518,10.076778411865234,1.5891584157943726,-2.8605849742889404,0.3737629354000091
2498817701.0,-0.7557820081710815,0.1127537861466407,10.251489639282228,1.284400224685669,-3.103997230529785,0.5167415738105774
2498826034.0,-0.7375118136405945,0.0261602345854043,10.090336799621582,1.3282262086868286,-3.3641350269317627,0.5181503295898438
2498834367.0,-0.633577287197113,0.2143343538045883,9.996581077575684,1.4937455654144287,-3.217058658599853,0.5528832674026489
2498842700.0,-0.621218204498291,0.2554233074188232,10.041474342346191,1.415135383605957,-2.9766433238983154,0.3946897685527801
2498851033.0,-0.6035981774330139,0.0914604887366294,10.072818756103516,1.1791515350341797,-3.1073527336120605,0.4910505414009094
2498859366.0,-0.4511855542659759,0.0078852726146578,9.899129867553713,1.372846007347107,-3.1417267322540283,0.5647169947624207
2498867699.0,-0.4134722352027893,0.1909642070531845,9.844021797180176,1.6572664976119995,-2.773214817047119,0.5386929512023926
2498876032.0,-0.6351505517959595,0.2954379916191101,10.01169490814209,1.729729413986206,-2.241028070449829,0.4702005386352539
2498884365.0,-0.8871313333511353,0.1695462316274643,10.301836013793944,1.4870086908340454,-2.5237832069396973,0.5890505313873291
2498892698.0,-0.9797691106796264,-0.0485513843595981,10.233807563781738,1.4085779190063477,-3.32860803604126,0.5059067010879517
2498901031.0,-0.7277845144271851,0.0436766035854816,10.041241645812988,1.422742486000061,-3.76481866836548,0.3991465866565704
2498909364.0,-0.4825241267681122,0.255368173122406,9.94264793395996,1.4806052446365356,-3.5472002029418945,0.4076761603355407
2498917697.0,-0.5333797931671143,0.2635137736797333,10.080963134765623,1.35453200340271,-3.267902612686157,0.3837268352508545
2498926030.0,-0.6227250099182129,-0.0070661026984453,10.06102180480957,1.1167293787002563,-3.445204496383667,0.3964827358722687
2498934363.0,-0.4863233566284179,-0.0958373695611953,9.839278221130373,1.303815841674805,-3.5919222831726074,0.4517838954925537
2498942696.0,-0.3951385915279388,0.0761566460132598,9.737370491027832,1.4635462760925293,-3.259347677230835,0.3206390142440796
2498951029.0,-0.5511245131492615,0.1985678076744079,10.000709533691406,1.568769454956055,-2.703979730606079,0.3829328417778015
2498959362.0,-0.7771977782249451,0.1176473945379257,10.242670059204102,1.4359853267669678,-2.805001974105835,0.3840086162090301
2498967695.0,-0.7575216889381409,0.0207716990262269,10.161983489990234,1.468950867652893,-3.242339849472046,0.4182804822921753
2498976028.0,-0.5822452902793884,0.1236241236329078,9.978358268737791,1.5488157272338867,-3.302558422088623,0.479729026556015
2498984361.0,-0.5207735300064087,0.1598172783851623,9.991722106933594,1.6627225875854492,-3.114499092102051,0.4846213459968567
2498992694.0,-0.5992946624755859,0.0319764949381351,10.134475708007812,1.3440814018249512,-3.1052780151367188,0.4811121821403503
2499001027.0,-0.5867381691932678,-0.116362027823925,10.090574264526367,1.3057880401611328,-3.34290075302124,0.600858747959137
2499009360.0,-0.4742456078529358,0.0302774515002965,9.917396545410156,1.5051435232162476,-3.4377503395080566,0.4900258481502533
2499017693.0,-0.4630166888236999,0.0935137867927551,9.82006549835205,1.4792732000350952,-2.9187803268432617,0.4637969434261322
2499026026.0,-0.6067916750907898,-0.019159510731697,10.008310317993164,1.5459473133087158,-2.763455867767334,0.4483259916305542
2499034359.0,-0.7240269184112549,-0.1812789738178253,10.123017311096191,1.5252764225006104,-3.0678555965423584,0.4299605786800384
2499042692.0,-0.6614765524864197,-0.0962714925408363,10.020346641540527,1.628681182861328,-3.112526655197144,0.4494530260562897
2499051025.0,-0.6037080883979797,0.3107231855392456,10.153220176696776,1.840306162834168,-3.0208280086517334,0.4960453808307647
2499059358.0,-0.7335193753242493,0.402161955833435,10.414260864257812,1.4811687469482422,-3.10402250289917,0.4473782181739807
2499067691.0,-0.7889663577079773,0.1348643451929092,10.408653259277344,0.9905535578727722,-3.885819673538208,0.479037344455719
2499076024.0,-0.5711972713470459,-0.1263627409934997,10.060097694396973,0.9010064601898192,-4.423540115356445,0.5250661969184875
2499084357.0,-0.3270259499549866,0.1328756958246231,9.927043914794922,1.2095298767089844,-4.216500282287598,0.3219197392463684
2499092690.0,-0.5304308533668518,0.2815542817115783,10.072980880737305,0.5938148498535156,-3.813178062438965,0.0930052921175956
2499101023.0,-0.7992398142814636,0.1952343732118606,10.353193283081056,0.2247136831283569,-4.129385948181152,0.4440996050834656
2499109356.0,-0.8781547546386719,0.0301739983260631,10.30327033996582,0.0760998949408531,-4.593362808227539,0.6522921919822693
2499117689.0,-0.522471010684967,-0.0511681959033012,9.977535247802734,0.0586309842765331,-5.0122833251953125,0.4574446678161621
2499126022.0,-0.3637119829654693,0.1307782381772995,9.844732284545898,0.0251531787216663,-4.506171703338623,0.3971230983734131
2499134355.0,-0.3089349865913391,0.2066612690687179,10.061651229858398,0.0242310669273138,-3.891045331954956,0.4118512570858001
2499142688.0,-0.4413878321647644,0.1016274914145469,10.139324188232422,-0.124933436512947,-3.119595766067505,0.6539057493209839
2499151021.0,-0.8093383312225342,-0.0359317027032375,10.129204750061035,0.3766061067581177,-3.230275154113769,0.7822843790054321
2499159354.0,-0.5810656547546387,0.1490857899188995,9.92461109161377,0.8790292739868164,-3.2872154712677,0.6524457931518555
2499167687.0,-0.5126035809516907,0.1529247611761093,9.993332862854004,1.2084028720855713,-2.9375557899475098,0.7104876637458801
2499176020.0,-0.8026736378669739,0.0580517426133155,10.29007053375244,0.7952963709831238,-3.0974395275115967,0.5401785969734192
2499184353.0,-0.9410356283187866,-0.2337348163127899,9.919208526611328,0.9893242120742798,-3.4077048301696777,0.6604374051094055
2499192686.0,-0.7252697944641113,0.2976473569869995,10.215681076049805,1.453274846076965,-3.538952112197876,0.5448402762413025
2499201019.0,-0.5478866100311279,0.3802388310432434,10.262680053710938,1.222003936767578,-3.259962558746338,0.3778868317604065
2499209352.0,-0.5193895697593689,0.1681331992149353,10.18078327178955,1.1492853164672852,-3.319131374359131,0.5186370611190796
2499217685.0,-0.7048985958099365,0.0991992577910423,10.20486831665039,0.8683225512504578,-3.602526426315308,0.5773704648017883
2499226018.0,-0.4345592558383941,0.0524537190794944,9.924816131591797,1.0527962446212769,-3.558777570724488,0.4578031897544861
2499234351.0,-0.401674211025238,0.2032647728919983,10.004796981811523,1.154689908027649,-3.2118847370147705,0.4707896709442138
2499242684.0,-0.6168723106384277,0.2214885652065277,10.329358100891112,1.1511293649673462,-2.722805976867676,0.4281675815582275
2499251017.0,-0.7721812725067139,0.1417858451604843,10.312137603759766,0.987044632434845,-2.959814548492432,0.4864399433135986
2499259350.0,-0.8656517267227173,0.1578080207109451,10.224343299865724,1.0273357629776,-3.2043535709381104,0.5086987018585205
2499267683.0,-0.7258825898170471,0.1664069443941116,10.132572174072266,1.0161166191101074,-3.393693923950196,0.4671267867088318
2499276016.0,-0.5941214561462402,0.0793298855423927,10.16416358947754,0.9047459959983826,-3.52432632446289,0.4272454082965851
2499284349.0,-0.5349861979484558,-0.0655588805675506,10.035467147827148,0.8750078678131104,-3.439159154891968,0.581417441368103
2499292682.0,-0.4917667508125305,0.0075731594115495,9.86996364593506,1.172209858894348,-3.307605028152466,0.5000668168067932
2499301015.0,-0.553004264831543,0.1785792857408523,9.889776229858398,1.2292016744613647,-2.9468281269073486,0.3444858491420746
2499309348.0,-0.7759577631950378,0.1076604798436164,10.12866497039795,1.2102981805801392,-2.9148101806640625,0.3198961615562439
2499317681.0,-0.8598051071166992,-0.1582477837800979,10.084935188293455,1.077001690864563,-3.146157741546631,0.5758079886436462
2499326014.0,-0.7696653604507446,-0.215171217918396,9.958069801330566,1.2566343545913696,-3.461315393447876,0.3937419950962066
2499334347.0,-0.633382260799408,0.1458531320095062,9.944361686706545,1.543692946434021,-3.3203601837158203,0.2409274876117706
2499342680.0,-0.62732994556427,0.1973207890987396,10.000356674194336,1.4754821062088013,-3.354555130004883,0.4677414894104004
2499351013.0,-0.6740866899490356,0.0241284146904945,10.18419361114502,1.238345742225647,-3.4198460578918457,0.3739421963691711
2499359346.0,-0.6136384606361389,-0.1681754738092422,9.799081802368164,1.3296092748641968,-3.723400354385376,0.5155888795852661
2499367679.0,-0.4843617379665375,-0.0692047625780105,9.772765159606934,1.5177971124649048,-3.5244288444519043,0.5322638154029846
2499376012.0,-0.5463483929634094,0.0435588397085666,9.869184494018556,1.398690938949585,-3.114371061325073,0.4591608047485351
2499384345.0,-0.6842694282531738,0.0526916049420833,10.138607025146484,1.2639344930648804,-3.1912648677825928,0.4311900734901428
2499392678.0,-0.7205989360809326,-0.1050190702080726,10.016562461853027,1.285936951637268,-3.397613048553467,0.4809584021568298
2499401011.0,-0.6347464323043823,-0.0082095535472035,9.98419189453125,1.444796442985535,-3.507856607437134,0.4447655081748962
2499409344.0,-0.6111966967582703,0.0633461251854896,9.92215347290039,1.4421837329864502,-3.4831645488739014,0.3876970410346985
2499417677.0,-0.5783283710479736,-0.0409543998539447,10.085966110229492,1.319875717163086,-3.501913547515869,0.6069803833961487
2499426010.0,-0.534627377986908,-0.1897452026605606,10.012666702270508,1.2587603330612185,-3.7390761375427246,0.541612982749939
2499434343.0,-0.4043819606304168,-0.0934641808271408,9.797284126281738,1.463853359222412,-3.615512847900391,0.5581852793693542
2499442676.0,-0.3948630392551422,0.0918012931942939,9.831056594848633,1.616744875907898,-3.328889846801758,0.4972491860389709
2499451009.0,-0.5642756223678589,-0.0056990701705217,9.964679718017578,1.4746116399765017,-3.223590135574341,0.4276553094387054
2499459342.0,-0.678411602973938,-0.2352010011672973,10.077905654907228,1.3602697849273682,-3.3255603313446045,0.608696699142456
2499467675.0,-0.6055361032485962,-0.333707720041275,9.923810005187988,1.6170519590377808,-3.568664312362671,0.5025256276130676
2499476008.0,-0.4739692211151123,-0.04296251013875,9.891278266906738,1.7669720649719238,-3.39843225479126,0.4192025065422058
2499484341.0,-0.4820849299430847,0.1023988425731659,10.031850814819336,1.7814956903457642,-3.2173912525177,0.4774237275123596
2499492674.0,-0.5246920585632324,-0.0573563165962696,10.102499961853027,1.60644793510437,-3.4597530364990234,0.5315209627151489
2499501007.0,-0.4060218632221222,-0.2084928900003433,9.978959083557127,1.6147725582122805,-3.764536857604981,0.4926129877567291
2499509340.0,-0.2658799290657043,-0.1980050653219223,9.746485710144045,1.7977862358093262,-3.5248899459838867,0.4756307005882263
2499517673.0,-0.3426636457443237,0.0552904568612575,9.891825675964355,1.939791679382324,-2.950721740722656,0.4555747509002685
2499526006.0,-0.5568286180496216,-0.0035575688816607,10.06313705444336,1.880699634552002,-2.937734842300415,0.4512716233730316
2499534339.0,-0.6680500507354736,-0.1041689962148666,10.174543380737305,1.890432834625244,-3.107762336730957,0.4360567331314087
2499542672.0,-0.5259745717048645,-0.0494147539138793,10.045343399047852,1.9726805686950684,-3.3974337577819824,0.5537028908729553
2499551005.0,-0.4268980324268341,0.1521190851926803,9.974726676940918,1.8922516107559204,-3.2511250972747803,0.3758376538753509
2499559338.0,-0.4744157791137695,0.0942310094833374,10.063941955566406,1.94204580783844,-3.02956223487854,0.4777311384677887
2499567671.0,-0.507696270942688,-0.1006669178605079,10.146000862121582,1.8310333490371704,-3.1438777446746826,0.5824164152145386
2499576004.0,-0.4174421429634094,-0.0863950103521347,9.973590850830078,1.8298040628433228,-3.304018497467041,0.5013731122016907
2499584337.0,-0.3089075088500976,0.1956725269556045,9.885546684265137,2.115018367767334,-3.054945468902588,0.4792679250240326
2499592670.0,-0.5061579346656799,0.2877510190010071,10.030200958251951,1.891893029212952,-2.5601046085357666,0.3618523180484772
2499601003.0,-0.741797924041748,0.0655547454953193,10.18944263458252,1.7807527780532837,-2.737021923065185,0.4563688635826111
2499609336.0,-0.7693405151367188,-0.1324362605810165,10.116677284240724,1.8424060344696045,-3.155583381652832,0.575731098651886
2499617669.0,-0.598152756690979,0.0731186643242836,10.002727508544922,2.0416083335876465,-3.18114709854126,0.4639250338077545
2499626002.0,-0.5531145930290222,0.349373310804367,10.044140815734863,2.0013427734375,-2.972724199295044,0.421379804611206
2499634335.0,-0.6699700355529785,0.2709474861621856,10.147675514221191,1.7724283933639526,-2.940655469894409,0.4594937860965729
2499642668.0,-0.6264911890029907,0.0410777516663074,10.142678260803224,1.6942535638809204,-3.205685615539551,0.615125834941864
2499651001.0,-0.5009384751319885,0.00099605449941,9.966754913330078,1.8068537712097168,-3.312138319015503,0.5434315800666809
2499659334.0,-0.4803133308887481,0.1795910894870758,9.890884399414062,1.910796403884888,-3.001284122467041,0.4007603526115417
2499667667.0,-0.6630249619483948,0.2053558379411697,10.1458158493042,1.6941256523132324,-2.711843013763428,0.5007838606834412
2499676000.0,-0.8607235550880432,0.0765400379896164,10.171534538269045,1.6622871160507202,-2.9289751052856445,0.4557284712791443
2499684333.0,-0.7914683818817139,0.0787967219948768,10.125245094299316,1.7015023231506348,-3.327404499053955,0.4890269339084625
2499692666.0,-0.6415735483169556,0.2022506892681121,10.080496788024902,1.7796001434326172,-3.213958501815796,0.4291920959949493
2499700999.0,-0.6527603268623352,0.2339265197515487,10.116705894470217,1.7330846786499023,-3.067957639694214,0.4316254556179046
2499709332.0,-0.7151039242744446,0.0627404525876045,10.169360160827637,1.6742230653762815,-3.281452417373657,0.4292689263820648
2499717665.0,-0.5551259517669678,0.0290652066469192,10.066890716552734,1.6572153568267822,-3.581958770751953,0.4528596401214599
2499725998.0,-0.4288746416568756,0.1192697882652282,9.911724090576172,1.654679536819458,-3.3198225498199463,0.3941774666309356
2499734331.0,-0.5490299463272095,0.2497947663068771,9.954900741577148,1.7500927448272705,-2.857818841934204,0.40608811378479
2499742664.0,-0.7563861012458801,0.1026777699589729,10.160775184631348,1.6746844053268433,-2.930358409881592,0.3981989622116089
2499750997.0,-0.8408594131469727,-0.1455417871475219,10.16106128692627,1.5615718364715576,-3.282809972763061,0.5086987018585205
2499759330.0,-0.6588850617408752,-0.0302385427057743,9.99147129058838,1.7443549633026123,-3.48270320892334,0.5665357112884521
2499767663.0,-0.530913770198822,0.2450385093688964,10.0357666015625,1.8040871620178225,-3.206683874130249,0.3353927731513977
2499775996.0,-0.6017434597015381,0.3180798292160034,10.198890686035156,1.6568570137023926,-3.041601181030273,0.2513012886047363
2499784329.0,-0.6160579919815063,0.0397294238209724,10.169321060180664,1.381093978881836,-3.3269176483154297,0.5004765391349792
2499792662.0,-0.470846027135849,-0.0499578304588794,10.006879806518556,1.3478209972381592,-3.547661066055298,0.5521404147148132
2499800995.0,-0.3232396841049194,0.1144681647419929,9.89205551147461,1.6449460983276367,-3.331528186798096,0.4734022915363312
2499809328.0,-0.4783526360988617,0.1343966126441955,10.053523063659668,1.600095510482788,-2.811405658721924,0.5312648415565491
2499817661.0,-0.6719119548797607,-0.0233645793050527,10.195247650146484,1.544692039489746,-2.8296685218811035,0.4585460424423218
2499825994.0,-0.700343668460846,-0.1304816752672195,10.093482971191406,1.461215257644653,-3.2568118572235107,0.5247076749801636
2499834327.0,-0.5138405561447144,0.0234856829047203,10.008392333984377,1.6654887199401855,-3.2452852725982666,0.4421272873878479
2499842660.0,-0.4841543734073639,0.0968768969178199,10.017485618591309,1.6722509860992432,-3.0580198764801025,0.5261420607566833
2499850993.0,-0.5821865797042847,-0.0654350519180297,10.110625267028809,1.6191271543502808,-3.103535890579224,0.6016016006469727
2499859326.0,-0.5197412371635437,-0.1814300119876861,10.03892993927002,1.57948899269104,-3.4567947387695312,0.5351197123527527
2499867659.0,-0.352069616317749,-0.1239184364676475,9.832908630371094,1.7253234386444092,-3.3952815532684326,0.5050614476203918
2499875992.0,-0.3693468272686004,0.0971518605947494,9.908596992492676,1.800270915031433,-2.877157688140869,0.4241717755794525
2499884325.0,-0.6393455862998962,0.022989846765995,10.075756072998049,1.7491447925567627,-2.6484475135803223,0.413772314786911
2499892658.0,-0.7998111248016357,-0.1550239473581314,10.17334270477295,1.7787805795669556,-3.006253480911255,0.5393589735031128
2499900991.0,-0.6860634088516235,-0.131975844502449,10.021690368652344,1.7845947742462158,-3.3066823482513428,0.4797545671463012
2499909324.0,-0.5448312163352966,0.2108785659074783,9.990013122558594,1.8523187637329104,-3.119800329208374,0.4429469108581543
2499917657.0,-0.5748165249824524,0.3327212333679199,10.136276245117188,1.7964290380477903,-2.903540134429932,0.3765292763710022
2499925990.0,-0.6716203093528748,0.086039200425148,10.152024269104004,1.6205103397369385,-3.00525450706482,0.4824697971343994
2499934323.0,-0.592358410358429,-0.0830671712756156,9.994355201721191,1.620894432067871,-3.4582161903381348,0.5455576181411743
2499942656.0,-0.4311090409755707,0.0480456203222274,9.84862995147705,1.6569079160690308,-3.2530460357666016,0.4224299490451813
2499950989.0,-0.5478099584579468,0.2087926268577575,9.960902214050291,1.7272446155548096,-2.769833564758301,0.3149782419204712
2499959322.0,-0.8022012114524841,0.1598288267850875,10.232321739196776,1.675068497657776,-2.785637617111206,0.5071362257003784
2499967655.0,-0.8408600687980652,-0.0181741472333669,10.250134468078612,1.6024521589279177,-3.1171886920928955,0.4590071141719818
2499975988.0,-0.6630696058273315,0.0235480237752199,10.05349826812744,1.6270930767059326,-3.364621639251709,0.4335721433162689
2499984321.0,-0.5812897086143494,0.1278539001941681,10.002918243408203,1.6414884328842163,-3.1754095554351807,0.383009672164917
2499992654.0,-0.643237292766571,0.0420640222728252,10.078182220458984,1.6513241529464722,-3.076052188873291,0.4176401495933532
2500000987.0,-0.6354127526283264,-0.1111180409789085,10.126466751098633,1.6003518104553225,-3.373561143875122,0.4893599450588226
2500009320.0,-0.4578498899936676,-0.0681923404335975,9.96707534790039,1.6350589990615845,-3.507088184356689,0.5287802219390869
2500017653.0,-0.4118406772613525,0.1307660639286041,9.86955738067627,1.8455568552017207,-3.1144986152648926,0.4110316038131714
2500025986.0,-0.6298639178276062,0.1299952268600464,10.088257789611816,1.725938320159912,-2.758717060089112,0.4478392899036407
2500034319.0,-0.8400570750236511,-0.0921166315674781,10.189534187316896,1.759032130241394,-2.9763615131378174,0.4179987013339996
2500042652.0,-0.7099596858024597,-0.1758383214473724,10.08703899383545,1.7792928218841553,-3.48757004737854,0.4906919002532959
2500050985.0,-0.5022823810577393,0.0849985927343368,9.993253707885742,1.892559051513672,-3.4455370903015137,0.4411283433437347
2500059318.0,-0.4553313255310058,0.3548384308815002,10.07387351989746,1.8326473236083984,-2.959225416183472,0.4006578922271728
2500067651.0,-0.5583674907684326,0.1899015307426452,10.194068908691406,1.583984375,-3.124616861343384,0.5303683280944824
2500075984.0,-0.5588237643241882,-0.0538893043994903,10.10705852508545,1.4435160160064695,-3.2629079818725586,0.5421766042709351
2500084317.0,-0.4335853457450866,-0.0345603600144386,9.921786308288574,1.6966482400894165,-3.4826645851135254,0.4716476798057556
2500092650.0,-0.4221084415912628,0.2058044970035553,9.94101333618164,1.9067237377166748,-3.0432915687561035,0.4582898914813995
2500100983.0,-0.6108816266059875,0.2455838322639465,10.155138969421388,1.6927937269210815,-2.8487002849578857,0.4767321646213531
2500109316.0,-0.7237020134925842,0.0515803135931491,10.229354858398438,1.524533748626709,-3.0732345581054688,0.4928179085254669
2500117649.0,-0.5956815481185913,-0.0027339691296219,10.05972671508789,1.5338315963745115,-3.384498357772827,0.5724268555641174
2500125982.0,-0.4799801409244537,0.1172070875763893,9.925190925598145,1.6462782621383667,-3.156890392303467,0.484800636768341
2500134315.0,-0.5489944219589233,0.1330301165580749,10.063516616821287,1.7187150716781616,-2.924185037612915,0.3742496073246002
2500142648.0,-0.6243018507957458,-0.0793306604027748,10.141986846923828,1.5307836532592771,-3.200716733932495,0.5265006422996521
2500150981.0,-0.4723446667194366,-0.0883083865046501,10.04327392578125,1.4304780960083008,-3.4459469318389893,0.5060860514640808
2500159314.0,-0.3331963717937469,0.0460587590932846,9.866701126098633,1.7124652862548828,-3.319847822189331,0.4224811792373657
2500167647.0,-0.4509315490722656,0.1545421779155731,9.973365783691406,1.664348840713501,-2.7602667808532715,0.3479309380054474
2500175980.0,-0.7358198165893555,-0.0620719455182552,10.133855819702148,1.6550893783569336,-2.8173482418060303,0.4640275239944458
2500184313.0,-0.7972197532653809,-0.2133863568305969,10.150670051574709,1.6149007081985474,-3.2908785343170166,0.486619234085083
2500192646.0,-0.5916294455528259,-0.0605546720325946,10.00326156616211,1.8135133981704712,-3.3988935947418213,0.4758100211620331
2500200979.0,-0.4914559125900268,0.2496471554040908,10.048078536987305,1.9528290033340447,-3.07425856590271,0.237367108464241
2500209312.0,-0.6066116094589233,0.2196442186832428,10.129634857177734,1.6943049430847168,-2.9234936237335205,0.4022715985774994
2500217645.0,-0.6572004556655884,-0.0818493291735649,10.10412311553955,1.6143113374710083,-3.28227162361145,0.4559845626354217
2500225978.0,-0.4958465695381164,-0.1748170554637909,9.930747032165527,1.6051158905029297,-3.4191033840179443,0.4866704642772674
2500234311.0,-0.4252528250217438,0.0367286838591098,9.881179809570312,1.7929710149765017,-3.1157798767089844,0.5138471722602844
2500242644.0,-0.6186211109161377,0.2086409032344818,10.099631309509276,1.7541139125823977,-2.755361795425415,0.4191513061523437
2500250977.0,-0.8072719573974609,0.0796286240220069,10.257572174072266,1.7917159795761108,-2.829233407974243,0.531059980392456
2500259310.0,-0.784723162651062,-0.0519813857972621,10.149785995483398,1.5981744527816772,-3.3924384117126465,0.4300117194652557
2500267643.0,-0.5863288640975952,0.0228550601750612,9.971039772033691,1.6240705251693726,-3.34863805770874,0.4371069073677063
2500275976.0,-0.5527225732803345,0.1180497705936431,9.99889850616455,1.7867722511291504,-3.039116144180298,0.3458434045314789
2500284309.0,-0.6855083107948303,-0.0109958611428737,10.093009948730469,1.712311625480652,-2.980664014816284,0.4479929208755493
2500292642.0,-0.6133460998535156,-0.1275974959135055,10.10873031616211,1.6646945476531982,-3.288393497467041,0.6041373610496521
2500300975.0,-0.4383687674999237,0.0370913371443748,9.967089653015137,1.788437008857727,-3.346717357635498,0.5210959911346436
2500309308.0,-0.41671884059906,0.2170154154300689,9.938262939453123,1.7089049816131592,-2.854719400405884,0.4302679002285003
2500317641.0,-0.6799052357673645,0.0883024558424949,10.092143058776855,1.7149755954742432,-2.787430763244629,0.4335209727287292
2500325974.0,-0.8260823488235474,-0.1608306765556335,10.151822090148926,1.6602380275726318,-3.110068082809448,0.4861581921577453
2500334307.0,-0.6473058462142944,-0.1545251905918121,10.031171798706056,1.7419726848602295,-3.4516072273254395,0.4223274290561676
2500342640.0,-0.4773554801940918,0.1908822804689407,9.969402313232422,1.9654057025909424,-3.303122043609619,0.4688941538333893
2500350973.0,-0.5327968001365662,0.3837950229644775,10.126786231994627,1.86551034450531,-2.9967758655548096,0.4251450896263122
2500359306.0,-0.6502587795257568,0.1565772891044616,10.207921981811523,1.6487371921539309,-3.0680606365203857,0.5726062655448914
2500367639.0,-0.5574579238891602,-0.0919094458222389,10.051398277282717,1.5791689157485962,-3.48270320892334,0.5064446330070496
2500375972.0,-0.3741780519485473,-0.0367476642131805,9.838983535766602,1.6479427814483645,-3.4516072273254395,0.4961476624011993
2500384305.0,-0.4098853468894958,0.2399105727672577,9.970881462097168,1.7671515941619873,-2.819832563400269,0.3773488998413086
2500392638.0,-0.6544208526611328,0.2140005975961685,10.164472579956056,1.7328541278839111,-2.687740087509156,0.4989396631717682
2500400971.0,-0.7559475302696228,0.0915074944496154,10.238228797912598,1.5938714742660522,-3.192904233932495,0.5355424284934998
2500409304.0,-0.5962640047073364,0.0690690129995346,10.053325653076172,1.5576528310775757,-3.3514559268951416,0.5628983378410339
2500417637.0,-0.4761854410171509,0.1991311758756637,9.936741828918455,1.5807057619094849,-3.1772284507751465,0.4727619588375091
2500425970.0,-0.5553189516067505,0.1181611791253089,10.061413764953612,1.6373387575149536,-2.988041639328003,0.4154629409313202
2500434303.0,-0.5592426061630249,-0.0813499316573143,10.111411094665527,1.5629807710647583,-3.180532693862915,0.4995544254779815
2500442636.0,-0.4378563165664673,-0.0469133034348487,10.031937599182127,1.5881847143173218,-3.508573293685913,0.4680488705635071
2500450969.0,-0.339085042476654,0.1874214112758636,9.8971586227417,1.6741209030151367,-3.014936685562134,0.4568555653095245
2500459302.0,-0.5695368647575378,0.2448881119489669,10.07454776763916,1.7256567478179932,-2.6707067489624023,0.4055502116680145
2500467635.0,-0.8051342964172363,-0.0214938856661319,10.198716163635254,1.5868531465530396,-2.839453220367432,0.4116463959217071
2500475968.0,-0.7553186416625977,-0.2346651256084442,10.121005058288574,1.5949727296829224,-3.3812196254730225,0.4686636328697204
2500484301.0,-0.524771511554718,0.005304598249495,9.92641544342041,1.6730961799621582,-3.4134681224823,0.4470196068286896
2500492634.0,-0.457631379365921,0.2893202900886535,10.047160148620604,1.8693525791168213,-3.013450860977173,0.2650561034679413
2500500967.0,-0.6342759132385254,0.20139180123806,10.166584968566896,1.6829833984375,-2.933739423751831,0.4069077670574188
2500509300.0,-0.6520589590072632,-0.0963675454258918,10.120777130126951,1.4905179738998413,-3.29679536819458,0.500194787979126
2500517633.0,-0.49359130859375,-0.1087299287319183,9.954927444458008,1.6239681243896484,-3.378017902374268,0.5302658677101135
2500525966.0,-0.449344664812088,0.0748777315020561,9.89428997039795,1.6739416122436523,-3.00592041015625,0.4880280792713165
2500534299.0,-0.6325055956840515,0.1715790927410125,10.121526718139648,1.764667272567749,-2.753620147705078,0.3492244780063629
2500542632.0,-0.8162773847579956,0.0310779381543397,10.245046615600586,1.613722562789917,-3.011324882507324,0.4985555112361908
2500550965.0,-0.7026689052581787,-0.0970001518726348,10.109331130981444,1.5438722372055054,-3.562926769256592,0.6786746978759766
2500559298.0,-0.5198964476585388,0.0610557273030281,9.94234848022461,1.6299872398376465,-3.304811954498291,0.4097764492034912
2500567631.0,-0.5384886860847473,0.1131983175873756,10.011689186096191,1.6856729984283447,-2.9916017055511475,0.4401806592941284
2500575964.0,-0.6591639518737793,-0.0394822098314762,10.16822624206543,1.6194602251052856,-3.0938029289245605,0.5648451447486877
2500584297.0,-0.578494131565094,-0.1502108871936798,10.092605590820312,1.6132869720458984,-3.4161319732666016,0.5418179035186768
2500592630.0,-0.3781923949718475,-0.0165366064757108,9.886504173278809,1.7619006633758545,-3.424610376358032,0.4500676989555359
2500600963.0,-0.4665407240390777,0.1756221801042556,9.930057525634766,1.7549848556518557,-2.8723673820495605,0.3819082081317901
2500609296.0,-0.7337135672569275,0.0835365355014801,10.174863815307615,1.6411551237106323,-2.6851017475128174,0.3532971143722534
2500617629.0,-0.8310580849647522,-0.2748588025569916,10.11083698272705,1.7334946393966677,-3.147157430648804,0.4363129138946533
2500625962.0,-0.6212377548217773,-0.1087302267551422,10.0765380859375,1.793918490409851,-3.561723232269287,0.4200734496116638
2500634295.0,-0.4418926537036896,0.2001435607671737,9.901604652404783,1.973973512649536,-3.2638421058654785,0.4600187838077545
2500642628.0,-0.5376020669937134,0.2588942945003509,10.181244850158691,1.8366942405700684,-2.895266532897949,0.4390791952610016
2500650961.0,-0.6021278500556946,0.0045527629554271,10.119366645812988,1.690821409225464,-3.128817558288574,0.5245795845985413
2500659294.0,-0.510722279548645,-0.1201225817203521,10.024407386779783,1.629884958267212,-3.415978193283081,0.5468639135360718
2500667627.0,-0.3568364977836609,-0.0184658262878656,9.85521411895752,1.81077241897583,-3.2054288387298584,0.5274482369422913
2500675960.0,-0.5097959041595459,0.2324102222919464,10.044538497924805,1.88171136379242,-2.680145502090454,0.2828195691108703
2500684293.0,-0.745322048664093,0.143913596868515,10.234624862670898,1.7688422203063965,-2.8293612003326416,0.3889521658420563
2500692626.0,-0.7798620462417603,-0.0322363078594207,10.20847511291504,1.6247622966766355,-3.2303524017333984,0.4366971254348755
2500700959.0,-0.5771287083625793,0.0660694390535354,9.96705436706543,1.7115941047668457,-3.3767881393432617,0.5819553136825562
2500709292.0,-0.4749241173267364,0.1828697174787521,9.972501754760742,1.7788829803466797,-3.221181869506836,0.3889521360397339
2500717625.0,-0.5937866568565369,0.1171702891588211,10.065549850463867,1.6041940450668335,-2.9286422729492188,0.4104681611061096
2500725958.0,-0.6134719848632812,-0.0598951503634452,10.12049388885498,1.6473795175552368,-3.358628034591675,0.5638461709022522
2500734291.0,-0.4365442395210266,-0.0006937679136171,9.9826078414917,1.7593392133712769,-3.5185887813568115,0.3994539976119995
2500742624.0,-0.373356282711029,0.1855020225048065,9.850112915039062,1.7334946393966677,-2.92864203453064,0.4088544547557831
2500750957.0,-0.6292610168457031,0.2277186661958694,10.137160301208496,1.750937819480896,-2.60608172416687,0.4758100807666778
2500759290.0,-0.845011293888092,-0.0744669437408447,10.164419174194336,1.612006425857544,-2.931946516036988,0.5161269307136536
2500767623.0,-0.7192868590354919,-0.1229507029056549,10.0748872756958,1.6130051612854004,-3.490464448928833,0.4958147406578064
2500775956.0,-0.4922375679016113,0.0998114794492721,9.97082233428955,1.770455837249756,-3.3775312900543213,0.3011209368705749
2500784289.0,-0.499410480260849,0.3709118962287903,10.042410850524902,1.7943029403686523,-3.0249006748199463,0.4654363095760345
2500792622.0,-0.6522188186645508,0.1829753965139389,10.199307441711426,1.6967639923095703,-2.9948806762695312,0.3615961968898773
2500800955.0,-0.6538367867469788,-0.1057330667972564,10.075833320617676,1.601709246635437,-3.358704805374145,0.4500932991504669
2500809288.0,-0.4263724088668823,-0.035549595952034,9.907781600952148,1.6628504991531372,-3.3921315670013428,0.4392841160297394
2500817621.0,-0.4052863121032715,0.1913107186555862,9.94278049468994,1.826884150505066,-2.9895272254943848,0.3666678071022033
2500825954.0,-0.704332172870636,0.2157446593046188,10.165390014648438,1.73277747631073,-2.6792871952056885,0.4278857707977295
2500834287.0,-0.8247620463371277,0.0370451025664806,10.263999938964844,1.53132164478302,-3.0303821563720703,0.4707896709442138
2500842620.0,-0.6652315258979797,-0.0352769196033477,10.064848899841309,1.5666688680648804,-3.433318614959717,0.4658716320991516
2500850953.0,-0.5036627054214478,0.1307164281606674,9.908063888549805,1.6040915250778198,-3.2160849571228027,0.460467129945755
2500859286.0,-0.5514886379241943,0.1425858736038208,10.077107429504396,1.6937668323516846,-2.9924471378326416,0.4277320802211761
2500867619.0,-0.6666518449783325,-0.0523105002939701,10.14857292175293,1.620945692062378,-3.133991241455078,0.4409747123718261
2500875952.0,-0.5162955522537231,-0.104347750544548,10.019401550292969,1.556525707244873,-3.481653213500977,0.5701215863227844
2500884285.0,-0.3396621942520141,0.0624173283576965,9.867212295532228,1.7551641464233398,-3.2695415019989014,0.4573933780193329
2500892618.0,-0.4892764985561371,0.2026639580726623,9.969220161437988,1.6255050897598269,-2.788993120193481,0.5275508165359497
2500900951.0,-0.7700273394584656,-0.0307670943439006,10.176218032836914,1.6372106075286863,-2.8207290172576904,0.4741707444190979
2500909284.0,-0.7829592227935791,-0.2455682158470153,10.143359184265137,1.683111310005188,-3.297051429748535,0.4953279793262481
2500917617.0,-0.544765055179596,-0.0890133008360862,9.992770195007324,1.7443805932998655,-3.566615581512451,0.3975585699081421
2500925950.0,-0.4214756786823272,0.2430691123008728,9.979501724243164,1.790204644203186,-3.1445443630218506,0.3546547293663025
2500934283.0,-0.5849030613899231,0.2006927728652954,10.149262428283691,1.79745352268219,-2.905461311340332,0.4255293309688568
2500942616.0,-0.6394937038421631,-0.0812758356332779,10.155047416687012,1.665924072265625,-3.2337841987609863,0.5401017665863037
2500950949.0,-0.492206335067749,-0.1671978086233139,9.971209526062012,1.6062687635421753,-3.563849210739136,0.5012962222099304
2500959282.0,-0.3864339292049408,0.0468860380351543,9.87349796295166,1.7387967109680176,-3.10123062133789,0.4282956123352051
2500967615.0,-0.5777151584625244,0.1992342621088028,10.083047866821287,1.8229395151138303,-2.758973360061645,0.2976374328136444
2500975948.0,-0.776677131652832,0.0418739579617977,10.240559577941896,1.6430763006210327,-2.936607837677002,0.5364388227462769
2500984281.0,-0.7053238749504089,-0.0789046734571456,10.12425136566162,1.6636700630187988,-3.461315393447876,0.5560081601142883
2500992614.0,-0.5130163431167603,0.0355449356138706,9.971226692199709,1.6511192321777344,-3.430962562561035,0.5683798789978027
2501000947.0,-0.5031893849372864,0.1615849137306213,9.971673011779783,1.776039719581604,-2.983097791671753,0.4986323118209839
2501009280.0,-0.6463617086410522,0.0510683991014957,10.156094551086426,1.6099060773849487,-2.924492597579956,0.510440468788147
2501017613.0,-0.6184311509132385,-0.1356487423181533,10.126749992370604,1.6152335405349731,-3.3157753944396973,0.5311623215675354
2501025946.0,-0.4224125742912292,-0.0044647059403359,9.94968032836914,1.7078800201416016,-3.315570116043091,0.3909756243228912
2501034279.0,-0.3852483630180359,0.1855356246232986,9.91875171661377,1.832109451293945,-2.8635048866271973,0.3357001841068268
2501042612.0,-0.695323646068573,0.1256218701601028,10.130019187927246,1.674428105354309,-2.7312588691711426,0.4044487476348877
2501050945.0,-0.8557259440422058,-0.1798789054155349,10.185647010803224,1.6150288581848145,-3.156583309173584,0.406062513589859
2501059278.0,-0.6763140559196472,-0.1622250229120254,10.049267768859863,1.8656896352767944,-3.595226764678955,0.4460718929767608
2501067611.0,-0.4397294521331787,0.1652590781450271,9.945411682128906,1.8799564838409424,-3.3445656299591064,0.4081883728504181
2501075944.0,-0.4969103038311004,0.3328663110733032,10.085801124572754,1.881365418434143,-2.9526166915893555,0.3534764349460602
2501084277.0,-0.6680247783660889,0.0637597367167472,10.198830604553224,1.726143479347229,-2.935635089874268,0.4468147456645965
2501092610.0,-0.5863666534423828,-0.1487734466791153,10.06354808807373,1.5324995517730713,-3.417463779449463,0.5580573081970215
2501100943.0,-0.4170103669166565,-0.015272568911314,9.909677505493164,1.739411473274231,-3.343745946884156,0.4559846222400665
2501109276.0,-0.4869123697280884,0.2136205434799194,9.91754150390625,1.902343511581421,-2.8380444049835205,0.4540379643440246
2501117609.0,-0.7346668839454651,0.2355515211820602,10.247386932373049,1.7482227087020874,-2.665225028991699,0.4032961428165436
2501125942.0,-0.8235624432563782,0.0238684304058551,10.255448341369627,1.6494282484054563,-3.2299928665161133,0.5493228435516357
2501134275.0,-0.6118297576904297,0.0003106134245172,10.045732498168944,1.5749167203903198,-3.5833418369293213,0.6053924560546875
2501142608.0,-0.4754859507083893,0.1553099900484085,9.956195831298828,1.7706607580184937,-3.266800880432129,0.4306777417659759
2501150941.0,-0.5930362343788147,0.1455513089895248,10.070218086242676,1.7798309326171875,-2.9176025390625,0.404397577047348
2501159274.0,-0.6721199750900269,-0.0387664586305618,10.130403518676758,1.5955108404159546,-3.245131731033325,0.3937932848930359
2501167607.0,-0.4859204590320587,-0.0399407297372818,9.998659133911133,1.703167200088501,-3.505167007446289,0.5333652496337891
2501175940.0,-0.3149097859859466,0.1586827039718628,9.88272190093994,1.7579559087753296,-3.1828372478485107,0.4462255239486694
2501184273.0,-0.5048356056213379,0.2310416102409362,10.012246131896973,1.7558302879333496,-2.573807954788208,0.4689709842205047
2501192606.0,-0.7849076390266418,-0.0301564112305641,10.17245864868164,1.6244292259216309,-2.843986988067627,0.4433312118053436
2501200939.0,-0.778969407081604,-0.1861230432987213,10.120129585266112,1.6293468475341797,-3.380476474761963,0.5510901808738708
2501209272.0,-0.5148930549621582,0.0342976860702037,10.006916999816896,1.7488118410110474,-3.460777521133423,0.4592888057231903
2501217605.0,-0.4583663046360016,0.3270972669124603,10.039145469665527,1.8390508890151973,-3.044264554977417,0.4178449809551239
2501225938.0,-0.6217032074928284,0.2305546849966049,10.177903175354004,1.6765284538269043,-2.9568686485290527,0.5094414949417114
2501234271.0,-0.6314928531646729,-0.0951320230960846,10.107685089111328,1.5171055793762207,-3.246617078781128,0.4723009169101715
2501242604.0,-0.4300483167171478,-0.1255386173725128,9.908438682556152,1.607036828994751,-3.404477119445801,0.6227076053619385
2501250937.0,-0.3604537844657898,0.0853344053030014,9.869384765625,1.6652840375900269,-3.09969425201416,0.4504263401031494
2501259270.0,-0.5776371955871582,0.2184435725212097,10.139202117919922,1.7938930988311768,-2.6415064334869385,0.3272218406200409
2501267603.0,-0.7859643697738647,0.0227054376155138,10.237130165100098,1.5873655080795288,-2.84157943725586,0.5629497170448303
2501275936.0,-0.7148340344429016,-0.0508387312293052,10.11341667175293,1.5649272203445437,-3.2984089851379395,0.5161780714988708
2501284269.0,-0.5324537754058838,0.0608208589255809,9.90052890777588,1.6566262245178225,-3.210116386413574,0.4228397905826568
2501292602.0,-0.5425890684127808,0.1293794065713882,10.008524894714355,1.7286536693572998,-2.9176025390625,0.4456108808517456
2501300935.0,-0.6635043621063232,-0.0068606287240982,10.12621784210205,1.585828423500061,-3.0614776611328125,0.4822647869586944
2501309268.0,-0.5648068189620972,-0.1475934088230133,10.06321144104004,1.6379276514053345,-3.3924129009246826,0.4662302136421203
2501317601.0,-0.3882599771022796,0.0215636175125837,9.944297790527344,1.7287813425064087,-3.3878533840179443,0.4242997467517853
2501325934.0,-0.4580930173397064,0.2178902328014373,9.96461009979248,1.6894123554229736,-2.7452950477600098,0.3758376538753509
2501334267.0,-0.7518817782402039,0.0304233506321907,10.201427459716797,1.7217377424240112,-2.715095996856689,0.3526311814785003
2501342600.0,-0.8400995135307312,-0.2264732420444488,10.173955917358398,1.690078616142273,-3.158658266067505,0.5505267977714539
2501350933.0,-0.6185126304626465,-0.1218632757663726,9.99698543548584,1.6316393613815308,-3.437020063400269,0.5082504153251648
2501359266.0,-0.4521890580654144,0.1926774829626083,9.981077194213867,1.8772672414779663,-3.1940817832946777,0.3853149116039276
2501367599.0,-0.5904858112335205,0.2536897659301758,10.1543550491333,1.8029093742370603,-2.860559463500977,0.4398732781410217
2501375932.0,-0.7049119472503662,0.017812855541706,10.1685152053833,1.7002984285354614,-3.272948265075684,0.6048288941383362
2501384265.0,-0.5374019742012024,-0.1825566738843917,9.983217239379885,1.615387201309204,-3.584827423095703,0.5963249802589417
2501392598.0,-0.3827593922615051,0.029796989634633,9.875821113586426,1.808518648147583,-3.277405500411988,0.362262099981308
2501400931.0,-0.5401138663291931,0.231793463230133,10.048406600952148,1.8392558097839355,-2.679184913635254,0.4985554814338684
2501409264.0,-0.7744005918502808,0.0765397250652313,10.282398223876951,1.7701228857040403,-2.7774667739868164,0.416154533624649
2501417597.0,-0.7812164425849915,-0.0460123196244239,10.182294845581056,1.5678472518920898,-3.4006097316741943,0.4020922482013702
2501425930.0,-0.5337956547737122,0.0478660762310028,9.98978328704834,1.6670511960983276,-3.5218162536621094,0.5814943313598633
2501434263.0,-0.437434047460556,0.1349551975727081,9.974361419677734,1.7324445247650146,-3.159554481506348,0.3651053011417389
2501442596.0,-0.5984840989112854,0.0979589074850082,10.118203163146973,1.665386438369751,-2.9908463954925537,0.3493269681930542
2501450929.0,-0.6131436228752136,-0.0977978929877281,10.128165245056152,1.662184476852417,-3.183964729309082,0.4928690791130066
2501459262.0,-0.4147259891033172,-0.0143934795632958,9.971933364868164,1.658393383026123,-3.50060772895813,0.4938168227672577
2501467595.0,-0.371398389339447,0.2281762510538101,9.90868854522705,1.809056520462036,-2.903719186782837,0.3300650119781494
2501475928.0,-0.6484602689743042,0.1344669461250305,10.07038688659668,1.697378396987915,-2.610257148742676,0.5451221466064453
2501484261.0,-0.8495985269546509,-0.1177193075418472,10.21447467803955,1.6614930629730225,-3.010326147079468,0.4615685045719147
2501492594.0,-0.6833952069282532,-0.1366592496633529,10.058740615844728,1.6912822723388672,-3.4401838779449463,0.5323662161827087
2501500927.0,-0.4347314238548279,0.1247627884149551,9.956015586853027,1.877190470695496,-3.3531980514526367,0.3681021928787231
2501509260.0,-0.460735410451889,0.3143053650856018,10.073264122009276,1.8537534475326536,-2.873673915863037,0.3961241543292999
2501517593.0,-0.6262804269790649,0.1250965893268585,10.15780258178711,1.6445621252059937,-3.023798942565918,0.5163830518722534
2501525926.0,-0.5739210844039917,-0.1597725450992584,10.028008460998535,1.6358016729354858,-3.4319610595703125,0.5052663683891296
2501534259.0,-0.3732846975326538,-0.0269139260053634,9.887083053588867,1.727270245552063,-3.4258909225463867,0.5928414463996887
2501542592.0,-0.4522339403629303,0.1934513300657272,9.936580657958984,1.822517156600952,-2.805168867111206,0.4300502240657806
2501550925.0,-0.7165320515632629,0.1854211539030075,10.224945068359377,1.7342631816864014,-2.6938364505767822,0.4451498091220855
2501559258.0,-0.8199033737182617,0.0189079027622938,10.258357048034668,1.63142192363739,-3.109350681304932,0.4476855993270874
2501567591.0,-0.6239691376686096,-0.0055634882301092,10.053147315979004,1.5694353580474854,-3.3802719116210938,0.5581085085868835
2501575924.0,-0.4774358570575714,0.1323656290769577,9.946524620056152,1.7568292617797852,-3.0859904289245605,0.4361336231231689
2501584257.0,-0.5812796354293823,0.144833356142044,10.084517478942873,1.6570872068405151,-2.9015932083129883,0.410237580537796
2501592590.0,-0.6349988579750061,-0.0429873242974281,10.173680305480955,1.671405553817749,-3.2706944942474365,0.5485544204711914
2501600923.0,-0.4824093878269195,-0.0597401112318038,10.025846481323242,1.7348520755767822,-3.474430084228516,0.5791378021240234
2501609256.0,-0.3613515794277191,0.1643100678920745,9.887510299682615,1.660750150680542,-3.2016642093658447,0.3743776977062225
2501617589.0,-0.5447826981544495,0.2067953199148178,10.076594352722168,1.697429656982422,-2.653468132019043,0.3960985243320465
2501625922.0,-0.8257558345794678,-0.0565996691584587,10.200129508972168,1.6985822916030884,-2.794961452484131,0.4442788958549499
2501634255.0,-0.7868958711624146,-0.223393902182579,10.13379192352295,1.7231720685958862,-3.466181993484497,0.4890525937080383
2501642588.0,-0.5509321689605713,0.0061824489384889,9.971192359924316,1.855700135231018,-3.426633834838867,0.4718654453754425
2501650921.0,-0.4703330993652344,0.2951835393905639,9.982431411743164,1.758724570274353,-3.0445973873138428,0.4548832476139068
2501659254.0,-0.646940290927887,0.1985983401536941,10.175190925598145,1.7404873371124268,-2.989783525466919,0.3615705966949463
2501667587.0,-0.656695544719696,-0.1129099503159523,10.101950645446776,1.6257609128952026,-3.3145971298217773,0.3941005766391754
2501675920.0,-0.4330999851226806,-0.123049296438694,9.890942573547363,1.5989428758621216,-3.505704879760742,0.3979171216487884
2501684253.0,-0.3697049617767334,0.0919569879770279,9.844197273254396,1.905392050743103,-3.010326147079468,0.3278878629207611
2501692586.0,-0.6271149516105652,0.1879388988018036,10.13918113708496,1.7996046543121338,-2.7196807861328125,0.3477900326251983
2501700919.0,-0.8072597980499268,0.0207482874393463,10.259321212768556,1.6772969961166382,-2.9696760177612305,0.5204555988311768
2501709252.0,-0.6939594745635986,-0.0484015345573425,10.06930160522461,1.5566537380218506,-3.413698673248291,0.4939192533493042
2501717585.0,-0.5137158632278442,0.08387141674757,9.930612564086914,1.63841450214386,-3.248819828033448,0.4610049426555633
2501725918.0,-0.5437727570533752,0.146442711353302,9.99965000152588,1.688746452331543,-2.850057363510132,0.4824697971343994
2501734251.0,-0.6602294445037842,-0.024434894323349,10.120490074157717,1.6182305812835691,-3.0354793071746826,0.4255549311637878
2501742584.0,-0.5650993585586548,-0.1301807016134262,10.075257301330566,1.6426408290863037,-3.515310287475586,0.4806767106056213
2501750917.0,-0.3553663790225982,0.0593370050191879,9.918646812438965,1.7194322347640991,-3.4014806747436523,0.4859020113945007
2501759250.0,-0.4170933365821838,0.2476727217435836,9.939456939697266,1.8267561197280884,-2.793245315551758,0.4063442647457123
2501767583.0,-0.7330973148345947,0.0378542058169841,10.160085678100586,1.703909993171692,-2.73830246925354,0.3702537715435028
2501775916.0,-0.8507362008094788,-0.2218740880489349,10.182926177978516,1.7785241603851318,-3.287778615951538,0.5023719668388367
2501784249.0,-0.5872458219528198,-0.0824210867285728,10.02313995361328,1.7791646718978882,-3.624068021774292,0.5201226472854614
2501792582.0,-0.4361833035945892,0.2376615405082702,9.949640274047852,1.8426750898361208,-3.166201114654541,0.4023868143558502
2501800915.0,-0.5695405602455139,0.2964206635951996,10.13426399230957,1.7588526010513306,-3.02395248413086,0.380909264087677
2501809248.0,-0.6666920185089111,-0.0215683579444885,10.172982215881348,1.553990125656128,-3.2430312633514404,0.4153860807418823
2501817581.0,-0.5381389260292053,-0.1789761185646057,9.984156608581545,1.611212134361267,-3.3898518085479736,0.4645653665065765
2501825914.0,-0.374127060174942,0.0068396497517824,9.842876434326172,1.7575973272323608,-3.309499502182007,0.3979426920413971
2501834247.0,-0.5228374004364014,0.2061450332403183,10.001551628112791,1.817919373512268,-2.720705986022949,0.3915648460388183
2501842580.0,-0.7637943029403687,0.1223815158009529,10.269231796264648,1.6162325143814087,-2.7075653076171875,0.4329829514026642
2501850913.0,-0.755405604839325,-0.049268539994955,10.218741416931152,1.6601608991622925,-3.325047731399536,0.6244237422943115
2501859246.0,-0.5423610210418701,0.0447292700409889,9.981942176818848,1.673301100730896,-3.4306297302246094,0.570377767086029
2501867579.0,-0.4674742817878723,0.1742663532495498,9.913158416748049,1.688797950744629,-2.9604039192199707,0.4663327634334564
2501875912.0,-0.6217972636222839,0.0970802083611488,10.13670253753662,1.7657685279846191,-2.878873348236084,0.475758820772171
2501884245.0,-0.6417570114135742,-0.1219852939248085,10.154762268066406,1.748734951019287,-3.2672107219696045,0.5447635054588318
2501892578.0,-0.450577974319458,-0.0458536371588707,9.977764129638672,1.7188429832458496,-3.4230473041534424,0.4623112976551056
2501900911.0,-0.3679343163967132,0.2513525187969208,9.949806213378906,1.7900763750076294,-3.0604782104492188,0.4548319578170776
2501909244.0,-0.6187912821769714,0.1548088490962982,10.023807525634766,1.7009388208389282,-2.5846939086914062,0.4620807766914367
2501917577.0,-0.8658291101455688,-0.0859812274575233,10.294939041137695,1.6397464275360107,-2.801621198654175,0.5565460920333862
2501925910.0,-0.7308036088943481,-0.1708867102861404,10.0538911819458,1.7200214862823486,-3.3246636390686035,0.5772935748100281
2501934243.0,-0.5029866695404053,0.0661489740014076,9.958012580871582,1.7855679988861084,-3.350149393081665,0.4303703010082245
2501942576.0,-0.4686841368675232,0.3391893804073334,10.038230895996094,1.805880308151245,-2.929333448410034,0.3452286422252655
2501950909.0,-0.6707791090011597,0.1701528877019882,10.16114330291748,1.5896451473236084,-3.002462148666382,0.5114907026290894
2501959242.0,-0.6050416231155396,-0.1221673414111137,10.122247695922852,1.5190521478652954,-3.414159774780273,0.5236061215400696
2501967575.0,-0.4150798618793487,-0.096810907125473,9.866363525390623,1.6369541883468628,-3.3209493160247803,0.4818805158138275
2501975908.0,-0.4187038540840149,0.1846649199724197,9.907419204711914,1.8159725666046145,-2.838864326477051,0.3578820824623108
2501984241.0,-0.6926158666610718,0.1497443467378616,10.176898956298828,1.7502206563949585,-2.646347761154175,0.3667446076869964
2501992574.0,-0.8297685384750366,0.0384585745632648,10.264918327331545,1.597892999649048,-3.0805857181549072,0.5148205757141113
2502000907.0,-0.6180480718612671,-0.0325006023049354,10.065255165100098,1.5640819072723389,-3.525146007537842,0.536029040813446
2502009240.0,-0.4425123929977417,0.1108366474509239,9.90709114074707,1.696866154670715,-3.332040309906006,0.4010420441627502
2502017573.0,-0.512784481048584,0.1692829728126526,10.063018798828123,1.571663737297058,-2.9344305992126465,0.3636452555656433
2502025906.0,-0.6570326685905457,-0.0435145087540149,10.171818733215332,1.6376463174819946,-3.0764617919921875,0.4189464449882507
2502034239.0,-0.5162215232849121,-0.1413279771804809,10.015728950500488,1.6256842613220217,-3.4435391426086426,0.5065727233886719
2502042572.0,-0.3668956458568573,0.1176987364888191,9.921683311462402,1.6502994298934937,-3.336907148361206,0.4454315304756164
2502050905.0,-0.4805045425891876,0.2312501370906829,9.96191692352295,1.8262563943862915,-2.703505754470825,0.4182676970958709
2502059238.0,-0.7979324460029602,0.0377217978239059,10.21627712249756,1.6127105951309204,-2.725380182266236,0.4350705742835998
2502067571.0,-0.8119467496871948,-0.258570522069931,10.141160011291504,1.6571897268295288,-3.232887983322144,0.5036271214485168
2502075904.0,-0.573320209980011,-0.0871170237660408,10.002485275268556,1.7365936040878296,-3.5096747875213623,0.5190211534500122
2502084237.0,-0.3570527732372284,0.2179502546787262,9.960755348205566,1.9111292362213133,-3.1414194107055664,0.4301910698413849
2502092570.0,-0.561146080493927,0.2860702276229858,10.181156158447266,1.793688178062439,-2.757744073867798,0.3957655727863312
2502100903.0,-0.6475116610527039,-0.0306483916938304,10.14362907409668,1.6314986944198608,-3.1237711906433105,0.6715028285980225
2502109236.0,-0.496715247631073,-0.1637497693300247,9.927485466003418,1.7377464771270752,-3.490233898162842,0.4444837868213653
2502117569.0,-0.4152314960956573,0.0018345596035942,9.832467079162598,1.7873358726501465,-3.074310302734375,0.4413332939147949
2502125902.0,-0.6102839112281799,0.190090462565422,10.059737205505373,1.8172529935836792,-2.628058910369873,0.4224811792373657
2502134235.0,-0.8261680006980896,0.0955198258161544,10.301825523376465,1.6335479021072388,-2.8634026050567627,0.4419735968112945
2502142568.0,-0.7477275729179382,-0.0625577792525291,10.155924797058104,1.6429994106292725,-3.3667473793029785,0.525937020778656
2502150901.0,-0.4859345257282257,0.0701250210404396,9.990985870361328,1.6015043258666992,-3.477247476577759,0.5674064755439758
2502159234.0,-0.4497463703155517,0.1252385675907135,9.964778900146484,1.7863112688064575,-3.1439812183380127,0.3487378656864166
2502167567.0,-0.608217179775238,0.0448091216385364,10.143152236938477,1.7084439992904663,-2.914682388305664,0.4657692909240722
2502175900.0,-0.6026092171669006,-0.1566692143678665,10.053227424621582,1.674453854560852,-3.1954145431518555,0.5157682299613953
2502184233.0,-0.4285984933376312,-0.0306013487279415,9.952038764953612,1.750937819480896,-3.3733561038970947,0.553856611251831
2502192566.0,-0.4134687185287475,0.2186383605003357,9.919178009033203,1.7091355323791504,-2.904078245162964,0.3610582947731018
2502200899.0,-0.6977764368057251,0.1594159454107284,10.131021499633787,1.7064204216003418,-2.657656192779541,0.4609537422657013
2502209232.0,-0.8762266635894775,-0.1421849429607391,10.179732322692873,1.596996188163757,-2.968881845474243,0.4609025120735168
2502217565.0,-0.7044646143913269,-0.1866385489702224,10.086559295654297,1.6314985752105713,-3.570175886154175,0.5897678136825562
2502225898.0,-0.4090718626976013,0.1295545101165771,9.93362522125244,1.8541374206542969,-3.43416428565979,0.4338282644748688
2502234231.0,-0.4585426747798919,0.3309543430805206,10.077695846557615,1.892033934593201,-2.9683055877685547,0.3772848546504974
2502242564.0,-0.6060656905174255,0.1141805276274681,10.212976455688477,1.6827528476715088,-2.964911937713623,0.480958491563797
2502250897.0,-0.5694054961204529,-0.1477666199207306,10.0602445602417,1.5495332479476929,-3.306836128234864,0.5617714524269104
2502259230.0,-0.3911303579807281,-0.0387618914246559,9.877827644348145,1.705164909362793,-3.25258469581604,0.5317258834838867
2502267563.0,-0.4647373259067535,0.156924769282341,9.94765567779541,1.8354392051696773,-2.72938871383667,0.368973046541214
2502275896.0,-0.7546759843826294,0.1780337393283844,10.21480655670166,1.7043200731277466,-2.731617212295532,0.3827535212039947
2502284229.0,-0.8632991909980774,-0.0077526941895484,10.276470184326172,1.6539369821548462,-3.1111180782318115,0.5961458086967468
2502292562.0,-0.6093873381614685,-0.0059252418577671,10.065775871276855,1.56203293800354,-3.5729422569274902,0.6068012118339539
2502300895.0,-0.4292013049125671,0.1482232958078384,9.912110328674316,1.6067554950714111,-3.1728994846343994,0.5158451199531555
2502309228.0,-0.5511329174041748,0.1599172353744506,10.068204879760742,1.605807542800903,-2.8578696250915527,0.5210959911346436
2502317561.0,-0.632942259311676,-0.0630267933011055,10.158711433410645,1.6454325914382937,-3.260038614273072,0.5147436261177063
2502325894.0,-0.5168125629425049,-0.1042917966842651,10.000228881835938,1.6925116777420044,-3.424533605575561,0.5594916939735413
2502334227.0,-0.353574126958847,0.1303899586200714,9.866864204406738,1.8458895683288568,-3.1207737922668457,0.39284548163414
2502342560.0,-0.5533663034439087,0.24561807513237,10.01227569580078,1.7941491603851318,-2.5468618869781494,0.3725078105926513
2502350893.0,-0.8142622709274292,0.026628328487277,10.190661430358888,1.6427946090698242,-2.827286720275879,0.4778335690498352
2502359226.0,-0.8028003573417664,-0.2084020525217056,10.138052940368652,1.563953876495361,-3.394078016281128,0.5287034511566162
2502367559.0,-0.5131253004074097,-0.0332409106194973,9.939735412597656,1.8088515996932983,-3.5512468814849854,0.4155653715133667
2502375892.0,-0.4227365553379059,0.2676680088043213,9.961076736450195,1.6913849115371704,-2.9786412715911865,0.3623390197753906
2502384225.0,-0.5997893810272217,0.2247207909822464,10.135327339172363,1.7146424055099487,-2.80961275100708,0.3452542722225189
2502392558.0,-0.698772668838501,-0.0769830346107482,10.189446449279783,1.52873432636261,-3.204660654067993,0.5912790298461914
2502400891.0,-0.4904167056083679,-0.1338128000497818,9.895668029785156,1.6147468090057373,-3.45729398727417,0.4919469952583313
2502409224.0,-0.3712044060230255,0.1154708415269851,9.87238597869873,1.7623361349105835,-3.026949167251587,0.4568810760974884
2502417557.0,-0.5965889692306519,0.1831584423780441,10.077210426330566,1.815332174301148,-2.699036121368408,0.4391817152500152
2502425890.0,-0.823140025138855,0.077766977250576,10.276658058166504,1.6062686443328855,-2.8750057220458984,0.4286798238754272
2502434223.0,-0.7323551177978516,-0.1075498536229133,10.136411666870115,1.6312166452407837,-3.336906909942627,0.4538841545581817
2502442556.0,-0.4940560758113861,0.0356205850839614,9.947050094604492,1.6726094484329224,-3.2961294651031494,0.5252199172973633
2502450889.0,-0.4825366735458374,0.186110109090805,9.967365264892578,1.7333409786224363,-2.938631772994995,0.3358538746833801
2502459222.0,-0.6701458096504211,0.0308548342436552,10.147054672241213,1.64630389213562,-2.913683652877808,0.2743284702301025
2502467555.0,-0.6078695058822632,-0.1558529436588287,10.118757247924805,1.6295517683029177,-3.429604768753052,0.4539353847503662
2502475888.0,-0.3954994082450866,-0.0381255075335502,9.91231632232666,1.641283392906189,-3.357091188430786,0.5269872546195984
2502484221.0,-0.3629342019557953,0.1841377317905426,9.917375564575195,1.767587184906006,-2.778260946273804,0.37660613656044
2502492554.0,-0.6896098256111145,0.0851582437753677,10.125816345214844,1.7162048816680908,-2.646219491958618,0.4687661230564117
2502500887.0,-0.8616571426391602,-0.1371330022811889,10.259093284606934,1.6429738998413086,-3.046595573425293,0.4487102031707763
2502509220.0,-0.6686916351318359,-0.1930065006017685,10.043548583984377,1.6550893783569336,-3.5402841567993164,0.4926129281520843
2502517553.0,-0.4360208213329315,0.1714927852153778,9.967961311340332,1.8527030944824217,-3.2519447803497314,0.4806510806083679
2502525886.0,-0.482444703578949,0.299902468919754,10.054436683654783,1.850423812866211,-2.968958854675293,0.3984806835651397
2502534219.0,-0.6385635137557983,0.0975643694400787,10.226173400878906,1.6931010484695437,-3.00356388092041,0.5621044635772705
2502542552.0,-0.5805212259292603,-0.1863151639699936,10.01129150390625,1.5795398950576782,-3.384971857070923,0.5758719444274902
2502550885.0,-0.4166166186332702,-0.028983537107706,9.885771751403809,1.8182008266448968,-3.357552289962769,0.4787300527095794
2502559218.0,-0.4910975396633148,0.2015431225299835,9.9869384765625,1.8273450136184688,-2.794551372528076,0.2871355414390564
2502567551.0,-0.7832523584365845,0.1684169769287109,10.24722385406494,1.7760143280029297,-2.759920835494995,0.5794451832771301
2502575884.0,-0.8599426746368408,0.0065433951094746,10.258622169494627,1.5914376974105835,-3.2810678482055664,0.4805229306221008
2502584217.0,-0.5807071328163147,-0.0304460041224956,9.98806858062744,1.6672048568725586,-3.4960484504699707,0.5663819313049316
2502592550.0,-0.389690488576889,0.1468410640954971,9.86863613128662,1.76437246799469,-3.254083633422852,0.4311259686946869
2502600883.0,-0.536780059337616,0.139035552740097,10.032721519470217,1.6913849115371704,-2.880436420440674,0.4238643944263458
2502609216.0,-0.6760722398757935,-0.0328079648315906,10.178210258483888,1.705062747001648,-3.215393304824829,0.4859532415866852
2502617549.0,-0.5377283096313477,-0.1021497249603271,10.010854721069336,1.6291676759719849,-3.377864360809326,0.5104917287826538
2502625882.0,-0.3770107924938202,0.143878772854805,9.912416458129885,1.7461222410202026,-3.1737189292907715,0.50298672914505
2502634215.0,-0.5407955646514893,0.171488881111145,9.965554237365724,1.7778583765029907,-2.663995742797852,0.3146708905696869
2502642548.0,-0.8084695339202881,0.0139101892709732,10.212902069091797,1.7053444385528564,-2.8936784267425537,0.3891314268112182
2502650881.0,-0.7857223153114319,-0.224961444735527,10.130624771118164,1.5573455095291138,-3.3629567623138428,0.5354655385017395
2502659214.0,-0.4838353991508484,-0.0087516997009515,9.986028671264648,1.7657941579818726,-3.463569641113281,0.4269380569458008
2502667547.0,-0.3596073985099792,0.3158009350299835,9.991740226745604,1.809056520462036,-3.1310455799102783,0.4472245275974273
2502675880.0,-0.5723286867141724,0.2462509870529174,10.184279441833496,1.6827784776687622,-2.8484694957733154,0.4254524409770965
2502684213.0,-0.6686264872550964,-0.0673381984233856,10.153690338134766,1.5058866739273071,-3.1631405353546143,0.5254248380661011
2502692546.0,-0.4632815718650818,-0.1682334542274475,9.944427490234377,1.6173851490020752,-3.383755683898926,0.4618246257305145
2502700879.0,-0.3880151212215423,0.0711999088525772,9.841900825500488,1.8626673221588133,-3.055022954940796,0.2743797302246094
2502709212.0,-0.6143587827682495,0.2426289170980453,10.084047317504885,1.8507567644119265,-2.435926675796509,0.4009396433830261
2502717545.0,-0.8563920259475708,0.1262425929307937,10.29477310180664,1.6663854122161863,-2.895702362060547,0.3305517435073852
2502725878.0,-0.7514115571975708,-0.0555192716419696,10.14392375946045,1.5789382457733154,-3.3961527347564697,0.538334310054779
2502734211.0,-0.5006552934646606,0.0526270270347595,9.921582221984863,1.5064241886138916,-3.342388153076172,0.4283211827278137
2502742544.0,-0.4464387893676758,0.1745359152555465,9.95997714996338,1.67768132686615,-2.9459829330444336,0.420765072107315
2502750877.0,-0.64411860704422,0.053360216319561,10.148164749145508,1.5902341604232788,-2.938580274581909,0.3841110467910766
2502759210.0,-0.6096363663673401,-0.1166909858584404,10.109251976013184,1.6899758577346802,-3.23278546333313,0.4846725165843963
2502767543.0,-0.4124917387962341,0.0075632235966622,9.92870807647705,1.6003260612487793,-3.397382497787476,0.5418434739112854
2502775876.0,-0.3971959948539734,0.2376956641674041,9.91391658782959,1.7252466678619385,-2.8443965911865234,0.4306264817714691
2502784209.0,-0.71446692943573,0.1223087757825851,10.13078498840332,1.653398871421814,-2.696218252182007,0.364849179983139
2502792542.0,-0.872401237487793,-0.1596292108297348,10.205926895141602,1.5340622663497925,-3.076051950454712,0.4205089211463928
2502800875.0,-0.6596019268035889,-0.1880806982517242,10.03895664215088,1.6765540838241575,-3.604115009307861,0.5652292966842651
2502809208.0,-0.4104081094264984,0.1421068757772445,9.917556762695312,1.7881553173065186,-3.423431873321533,0.3792699873447418
2502817541.0,-0.5162036418914795,0.3382735848426819,10.111916542053224,1.7766801118850708,-2.858023405075073,0.4176913201808929
2502825874.0,-0.6594313979148865,0.0821619629859924,10.197999000549316,1.624838948249817,-3.0106842517852783,0.5485544204711914
2502834207.0,-0.5653253197669983,-0.1844330132007599,10.01267910003662,1.633163332939148,-3.43813419342041,0.5788047313690186
2502842540.0,-0.3802041709423065,-0.0754033178091049,9.870736122131348,1.7588269710540771,-3.2995612621307373,0.4716604650020599
2502850873.0,-0.4327472448348999,0.1782166957855224,9.962923049926758,1.8860015869140625,-2.687740087509156,0.4118256568908691
2502859206.0,-0.7352846264839172,0.1626342087984085,10.22384262084961,1.7345447540283203,-2.7557713985443115,0.3900535702705383
2502867539.0,-0.8297417759895325,-0.0352689325809478,10.24159812927246,1.6667438745498655,-3.1061997413635254,0.4587765634059906
2502875872.0,-0.5825471878051758,-0.0290987584739923,10.001714706420898,1.741255521774292,-3.4981486797332764,0.5413824915885925
2502884205.0,-0.4355978667736053,0.1429629027843475,9.900641441345217,1.7721209526062012,-3.142469644546509,0.4408466517925262
2502892538.0,-0.5729319453239441,0.1226898208260536,10.053329467773438,1.7496572732925415,-2.9258503913879395,0.3455616533756256
2502900871.0,-0.6491495966911316,-0.0684500262141227,10.17411994934082,1.6253130435943604,-3.1306490898132324,0.4711098372936249
2502909204.0,-0.5025838017463684,-0.0936689153313636,10.024300575256348,1.673557162284851,-3.449251174926758,0.5196871757507324
2502917537.0,-0.3471967577934265,0.1289661675691604,9.885211944580078,1.72378671169281,-3.185450315475464,0.5570327043533325
2502925870.0,-0.5401222109794617,0.2256061136722564,10.028185844421388,1.842560052871704,-2.632618427276612,0.4500164687633514
2502934203.0,-0.8248356580734253,-0.0201455131173133,10.2212553024292,1.6619797945022583,-2.8365845680236816,0.4655387699604034
2502942536.0,-0.76292884349823,-0.2151799499988556,10.15882968902588,1.6304997205734253,-3.313086032867432,0.4918957650661468
2502950869.0,-0.5059711337089539,-0.0300710592418909,9.928278923034668,1.7694568634033203,-3.377838611602783,0.5221717357635498
2502959202.0,-0.4072184562683105,0.3158732950687408,9.982694625854492,1.794200420379639,-3.009916305541992,0.3974049091339111
2502967535.0,-0.5907782912254333,0.2402678579092025,10.139498710632324,1.7080085277557373,-2.9131455421447754,0.459416925907135
2502975868.0,-0.6634145975112915,-0.0734397768974304,10.19326114654541,1.7057288885116575,-3.127434492111206,0.5162037014961243
2502984201.0,-0.4805631041526794,-0.1751899272203445,9.92001724243164,1.620996594429016,-3.484880208969116,0.515691339969635
2502992534.0,-0.3947047591209411,0.0849114432930946,9.897836685180664,1.7393860816955566,-3.041114330291748,0.4148738086223602
2503000867.0,-0.5847734212875366,0.2098802328109741,10.074136734008787,1.8219406604766848,-2.613919973373413,0.3191277682781219
2503009200.0,-0.8423894047737122,0.0811547189950943,10.307823181152344,1.6326513290405271,-2.9006967544555664,0.4466866254806518
2503017533.0,-0.7442983984947205,-0.0818274244666099,10.09959316253662,1.4967421293258667,-3.471740484237671,0.4730949401855469
2503025866.0,-0.4634943306446075,0.0535215362906456,9.90250015258789,1.7178442478179932,-3.3339359760284424,0.4337770342826843
2503034199.0,-0.4832821488380432,0.1613227576017379,9.944255828857422,1.7555993795394895,-2.8746726512908936,0.4199709594249725
2503042532.0,-0.659279465675354,0.0416801124811172,10.163548469543455,1.7032184600830078,-2.979819059371948,0.4965831339359283
2503050865.0,-0.6143640875816345,-0.123221717774868,10.111004829406738,1.6285017728805542,-3.397023677825928,0.4269636571407318
2503059198.0,-0.3965920209884643,0.0355456508696079,9.922113418579102,1.7697898149490356,-3.52542781829834,0.4485564529895782
2503067531.0,-0.3753776252269745,0.2445899546146392,9.925832748413086,1.749042510986328,-2.887582778930664,0.3792443871498108
2503075864.0,-0.6839564442634583,0.1256544142961502,10.135390281677246,1.6954063177108765,-2.605390310287476,0.3482511639595032
2503084197.0,-0.8574666976928711,-0.1613970547914505,10.188232421875,1.6124930381774902,-3.049976587295532,0.4995544254779815
2503092530.0,-0.6250962615013123,-0.1239663586020469,10.028523445129396,1.7902556657791138,-3.542205333709717,0.5453526973724365
2503100863.0,-0.41473188996315,0.2061472833156585,9.96601390838623,1.7647182941436768,-3.428093671798706,0.5028330087661743
2503109196.0,-0.5007991194725037,0.339404433965683,10.099409103393556,1.7776280641555786,-2.8596630096435547,0.3475596010684967
2503117529.0,-0.6536756157875061,0.1084980443120002,10.19725227355957,1.6238144636154177,-2.9922935962677,0.4853641986846924
2503125862.0,-0.5679075717926025,-0.1714115440845489,10.016117095947266,1.5080124139785769,-3.4213571548461914,0.4989396631717682
2503134195.0,-0.4002238810062408,-0.0186790730804204,9.889901161193848,1.7125674486160278,-3.2307612895965576,0.438720554113388
2503142528.0,-0.483171284198761,0.2104846090078354,9.958662986755373,1.738822340965271,-2.829847812652588,0.3389275372028351
2503150861.0,-0.7616397142410278,0.1822341829538345,10.265217781066896,1.742151975631714,-2.6971657276153564,0.504216194152832
2503159194.0,-0.8041919469833374,0.0024399198591709,10.219120979309082,1.611417293548584,-3.227022409439087,0.3781173527240753
2503167527.0,-0.5319830179214478,-0.0315898992121219,9.992541313171388,1.503427267074585,-3.4418227672576904,0.3942798376083374
2503175860.0,-0.3892036974430084,0.1248257160186767,9.91645622253418,1.726694107055664,-3.099860429763794,0.4105577766895294
2503184193.0,-0.5630989670753479,0.0868269354104995,10.116122245788574,1.6615954637527466,-2.9849679470062256,0.4306777715682983
2503192526.0,-0.6671722531318665,-0.1018004119396209,10.162200927734377,1.638670802116394,-3.2334771156311035,0.3700744807720184
2503200859.0,-0.4887698888778686,-0.0808542966842651,10.004157066345217,1.6935361623764038,-3.53462290763855,0.5053431987762451
2503209192.0,-0.3559899628162384,0.1686533242464065,9.910831451416016,1.7265914678573608,-3.114895820617676,0.4619655013084411
2503217525.0,-0.5606755614280701,0.1720544397830963,10.026168823242188,1.6605195999145508,-2.561064958572388,0.4861325919628143
2503225858.0,-0.832020103931427,-0.0619511678814888,10.22042465209961,1.6760932207107544,-2.7419655323028564,0.5153071284294128
2503234191.0,-0.7878698706626892,-0.2596118152141571,10.051213264465332,1.724068522453308,-3.3041980266571045,0.6659444570541382
2503242524.0,-0.5129084587097168,0.0079467426985502,9.976259231567385,1.8620778322219849,-3.491309404373169,0.4251706004142761
2503250857.0,-0.4203290045261383,0.3006682991981506,10.020190238952637,1.9054943323135376,-2.99390721321106,0.4341869354248047
2503259190.0,-0.6099969148635864,0.222902163863182,10.175293922424316,1.766536831855774,-2.8758511543273926,0.5210191607475281
2503267523.0,-0.6182565093040466,-0.1138656362891197,10.128052711486816,1.5802443027496338,-3.288393259048462,0.4534743428230285
2503275856.0,-0.4321813285350799,-0.1326551884412765,9.86784553527832,1.6158225536346436,-3.5094187259674072,0.4764246940612793
2503284189.0,-0.3977290391921997,0.0980231538414955,9.907262802124023,1.8157674074172967,-2.9162700176239014,0.3698951303958893
2503292522.0,-0.6253736019134521,0.1821620464324951,10.11284351348877,1.835336685180664,-2.594939708709717,0.3963291049003601
2503300855.0,-0.824431836605072,0.069305881857872,10.283809661865234,1.6136714220046997,-2.935814380645752,0.4248633682727813
2503309188.0,-0.6965387463569641,-0.0493036732077598,10.133152961730955,1.5876471996307373,-3.3843703269958496,0.3606484234333038
2503317521.0,-0.510355532169342,0.0952908173203468,9.9169921875,1.6693052053451538,-3.297333002090454,0.3647979199886322
2503325854.0,-0.5338674187660217,0.165067434310913,10.02455711364746,1.7057801485061646,-2.9766433238983154,0.4190233051776886
2503334187.0,-0.6647038459777832,-0.029771028086543,10.166825294494627,1.6619797945022583,-3.089935064315796,0.354603499174118
2503342520.0,-0.5595870018005371,-0.1351351141929626,10.032421112060549,1.6796019077301023,-3.330272912979126,0.5480164885520935
2503350853.0,-0.3433458209037781,0.0845715403556823,9.91698169708252,1.6772712469100952,-3.3350629806518555,0.4016567766666412
2503359186.0,-0.448685348033905,0.2605000138282776,9.947148323059082,1.746762752532959,-2.6968328952789307,0.3779123723506927
2503367519.0,-0.7557864785194397,0.0710396543145179,10.19606876373291,1.6701503992080688,-2.657745838165283,0.3478668928146362
2503375852.0,-0.8538689017295837,-0.2358213514089584,10.16506004333496,1.7110052108764648,-3.261191368103028,0.3879275918006897
2503384185.0,-0.5955199599266052,-0.0930918529629707,9.992226600646973,1.767561435699463,-3.5284759998321533,0.4532182812690735
2503392518.0,-0.4229315817356109,0.2139077186584472,9.937301635742188,1.835618495941162,-3.179866313934326,0.4619783163070678
2503400851.0,-0.5680671334266663,0.2871541678905487,10.14109992980957,1.7995282411575315,-2.811687707901001,0.3764268159866333
2503409184.0,-0.6589421629905701,0.0655755996704101,10.180096626281738,1.607831358909607,-3.1888060569763184,0.56346195936203
2503417517.0,-0.5022164583206177,-0.154134064912796,9.964221000671388,1.6762211322784424,-3.5139527320861816,0.598809540271759
2503425850.0,-0.3632161915302276,0.0372298881411552,9.881399154663086,1.6954829692840576,-3.215649366378784,0.3766317069530487
2503434183.0,-0.5214649438858032,0.1918721795082092,10.008996963500977,1.8437639474868768,-2.6016249656677246,0.3424111008644104
2503442516.0,-0.787057101726532,0.1010087206959724,10.283815383911133,1.8139234781265257,-2.838762044906616,0.4605695903301239
2503450849.0,-0.7492753863334656,-0.0317124612629413,10.191883087158203,1.7016048431396484,-3.287830352783203,0.5065470933914185
2503459182.0,-0.5041632056236267,0.0643665269017219,9.96485424041748,1.681087851524353,-3.364339828491211,0.5361315608024597
2503467515.0,-0.4516270160675049,0.159976452589035,9.948084831237791,1.6442545652389526,-3.0778703689575195,0.4288335144519806
2503475848.0,-0.6570390462875366,0.0729351118206977,10.113906860351562,1.6548844575881958,-2.897648572921753,0.5141801238059998
2503484181.0,-0.6542379260063171,-0.1307137906551361,10.121870994567873,1.6364165544509888,-3.322434902191162,0.4911273121833801
2503492514.0,-0.4373523890972137,-0.0289459694176912,9.942014694213867,1.632138967514038,-3.519920587539673,0.5633081793785095
2503500847.0,-0.3535769879817962,0.27713742852211,9.92678928375244,1.7827250957489014,-3.059837818145752,0.380960464477539
2503509180.0,-0.6089665293693542,0.1450968235731125,10.088459014892578,1.7454309463500977,-2.587127685546875,0.4435873627662658
2503517513.0,-0.8385165929794312,-0.1322589069604873,10.255575180053713,1.5836511850357056,-2.967114210128784,0.3939725160598755
2503525846.0,-0.6959913372993469,-0.0974955037236213,10.069425582885742,1.7908705472946167,-3.493307590484619,0.5115674734115601
2503534179.0,-0.490056037902832,0.0307198781520128,9.89615535736084,1.8374114036560056,-3.357398509979248,0.4824953973293304
2503542512.0,-0.4916360378265381,0.3278835713863373,10.15490436553955,1.871068835258484,-2.970623731613159,0.3260436356067657
2503550845.0,-0.6450234055519104,0.1158458963036537,10.15562629699707,1.6125954389572144,-3.072645425796509,0.4846469759941101
2503559178.0,-0.6069049835205078,-0.1206791624426841,10.111010551452637,1.5475094318389893,-3.3443098068237305,0.6184556484222412
2503567511.0,-0.3817608654499054,-0.1078942790627479,9.811989784240724,1.6740436553955078,-3.3098323345184326,0.5071617960929871
2503575844.0,-0.4394047260284424,0.21323823928833,9.973966598510742,1.7625668048858645,-2.85182523727417,0.3750436305999756
2503584177.0,-0.7347217798233032,0.0991707295179367,10.154911994934082,1.7098782062530518,-2.829540252685547,0.387671411037445
2503592510.0,-0.8063464760780334,-0.0137193836271762,10.24705982208252,1.684289574623108,-3.100769519805908,0.5626423358917236
2503600843.0,-0.6124342083930969,-0.0208021681755781,10.016826629638672,1.6667182445526123,-3.4235856533050537,0.5563668012619019
2503609176.0,-0.4643023312091827,0.134226307272911,9.916760444641112,1.6863901615142822,-3.140958547592163,0.4230959713459015
2503617509.0,-0.5991474390029907,0.1284573376178741,10.085190773010254,1.6891309022903442,-2.8712661266326904,0.3899255096912384
2503625842.0,-0.6757551431655884,-0.1009931117296218,10.136590957641602,1.6560626029968262,-3.139805555343628,0.4995799958705902
2503634175.0,-0.4965755343437195,-0.0930972173810005,9.999306678771973,1.6539111137390137,-3.4799625873565674,0.4295251071453094
2503642508.0,-0.3394196629524231,0.1100381463766098,9.867016792297363,1.6960722208023071,-3.2005887031555176,0.3508894443511963
2503650841.0,-0.5175135731697083,0.226715475320816,10.021157264709473,1.7230182886123655,-2.664098024368286,0.3956886827945709
2503659174.0,-0.8401503562927246,-0.0133097851648926,10.17303466796875,1.6733778715133667,-2.715275526046753,0.4443301260471344
2503667507.0,-0.7729979157447815,-0.2172715663909912,10.165179252624512,1.6470208168029783,-3.378453493118286,0.559056282043457
2503675840.0,-0.5229514241218567,-0.0303344614803791,9.923002243041992,1.804574012756348,-3.4453320503234863,0.4993494749069214
2503684173.0,-0.4355484545230865,0.2760560214519501,10.009808540344238,1.968274593353272,-3.048900604248047,0.3970718383789062
2503692506.0,-0.6175771355628967,0.2162825018167495,10.168943405151367,1.6530275344848633,-2.908778429031372,0.5153968334197998
2503700839.0,-0.652836263179779,-0.0821577012538909,10.12767505645752,1.6452150344848633,-3.2583611011505127,0.5758975744247437
2503709172.0,-0.4307975471019745,-0.1152955442667007,9.939322471618652,1.6376972198486328,-3.4844448566436768,0.4901026785373688
2503717505.0,-0.3985479176044464,0.1126007363200187,9.872333526611328,1.8216204643249512,-3.03229022026062,0.3935499489307403
2503725838.0,-0.5889527797698975,0.2245271801948547,10.075403213500977,1.885873556137085,-2.6532633304595947,0.4014262855052948
2503734171.0,-0.7986305952072144,0.045819517225027,10.256592750549316,1.707214593887329,-2.849853038787842,0.5076228976249695
2503742504.0,-0.691655695438385,-0.0305240340530872,10.06517505645752,1.706676363945007,-3.349099636077881,0.4781408905982971
2503750837.0,-0.4808295965194702,0.0952856764197349,9.95974826812744,1.601991057395935,-3.2712066173553467,0.4880792498588562
2503759170.0,-0.5034713745117188,0.2124356031417846,10.015518188476562,1.7464810609817505,-2.8954720497131348,0.4539867639541626
2503767503.0,-0.6693625450134277,0.0091972900554537,10.127191543579102,1.6030924320220947,-3.0059969425201416,0.3728664219379425
2503775836.0,-0.5794496536254883,-0.1168169975280761,10.089433670043944,1.645688772201538,-3.361393928527832,0.5285240411758423
2503784169.0,-0.3727800846099853,0.0430492982268333,9.909697532653809,1.8010390996932983,-3.373561143875122,0.3604178726673126
2503792502.0,-0.4248103499412536,0.2377554774284362,9.946231842041016,1.7306771278381348,-2.793142795562744,0.3387226462364197
2503800835.0,-0.7235402464866638,0.1258769780397415,10.181401252746582,1.7014000415802002,-2.7252652645111084,0.4480186402797699
2503809168.0,-0.8260427117347717,-0.1661130040884018,10.201603889465332,1.6602377891540527,-3.16810941696167,0.4426908195018768
2503817501.0,-0.6009438633918762,-0.1248069107532501,10.00522232055664,1.7290376424789429,-3.542384624481201,0.532647967338562
2503825834.0,-0.4188022017478943,0.1727957129478454,9.934161186218262,1.811694622039795,-3.276278257369995,0.3424879014492035
2503834167.0,-0.5499023199081421,0.2855669558048248,10.133620262145996,1.7200983762741089,-2.844806671142578,0.3791931271553039
2503842500.0,-0.6757808327674866,0.0367580987513065,10.197845458984377,1.708111047744751,-3.0893971920013428,0.5177405476570129
2503850833.0,-0.5106421113014221,-0.1738158017396927,9.997235298156738,1.5052460432052612,-3.467027425765991,0.5299841165542603
2503859166.0,-0.3872725665569305,0.0139287058264017,9.882278442382812,1.6608781814575195,-3.2701308727264404,0.4338538944721222
2503867499.0,-0.5133536458015442,0.2107805162668228,10.007159233093262,1.7440990209579468,-2.756181240081787,0.4364665448665619
2503875832.0,-0.7783368825912476,0.105386771261692,10.239667892456056,1.6865694522857666,-2.789172410964966,0.4428445100784302
2503884165.0,-0.7776501178741455,-0.0392502844333648,10.189631462097168,1.6531425714492798,-3.252328872680664,0.4963526129722595
2503892498.0,-0.5249215364456177,0.0005113684455864,9.969771385192873,1.6131844520568848,-3.356476306915283,0.5601320862770081
2503900831.0,-0.4898924529552459,0.1601199805736541,9.946700096130373,1.8081603050231927,-3.0326359272003174,0.2928988039493561
2503909164.0,-0.6503830552101135,0.0918137952685356,10.156208992004396,1.657573938369751,-2.9153733253479004,0.5039344429969788
2503917497.0,-0.6363527178764343,-0.1181244179606437,10.110602378845217,1.6506836414337158,-3.2566065788269043,0.4677159488201141
2503925830.0,-0.4450991153717041,-0.0725189074873924,9.950394630432127,1.5914379358291626,-3.559699773788452,0.515204668045044
2503934163.0,-0.3521866500377655,0.2089956253767013,9.856308937072754,1.700068116188049,-3.017241954803467,0.3664372861385345
2503942496.0,-0.6027424335479736,0.164040982723236,10.098007202148438,1.788744568824768,-2.6541597843170166,0.4880280196666717
2503950829.0,-0.8507667779922485,-0.0890249907970428,10.23979377746582,1.661262273788452,-3.0432398319244385,0.4854665994644165
2503959162.0,-0.7350687980651855,-0.1777475178241729,10.081491470336914,1.674837946891785,-3.482498407363892,0.5480933785438538
2503967495.0,-0.4961739182472229,0.0670696943998336,9.974120140075684,1.7531918287277222,-3.3327319622039795,0.449196845293045
2503975828.0,-0.5045452117919922,0.3435665071010589,10.065953254699709,1.8366432189941408,-2.924262285232544,0.4090337455272674
2503984161.0,-0.6786907315254211,0.1402253359556198,10.16510772705078,1.6925373077392578,-2.9326376914978027,0.4233520627021789
2503992494.0,-0.6097012758255005,-0.1599930673837661,10.070598602294922,1.6945608854293823,-3.421536922454834,0.517151415348053
2504000827.0,-0.3890068829059601,-0.0340852998197078,9.86688995361328,1.7584171295166016,-3.3921315670013428,0.4257341921329498
2504009160.0,-0.4013046324253082,0.160512313246727,9.916092872619627,1.7746310234069824,-2.786149978637696,0.3311408460140228
2504017493.0,-0.6926267743110657,0.1694063246250152,10.189702987670898,1.694381594657898,-2.674702405929565,0.3392092883586883
2504025826.0,-0.832983672618866,0.0057317549362778,10.26020622253418,1.6566264629364014,-3.1561734676361084,0.4178450405597687
2504034159.0,-0.6466991305351257,-0.0554385036230087,10.015403747558594,1.5698963403701782,-3.468359470367432,0.6013710498809814
2504042492.0,-0.4395236670970917,0.1069348379969596,9.908679962158203,1.7009131908416748,-3.239086389541626,0.4194074869155884
2504050825.0,-0.5611447095870972,0.1436642706394195,10.06234359741211,1.6577019691467283,-2.780181884765625,0.4247352480888366
2504059158.0,-0.7041516304016113,-0.054055456072092,10.169367790222168,1.594050645828247,-3.1170599460601807,0.490589439868927
2504067491.0,-0.5338191390037537,-0.1324707120656967,10.02072048187256,1.7725305557250977,-3.436495304107666,0.6013197898864746
2504075824.0,-0.35568368434906,0.1013575494289398,9.90693187713623,1.7624897956848145,-3.3033525943756104,0.4198428988456726
2504084157.0,-0.4661836326122284,0.2006104737520218,9.974865913391112,1.798426389694214,-2.745525598526001,0.4720959663391113
2504092490.0,-0.787060558795929,-0.0106671722605824,10.180581092834473,1.7169220447540283,-2.7551825046539307,0.5172794461250305
2504100823.0,-0.7914537787437439,-0.2026490867137909,10.167520523071287,1.6003005504608154,-3.275074481964112,0.5775241255760193
2504109156.0,-0.5430414080619812,-0.0311240870505571,9.98852252960205,1.7930220365524292,-3.416849136352539,0.4586741030216217
2504117489.0,-0.4345759749412536,0.294641762971878,10.00387191772461,1.9112828969955444,-3.0449047088623047,0.4949182868003845
2504125822.0,-0.6110340356826782,0.2556370794773102,10.170231819152832,1.8349783420562744,-2.815376043319702,0.3900792300701141
2504134155.0,-0.6695675253868103,-0.0304784644395113,10.143406867980955,1.5920016765594482,-3.154329299926758,0.5565973520278931
2504142488.0,-0.4917592108249664,-0.1498090326786041,9.942923545837402,1.6451510190963743,-3.362879991531372,0.5051382780075073
2504150821.0,-0.3858812153339386,0.0642024874687194,9.846803665161133,1.7314711809158323,-3.138064384460449,0.3626207411289215
2504159154.0,-0.5766083002090454,0.2446253150701522,10.086325645446776,1.8232468366622925,-2.6307992935180664,0.4354931712150574
2504167487.0,-0.8138003945350647,0.0916011705994606,10.292953491210938,1.694535255432129,-2.779336452484131,0.4064210653305053
2504175820.0,-0.7440042495727539,-0.0516628585755825,10.129205703735352,1.560854434967041,-3.3635458946228027,0.5399993062019348
2504184153.0,-0.4739674031734466,0.042605210095644,9.94866943359375,1.6432812213897705,-3.4605982303619385,0.4395402669906616
2504192486.0,-0.4708247482776642,0.1309126615524292,9.952738761901855,1.7550106048583984,-2.864222288131714,0.4697138667106628
2504200819.0,-0.649635910987854,0.0204536914825439,10.12966251373291,1.603707194328308,-2.956791877746582,0.4556516408920288
2504209152.0,-0.6251654624938965,-0.1423934251070022,10.07847499847412,1.7070990800857544,-3.422702074050904,0.5863482356071472
2504217485.0,-0.3834702372550964,0.0047941859811544,9.923103332519531,1.7752585411071775,-3.416656970977783,0.4789221584796905
2504225818.0,-0.3830635547637939,0.1901504844427108,9.90182113647461,1.8010778427124023,-2.868922472000122,0.4304088354110718
2504234151.0,-0.68998783826828,0.1037358790636062,10.130728721618652,1.7084437608718872,-2.656567573547364,0.4062417447566986
2504242484.0,-0.8779429197311401,-0.1647525578737259,10.213800430297852,1.6953039169311523,-2.9774887561798096,0.4717886447906494
2504250817.0,-0.6664363741874695,-0.1954957991838455,10.062774658203123,1.6967381238937378,-3.5867228507995605,0.5591331124305725
2504259150.0,-0.4392254054546356,0.1337005347013473,9.948719024658203,1.8549827337265008,-3.356168746948242,0.4674597084522247
2504267483.0,-0.5209848880767822,0.3070031702518463,10.073076248168944,1.892661690711975,-2.7486255168914795,0.4079835712909698
2504275816.0,-0.6652248501777649,0.0899979099631309,10.182857513427734,1.742562174797058,-3.027820587158203,0.5255016684532166
2504284149.0,-0.5794317126274109,-0.1342288702726364,10.014223098754885,1.6615442037582395,-3.37678861618042,0.5839277505874634
2504292482.0,-0.3853637874126434,-0.0053312629461288,9.872793197631836,1.8009366989135742,-3.134759426116944,0.4925360381603241
2504300815.0,-0.4911982715129852,0.1971978396177292,9.97998046875,1.7897692918777466,-2.85874080657959,0.2565778195858001
2504309148.0,-0.7615726590156555,0.177707701921463,10.235647201538086,1.836284637451172,-2.78538179397583,0.4698163270950317
2504317481.0,-0.8347951173782349,0.0167685784399509,10.21303939819336,1.640386939048767,-3.203431844711304,0.4056783020496368
2504325814.0,-0.6027272939682007,0.0503645911812782,10.005075454711914,1.7009131908416748,-3.37133264541626,0.4971978664398193
2504334147.0,-0.5034996271133423,0.191365361213684,9.922651290893556,1.7628484964370728,-3.1505379676818848,0.382574200630188
2504342480.0,-0.6059285998344421,0.1510174125432968,10.08217430114746,1.75296151638031,-2.979973077774048,0.2906959950923919
2504350813.0,-0.6604880690574646,-0.0672494992613792,10.145264625549316,1.6477636098861694,-3.222001791000366,0.5273202061653137
2504359146.0,-0.4652950465679168,-0.0406363233923912,9.969922065734863,1.6964051723480225,-3.3921315670013428,0.4363897144794464
2504367479.0,-0.3567187190055847,0.1748102903366089,9.87640380859375,1.7669979333877563,-3.175588846206665,0.4837760627269745
2504375812.0,-0.5726799964904785,0.2277124226093292,10.077255249023438,1.704038143157959,-2.5736029148101807,0.3591627776622772
2504384145.0,-0.8132287859916687,-0.0363041199743747,10.216376304626465,1.632344126701355,-3.102614164352417,0.3828047811985016
2504392478.0,-0.7365232706069946,-0.1799528747797012,10.08716106414795,1.5256348848342896,-3.461955547332764,0.5457367897033691
2504400811.0,-0.4647676944732666,0.0366898477077484,9.91915798187256,1.7573412656784058,-3.527169704437256,0.28362637758255
2504409144.0,-0.4267796277999878,0.3187583982944488,10.025301933288574,1.76231050491333,-3.084709405899048,0.4097509086132049
2504417477.0,-0.5976769328117371,0.166465938091278,10.190876007080078,1.6471489667892456,-2.894370079040528,0.4934070110321045
2504425810.0,-0.5975930690765381,-0.1260942816734314,10.096610069274902,1.6316522359848022,-3.3131372928619385,0.4852873086929321
2504434143.0,-0.4040602743625641,-0.0985612645745277,9.896612167358398,1.5390055179595947,-3.4089341163635254,0.5672783851623535
2504442476.0,-0.3858223855495453,0.1480723917484283,9.91742706298828,1.7682788372039795,-3.0144498348236084,0.3430770933628082
2504450809.0,-0.6469088196754456,0.1710911840200424,10.12725067138672,1.758494257926941,-2.736125469207764,0.4559078216552734
2504459142.0,-0.8101698160171509,0.0439633093774318,10.293025016784668,1.6130820512771606,-3.032149076461792,0.3866981267929077
2504467475.0,-0.64570152759552,-0.0286729969084262,10.088826179504396,1.5251226425170898,-3.3898260593414307,0.6912257671356201
2504475808.0,-0.4585580825805664,0.0463319830596447,9.909683227539062,1.674914836883545,-3.235628366470337,0.5195847153663635
2504484141.0,-0.5454049110412598,0.1627728193998336,10.104053497314451,1.6366217136383057,-2.77698016166687,0.4670756161212921
2504492474.0,-0.6825864315032959,-0.0084524014964699,10.14695644378662,1.696277141571045,-2.943165302276612,0.535772979259491
2504500807.0,-0.5719093084335327,-0.2046190351247787,10.04254150390625,1.5817558765411377,-3.466181993484497,0.4839810132980346
2504509140.0,-0.3260247707366943,0.0987139046192169,9.948081970214844,1.7384636402130127,-3.318183183670044,0.4444325566291809
2504517473.0,-0.4516512751579284,0.1946384310722351,9.90504550933838,1.6376460790634155,-2.798957109451294,0.3636708855628967
2504525806.0,-0.7449079155921936,-0.0077904341742396,10.229079246520996,1.6583294868469238,-2.752326250076294,0.3621980845928192
2504534139.0,-0.8222154974937439,-0.2402707189321518,10.121298789978027,1.5788103342056274,-3.236422777175904,0.5164854526519775
2504542472.0,-0.6159521341323853,-0.0757091864943504,9.970133781433104,1.7893846035003662,-3.510955572128296,0.532161295413971
2504550805.0,-0.4505923688411712,0.1396794766187667,9.949102401733398,1.9249355792999268,-3.028614282608032,0.4122355282306671
2504559138.0,-0.636730968952179,0.2494667768478393,10.171493530273438,1.7427414655685425,-2.843705415725708,0.522786557674408
2504567471.0,-0.7044477462768555,-0.0463922619819641,10.18381118774414,1.5964328050613403,-3.242544651031494,0.454678326845169
2504575804.0,-0.5009737014770508,-0.2154730856418609,9.917864799499512,1.6304484605789185,-3.639641761779785,0.4716348648071289
2504584137.0,-0.3338363766670227,0.0241198055446147,9.876121520996094,1.7750920057296753,-3.2782504558563232,0.3885935246944427
2504592470.0,-0.5087504982948303,0.1565099209547042,10.055364608764648,1.82123601436615,-2.6346802711486816,0.3860193192958832
2504600803.0,-0.7839614152908325,0.1080894842743873,10.283040046691896,1.7687653303146362,-2.756206750869751,0.4533719420433044
2504609136.0,-0.77590411901474,-0.0851155892014503,10.159272193908691,1.6360578536987305,-3.3524293899536133,0.4892575144767761
2504617469.0,-0.5352743864059448,0.0589992366731166,9.948931694030762,1.772018313407898,-3.360369920730591,0.5201738476753235
2504625802.0,-0.518595814704895,0.1445076614618301,9.944786071777344,1.698249340057373,-3.0576095581054688,0.4419991970062256
2504634135.0,-0.6664175391197205,0.0562651678919792,10.126303672790527,1.7051395177841189,-2.9437286853790283,0.5542407631874084
2504642468.0,-0.6465186476707458,-0.1092591807246208,10.141701698303224,1.6259400844573977,-3.38680386543274,0.6382041573524475
2504650801.0,-0.3783282935619354,-0.0102721340954303,9.941713333129885,1.712849497795105,-3.579730033874512,0.5131299495697021
2504659134.0,-0.3486388027667999,0.2223476618528366,9.907758712768556,1.7961982488632202,-3.0027952194213867,0.4585204124450683
2504667467.0,-0.6258401870727539,0.1581003963947296,10.112794876098633,1.7186639308929443,-2.667709827423096,0.5250405669212341
2504675800.0,-0.8357343673706055,-0.1098138317465782,10.241676330566406,1.6850581169128418,-3.086246490478516,0.505522608757019
2504684133.0,-0.6725342869758606,-0.1644964665174484,10.039834976196287,1.6791410446166992,-3.485879421234131,0.5881285071372986
2504692466.0,-0.4525021016597748,0.1513916105031967,9.957491874694824,1.8111823797225952,-3.3555033206939697,0.3600080907344818
2504700799.0,-0.490929901599884,0.3452239632606506,10.047381401062012,1.839998722076416,-2.9427812099456787,0.4678952991962433
2504709132.0,-0.6744347810745239,0.1403392404317855,10.222147941589355,1.684008002281189,-3.1021785736083984,0.5272690653800964
2504717465.0,-0.5705191493034363,-0.1150948032736778,10.031269073486328,1.628809094429016,-3.381040334701538,0.6270876526832581
2504725798.0,-0.3498497605323791,0.0059640416875481,9.907882690429688,1.658982753753662,-3.374150276184082,0.4636432230472564
2504734131.0,-0.4288045465946197,0.2013803273439407,9.943669319152832,1.851422667503357,-2.841963529586792,0.353502094745636
2504742464.0,-0.7219229340553284,0.1869776248931884,10.226238250732422,1.7642830610275269,-2.7388663291931152,0.4796522259712219
2504750797.0,-0.8128420114517212,0.0161755587905645,10.220630645751951,1.6048344373703003,-3.0951602458953857,0.6271901726722717
2504759130.0,-0.5663220882415771,-0.0105936136096715,10.02446174621582,1.6277846097946167,-3.3606772422790527,0.5107221603393555
2504767463.0,-0.4507028460502624,0.1634346544742584,9.94519329071045,1.6790132522583008,-3.154662132263184,0.3234565854072571
2504775796.0,-0.5809540152549744,0.1301973462104797,10.093290328979492,1.7009131908416748,-2.820524215698242,0.3933834433555603
2504784129.0,-0.6973246932029724,-0.0647940263152122,10.146477699279783,1.512956142425537,-3.21032190322876,0.5977851152420044
2504792462.0,-0.4785424470901489,-0.0781496167182922,9.990344047546388,1.622482419013977,-3.5439982414245605,0.46295166015625
2504800795.0,-0.3638564050197601,0.1412810236215591,9.872310638427734,1.7281156778335571,-3.077922105789185,0.4681001901626587
2504809128.0,-0.5267032980918884,0.2087141424417495,10.045660018920898,1.7603639364242554,-2.5933518409729004,0.4202015101909637
2504817461.0,-0.8577659726142883,-0.0251942705363035,10.170991897583008,1.6021958589553833,-2.722677707672119,0.4527059495449066
2504825794.0,-0.7811709642410278,-0.2087064087390899,10.144472122192385,1.5750447511672974,-3.310959577560425,0.5206605195999146
2504834127.0,-0.5203127264976501,-0.0159158930182456,9.972270011901855,1.7356972694396973,-3.439927577972412,0.5226328372955322
2504842460.0,-0.4210904240608215,0.2603163719177246,10.020278930664062,1.7806504964828491,-3.058378458023072,0.2437962889671325
2504850793.0,-0.6211965084075928,0.1652096807956695,10.187169075012209,1.6553329229354858,-2.8537590503692627,0.4649880826473236
2504859126.0,-0.6457276940345764,-0.1206211373209953,10.127352714538574,1.4865607023239136,-3.255800008773804,0.5592740178108215
2504867459.0,-0.4557763934135437,-0.1644585877656936,9.91122817993164,1.6426408290863037,-3.392413377761841,0.4042182266712188
2504875792.0,-0.3929680585861206,0.0717033520340919,9.867430686950684,1.7962751388549805,-2.9509780406951904,0.3936139941215515
2504884125.0,-0.6603062152862549,0.1748345643281936,10.160651206970217,1.7406411170959473,-2.7483432292938232,0.3698951601982116
2504892458.0,-0.8529443144798279,0.0335704535245895,10.24763011932373,1.642666578292847,-2.9803061485290527,0.4781921803951263
2504900791.0,-0.7059725522994995,-0.1003639623522758,10.077333450317385,1.5911048650741575,-3.467360496520996,0.6049057245254517
2504909124.0,-0.482483834028244,0.0416518561542034,9.908145904541016,1.6087276935577393,-3.310037851333618,0.5508341789245605
2504917457.0,-0.5300717949867249,0.1313991099596023,10.04120635986328,1.8134877681732176,-2.9439079761505127,0.5270897150039673
2504925790.0,-0.6887626647949219,-0.0493987612426281,10.1573486328125,1.6645411252975464,-3.0222620964050293,0.4717885851860046
2504934123.0,-0.5830808281898499,-0.1459664702415466,10.099628448486328,1.7338275909423828,-3.388417482376098,0.5538821816444397
2504942456.0,-0.3622855842113495,0.0721959918737411,9.919328689575195,1.6747099161148071,-3.321230888366699,0.5563668012619019
2504950789.0,-0.4105300903320312,0.2150354385375976,9.948875427246094,1.7639756202697754,-2.7263920307159424,0.5406396389007568
2504959122.0,-0.7139201760292053,0.0493823811411857,10.14987087249756,1.66448974609375,-2.6080799102783203,0.4444837868213653
2504967455.0,-0.8430378437042236,-0.1989499777555465,10.17747402191162,1.532064437866211,-3.082660675048828,0.6270109415054321
2504975788.0,-0.6192852258682251,-0.1105101332068443,9.983386039733888,1.769072651863098,-3.550222396850586,0.5169464349746704
2504984121.0,-0.438795804977417,0.2305197417736053,9.99630641937256,1.8704793453216555,-3.226048469543457,0.4090336859226227
2504992454.0,-0.5772663950920105,0.3114618360996246,10.11241054534912,1.7711220979690552,-2.777261972427368,0.4034498631954193
2505000787.0,-0.642485499382019,0.0386738553643226,10.183355331420898,1.6731218099594116,-3.213190078735352,0.495225578546524
2505009120.0,-0.4897749125957489,-0.1653752624988556,9.947025299072266,1.6555248498916626,-3.4899778366088867,0.5729391574859619
2505017453.0,-0.3315806686878204,0.0377781204879283,9.838580131530762,1.811079740524292,-3.254659652709961,0.4060880541801452
2505025786.0,-0.5145113468170166,0.2132208049297332,9.99062442779541,1.853471755981445,-2.5858724117279053,0.3391068577766418
2505034119.0,-0.7666426301002502,0.1339073032140731,10.287678718566896,1.7089818716049194,-2.786559820175171,0.5435340404510498
2505042452.0,-0.7872715592384338,-0.0514893792569637,10.201164245605469,1.585828423500061,-3.224486351013184,0.4155396819114685
2505050785.0,-0.5164772272109985,0.048912938684225,9.977012634277344,1.681318283081055,-3.3506877422332764,0.4166411161422729
2505059118.0,-0.4512932598590851,0.1631245166063308,9.927566528320312,1.7587246894836426,-3.062220335006714,0.4719935655593872
2505067451.0,-0.5993920564651489,0.084713414311409,10.105074882507324,1.6341880559921265,-2.888991117477417,0.4626699090003967
2505075784.0,-0.6340428590774536,-0.0939349681138992,10.13188934326172,1.7246575355529783,-3.339186906814575,0.5356448292732239
2505084117.0,-0.4068149924278259,-0.047819085419178,9.985419273376465,1.6915384531021118,-3.4472789764404297,0.5323150753974915
2505092450.0,-0.3803758323192596,0.2423497885465622,9.907464981079102,1.7853120565414429,-3.0081229209899902,0.4407185316085815
2505100783.0,-0.6236162781715393,0.1972722262144088,10.082322120666504,1.7877711057662964,-2.681720495223999,0.3988136649131775
2505109116.0,-0.8679055571556091,-0.0844755098223686,10.234286308288574,1.5683469772338867,-2.9767842292785645,0.5510006546974182
2505117449.0,-0.724287211894989,-0.192431092262268,10.061450958251951,1.5862125158309937,-3.513491153717041,0.5859255194664001
2505125782.0,-0.4631956219673157,0.0860107243061065,9.934484481811523,1.8648954629898071,-3.3448729515075684,0.5493484735488892
2505134115.0,-0.4827554523944855,0.3288348019123077,10.02218532562256,1.7755786180496216,-3.03529953956604,0.3940493464469909
2505142448.0,-0.6667861342430115,0.1620324701070785,10.23773193359375,1.6657706499099731,-2.9417312145233154,0.579496443271637
2505150781.0,-0.6252232193946838,-0.118370771408081,10.056378364562988,1.6046290397644043,-3.450864553451538,0.4345966577529907
2505159114.0,-0.4168724417686462,-0.0634335651993751,9.883819580078123,1.6673840284347534,-3.432319641113281,0.4995543360710144
2505167447.0,-0.4217643737792969,0.1775012761354446,9.900736808776855,1.761234998703003,-2.881255865097046,0.3981989324092865
2505175780.0,-0.7014153599739075,0.166889026761055,10.183837890625,1.821377158164978,-2.657822608947754,0.4878743886947632
2505184113.0,-0.8508117198944092,0.0118922581896185,10.287498474121094,1.5201537609100342,-3.013118028640747,0.589870274066925
2505192446.0,-0.6628646850585938,-0.0429719910025596,10.055399894714355,1.637620449066162,-3.402146577835083,0.448146641254425
2505200779.0,-0.4782165586948395,0.1367905735969543,9.897835731506348,1.638260841369629,-3.172847986221313,0.5124896168708801
2505209112.0,-0.5508273839950562,0.1315778940916061,10.07453727722168,1.67693829536438,-2.829540252685547,0.457111656665802
2505217445.0,-0.655581533908844,-0.0930157899856567,10.151948928833008,1.6496593952178955,-3.220106601715088,0.4363385438919067
2505225778.0,-0.4900677800178528,-0.1453342288732528,10.032163619995115,1.661339282989502,-3.463774442672729,0.6240395903587341
2505234111.0,-0.3637386560440063,0.0876766964793205,9.8658447265625,1.6819586753845217,-3.244106769561768,0.4611842930316925
2505242444.0,-0.4852525591850281,0.1850748509168625,9.993850708007812,1.7529101371765137,-2.693733692169189,0.4205344915390014
2505250777.0,-0.8119180798530579,-0.0292599722743034,10.22593116760254,1.6784493923187256,-2.636562824249268,0.3052192032337188
2505259110.0,-0.7692878246307373,-0.2362628132104873,10.177438735961914,1.6319853067398071,-3.3095765113830566,0.5135654211044312
2505267443.0,-0.5195013880729675,-0.0542658232152462,9.970314025878906,1.74573814868927,-3.5123391151428223,0.4744012653827667
2505275776.0,-0.4006009995937347,0.2151696383953094,9.969141006469728,1.844532251358032,-3.0908570289611816,0.4518863260746002
2505284109.0,-0.6050950884819031,0.2120351046323776,10.16661262512207,1.75178325176239,-2.8803083896636963,0.4022203683853149
2505292442.0,-0.6291930675506592,-0.072075717151165,10.15335750579834,1.6857753992080688,-3.148258686065674,0.5187651515007019
2505300775.0,-0.4678354561328888,-0.1592734605073928,9.900453567504885,1.6398872137069702,-3.514554500579834,0.6535344123840332
2505309108.0,-0.3875733017921448,0.0658074393868446,9.836678504943848,1.7943284511566162,-3.1131927967071533,0.5208398699760437
2505317441.0,-0.6286115050315857,0.1923205107450485,10.12249755859375,1.8662277460098269,-2.5985770225524902,0.4694833159446716
2505325774.0,-0.8296318650245667,0.0658876448869705,10.261796951293944,1.6958929300308228,-2.9333295822143555,0.4430494606494903
2505334107.0,-0.7017666101455688,-0.0531479194760322,10.14398956298828,1.622072458267212,-3.418001413345337,0.5982459783554077
2505342440.0,-0.4689940214157104,0.062369767576456,9.95329761505127,1.7184333801269531,-3.376148223876953,0.4376704096794128
2505350773.0,-0.4596788883209228,0.1760311424732208,9.994118690490724,1.7245299816131592,-2.9585084915161133,0.3951508402824402
2505359106.0,-0.6451290249824524,0.0326429605484008,10.14096450805664,1.7257590293884275,-2.932253360748291,0.5095183253288269
2505367439.0,-0.5785860419273376,-0.1127781495451927,10.105109214782717,1.6648228168487549,-3.310037851333618,0.5332627296447754
2505375772.0,-0.3861966133117676,0.0332821309566497,9.899683952331545,1.677143096923828,-3.373663663864136,0.4878487288951874
2505384105.0,-0.3757387101650238,0.2236367315053939,9.889203071594238,1.8282160758972168,-2.799110651016236,0.3803713619709015
2505392438.0,-0.715925931930542,0.1258093118667602,10.116506576538086,1.776577711105347,-2.615303039550781,0.4344942569732666
2505400771.0,-0.88401859998703,-0.1435208022594452,10.22188663482666,1.7228388786315918,-3.212165594100952,0.3508893847465515
2505409104.0,-0.6361803412437439,-0.1115678995847702,10.047447204589844,1.654628038406372,-3.620046377182007,0.4047560691833496
2505417437.0,-0.4227266907691955,0.1712195575237274,9.973422050476074,1.8499624729156487,-3.2660071849823,0.4412564039230346
2505425770.0,-0.5295348167419434,0.3181534111499786,10.09548282623291,1.7943283319473269,-2.796293020248413,0.4283725023269653
2505434103.0,-0.6578677892684937,0.0319192744791507,10.171079635620115,1.6595462560653689,-3.0420615673065186,0.5531650185585022
2505442436.0,-0.5553262233734131,-0.1557964086532592,9.992863655090332,1.6929471492767334,-3.455270528793335,0.550193727016449
2505450769.0,-0.3450635969638824,-0.0008708431851118,9.873918533325195,1.7799328565597534,-3.3098065853118896,0.3885422646999359
2505459102.0,-0.4995569884777069,0.227905735373497,10.013960838317873,1.7716597318649292,-2.828643798828125,0.4757331907749176
2505467435.0,-0.7937540411949158,0.1618147641420364,10.277737617492676,1.845172882080078,-2.786662578582764,0.4822136163711548
2505475768.0,-0.8147715926170349,-0.0339021831750869,10.23116397857666,1.595203518867493,-3.2237439155578613,0.5101587176322937
2505484101.0,-0.5465987920761108,-0.0025484294164925,9.97414493560791,1.614593267440796,-3.5052695274353027,0.5296767950057983
2505492434.0,-0.4557293355464935,0.1555892676115036,9.911253929138184,1.6703556776046753,-3.1388070583343506,0.5116955637931824
2505500767.0,-0.6103011965751648,0.1097836345434188,10.128095626831056,1.682010054588318,-2.946341753005981,0.4645398557186126
2505509100.0,-0.6752559542655945,-0.0817399844527244,10.172566413879396,1.607523798942566,-3.21208930015564,0.5085706114768982
2505517433.0,-0.4234765470027923,-0.0380336940288543,9.961979866027832,1.7968897819519043,-3.4900033473968506,0.5146155953407288
2505525766.0,-0.3535411953926086,0.1679730266332626,9.888529777526855,1.673864722251892,-3.059377193450928,0.3780917823314667
2505534099.0,-0.5807006359100342,0.1717773079872131,10.076327323913574,1.7215838432312012,-2.65830945968628,0.3262997567653656
2505542432.0,-0.8609613180160522,-0.0963819921016693,10.229214668273926,1.7489912509918213,-2.9296669960021973,0.5250405669212341
2505550765.0,-0.6908374428749084,-0.1982017904520034,10.067784309387209,1.689437985420227,-3.432678699493408,0.6265242099761963
2505559098.0,-0.4631591737270355,0.0725154131650924,9.945917129516602,1.7563936710357666,-3.5641567707061768,0.4572397172451019
2505567431.0,-0.4507173895835876,0.325990229845047,10.022257804870604,1.815690755844116,-2.9296157360076904,0.4021691083908081
2505575764.0,-0.6583464741706848,0.1450388580560684,10.208581924438477,1.6014275550842283,-2.941269636154175,0.4424346685409546
2505584097.0,-0.6213873624801636,-0.1509196311235427,10.067362785339355,1.5924113988876345,-3.3979716300964355,0.536464512348175
2505592430.0,-0.3978430032730102,-0.0928675234317779,9.904576301574709,1.642999291419983,-3.417719602584839,0.4792678654193878
2505600763.0,-0.3835396468639374,0.1607931852340698,9.89110279083252,1.798964500427246,-2.857510805130005,0.2927963137626648
2505609096.0,-0.661632776260376,0.1744208186864853,10.198235511779783,1.716896414756775,-2.642505407333374,0.4036547541618347
2505617429.0,-0.8329454064369202,0.0146013442426919,10.26707363128662,1.7117482423782349,-3.1211588382720947,0.5366695523262024
2505625762.0,-0.629873514175415,-0.0578190349042415,10.069095611572266,1.5460749864578247,-3.5027592182159424,0.5814431309700012
2505634095.0,-0.4618583023548126,0.1039355918765068,9.905841827392578,1.631217122077942,-3.1472342014312744,0.2520697116851806
2505642428.0,-0.5541253685951233,0.128954991698265,10.088019371032717,1.706369161605835,-2.84424352645874,0.4630029499530792
2505650761.0,-0.6746099591255188,-0.0715539753437042,10.16414737701416,1.6256331205368042,-3.128919839859009,0.4815220534801483
2505659094.0,-0.4972960650920868,-0.1168515607714653,10.02180004119873,1.6262476444244385,-3.3953332901000977,0.5666124820709229
2505667427.0,-0.3364782631397247,0.1064525246620178,9.88217067718506,1.7416654825210571,-3.2360639572143555,0.3808324337005615
2505675760.0,-0.499172031879425,0.2086578160524368,10.012255668640137,1.7291659116744995,-2.65979528427124,0.3958936333656311
2505684093.0,-0.8015671372413635,-0.0122479880228638,10.177206993103027,1.6495825052261353,-2.6778531074523926,0.4507593512535095
2505692426.0,-0.7997031807899475,-0.2158901393413543,10.116905212402344,1.6870813369750977,-3.207350015640259,0.500604510307312
2505700759.0,-0.5552825927734375,-0.026333849877119,9.979825019836426,1.7528845071792605,-3.533470869064331,0.4714299738407135
2505709092.0,-0.4572779834270477,0.2626905143260956,10.015047073364258,1.8395633697509768,-3.0444438457489014,0.411723256111145
2505717425.0,-0.6337053775787354,0.2238054275512695,10.130342483520508,1.785312294960022,-2.8597145080566406,0.4441764950752258
2505725758.0,-0.6486749649047852,-0.0723394975066185,10.11428165435791,1.6757087707519531,-3.2112181186676025,0.6912769675254822
2505734091.0,-0.4598921239376068,-0.1364173144102096,9.9696044921875,1.6535909175872805,-3.473597526550293,0.452769935131073
2505742424.0,-0.3274817764759063,0.0603081211447715,9.867984771728516,1.7935470342636108,-3.0320849418640137,0.4243125915527344
2505750757.0,-0.592652440071106,0.2006550431251526,10.10934066772461,1.7231464385986328,-2.710383176803589,0.3550645411014557
2505759090.0,-0.8174304366111755,0.0942510813474655,10.285614967346191,1.6656936407089231,-2.853566884994507,0.3743008077144623
2505767423.0,-0.6910114288330078,-0.0611164979636669,10.075722694396973,1.5981487035751345,-3.465003490447998,0.5472480654716492
2505775756.0,-0.5270645022392273,0.0667324289679527,9.954651832580566,1.6134918928146362,-3.315749406814575,0.4102888107299804
2505784089.0,-0.5502750873565674,0.2322769165039062,10.023329734802246,1.666077971458435,-2.9982359409332275,0.4352371096611023
2505792422.0,-0.7001168727874756,-0.044849332422018,10.106672286987305,1.622815728187561,-3.0894484519958496,0.4182804822921753
2505800755.0,-0.5717431306838989,-0.0890969857573509,10.167486190795898,1.6875425577163696,-3.3580644130706787,0.4661790430545807
2505809088.0,-0.3544440269470215,0.0483209751546382,9.840483665466309,1.6742486953735352,-3.3454363346099854,0.4384644031524658
2505817421.0,-0.3806578516960144,0.2523727118968963,9.979211807250977,1.8028578758239744,-2.8034138679504395,0.4622600674629211
2505825754.0,-0.691241979598999,0.0478950962424278,10.113402366638184,1.6058074235916138,-2.674241304397583,0.4508105218410492
2505834087.0,-0.8327515721321106,-0.1260225623846054,10.225008010864258,1.5827676057815552,-3.127959489822388,0.5457497239112854
2505842420.0,-0.6146345734596252,-0.1308926343917846,9.98672103881836,1.6883878707885742,-3.47586441040039,0.4598523676395416
2505850753.0,-0.4516568779945373,0.221298336982727,10.00271987915039,1.8293430805206297,-3.225433826446533,0.3350341618061065
2505859086.0,-0.5731028914451599,0.3150912523269653,10.119254112243652,1.8051888942718504,-2.9405782222747803,0.4678952991962433
2505867419.0,-0.6769807934761047,0.0182885769754648,10.19948387145996,1.5051950216293335,-3.2012290954589844,0.5091085433959961
2505875752.0,-0.5165896415710449,-0.1370937228202819,9.954813957214355,1.5967912673950195,-3.469665765762329,0.5631033182144165
2505884085.0,-0.3321665227413177,0.0052138385362923,9.842900276184082,1.6442289352416992,-3.253891468048096,0.4151810705661773
2505892418.0,-0.493300199508667,0.2145867198705673,10.036836624145508,1.788949489593506,-2.7010083198547363,0.4023996293544769
2505900751.0,-0.7420085668563843,0.1329955905675888,10.26412868499756,1.886924147605896,-2.7545166015625,0.5047284960746765
2505909084.0,-0.7504910826683044,-0.0323815830051898,10.191065788269045,1.6473537683486938,-3.2137539386749268,0.5127713084220886
2505917417.0,-0.532041072845459,0.0304484665393829,9.988987922668455,1.6111866235733032,-3.4314749240875244,0.5659465193748474
2505925750.0,-0.492494136095047,0.154526948928833,9.953048706054688,1.71620512008667,-3.0614264011383057,0.4189208447933197
2505934083.0,-0.6601962447166443,0.0777830481529235,10.150619506835938,1.564645528793335,-2.917423248291016,0.3962522149085998
2505942416.0,-0.6359158158302307,-0.1312156915664672,10.143696784973145,1.6095472574234009,-3.424917697906494,0.6215294003486633
2505950749.0,-0.4115716516971588,-0.0241777971386909,9.940389633178713,1.742561936378479,-3.4939992427825928,0.4474806785583496
2505959082.0,-0.3588170111179352,0.1776008158922195,9.920083045959473,1.6509398221969604,-2.979357957839966,0.3314994275569916
2505967415.0,-0.6006579995155334,0.1268049329519271,10.086853981018066,1.666820764541626,-2.552855491638184,0.3757352530956268
2505975748.0,-0.8652117252349854,-0.1520656794309616,10.19543170928955,1.6925119161605835,-3.0323283672332764,0.5244258642196655
2505984081.0,-0.6605954766273499,-0.1849082559347152,10.066795349121094,1.707495927810669,-3.4371097087860107,0.5082119703292847
2505992414.0,-0.4768405556678772,0.0968586131930351,9.944076538085938,1.7534992694854736,-3.310652256011963,0.4266819357872009
2506000747.0,-0.5170861482620239,0.2936069667339325,10.089054107666016,1.9438899755477903,-2.816579818725586,0.3605972230434418
2506009080.0,-0.6946619749069214,0.0719948634505271,10.179865837097168,1.6428457498550415,-3.098592519760132,0.5925084352493286
2506017413.0,-0.5971046090126038,-0.1533205062150955,10.025131225585938,1.664387345314026,-3.3727669715881348,0.5860792994499207
2506025746.0,-0.4172470867633819,-0.0408273972570896,9.858962059020996,1.7354923486709597,-3.289879560470581,0.5207374095916748
2506034079.0,-0.4714109599590301,0.173648864030838,9.959442138671877,1.808928608894348,-2.7762372493743896,0.3112898170948028
2506042412.0,-0.7379366159439087,0.1208970844745636,10.220111846923828,1.8228626251220703,-2.704363822937012,0.3872359991073608
2506050745.0,-0.8060591816902161,-0.0032109140884131,10.160049438476562,1.7287049293518066,-3.153816938400269,0.510235607624054
2506059078.0,-0.5755633115768433,-0.0123529713600873,9.977997779846191,1.625530481338501,-3.411956787109375,0.5325199961662292
2506067411.0,-0.4567244052886963,0.1434159129858017,9.911428451538086,1.6838284730911257,-3.114626884460449,0.4166667461395263
2506075744.0,-0.5832424759864807,0.1080975234508514,10.12386417388916,1.6994022130966189,-2.93107533454895,0.4260159730911255
2506084077.0,-0.6559963226318359,-0.1003205254673957,10.136746406555176,1.7278848886489868,-3.230403184890747,0.4662046432495117
2506092410.0,-0.4762709438800812,-0.0425687953829765,10.018301010131836,1.7208410501480105,-3.43652081489563,0.3985062539577484
2506100743.0,-0.3405616879463196,0.1805960685014724,9.884109497070312,1.7708656787872314,-3.1199545860290527,0.3947665691375732
2506109076.0,-0.5324695110321045,0.1989229768514633,10.065311431884766,1.8587994575500488,-2.7188613414764404,0.4671267867088318
2506117409.0,-0.8528411388397217,-0.0709990188479423,10.19396686553955,1.649505615234375,-2.9297690391540527,0.4964807331562042
2506125742.0,-0.7378937005996704,-0.224233403801918,10.09319305419922,1.7474030256271362,-3.2734861373901367,0.5780619978904724
