SampleTimeFine,Acc_X,Acc_Y,Acc_Z,Gyr_X,Gyr_Y,Gyr_Z
2498209392.0,0.0,0.0,0.0,0.0,0.0,0.0
2498217725.0,-0.0292374137789011,-0.3596669435501098,9.50943374633789,0.9295661449432372,-1.7937263250350952,0.3332155346870422
2498226058.0,-0.1052183210849762,-0.1523197889328003,9.463261604309082,1.1037428379058838,-1.1359529495239258,0.2440268099308014
2498234391.0,-0.3747159242630005,-0.0877010598778724,9.539924621582031,1.20876145362854,-0.9161314964294434,0.2008156031370163
2498242724.0,-0.5036579966545105,-0.2701912522315979,9.65742301940918,0.976926863193512,-1.421295404434204,0.2131872624158859
2498251057.0,-0.3384154438972473,-0.2972615957260132,9.648488998413086,0.8766856789588928,-1.6872097253799438,0.3494422137737274
2498259390.0,-0.1774823665618896,-0.1522656828165054,9.530277252197266,0.9691913723945618,-1.5235730409622192,0.3471753299236297
2498267723.0,-0.1926545053720474,-0.1160308122634887,9.451274871826172,0.9646064043045044,-1.536072850227356,0.2108819931745529
2498276056.0,-0.2813818156719208,-0.3503476679325104,9.52931308746338,0.8711658120155334,-1.6752864122390747,0.2783755362033844
2498284389.0,-0.1758460402488708,-0.3498307168483734,9.560779571533203,0.9182704091072084,-1.828766703605652,0.2378537654876709
2498292722.0,-0.1487030535936355,-0.1809120625257492,9.505873680114746,0.8427083492279053,-1.7278977632522583,0.2520440816879272
2498301055.0,-0.2380859106779098,-0.0854041576385498,9.449109077453612,0.9486486911773682,-1.3821312189102173,0.280860036611557
2498309388.0,-0.3632071316242218,-0.3151613473892212,9.498690605163574,0.7642775177955627,-1.328520655632019,0.1140345707535743
2498317721.0,-0.3602395951747894,-0.5489547848701477,9.62364387512207,0.7963721752166748,-1.6269009113311768,0.3253263831138611
2498326054.0,-0.3157069087028503,-0.3783707022666931,9.61320972442627,0.953361749649048,-1.80171811580658,0.3612375259399414
2498334387.0,-0.2193493098020553,-0.104200392961502,9.531553268432615,1.169340968132019,-1.7308179140090942,0.2963823080062866
2498342720.0,-0.2069106847047805,-0.0444016307592392,9.444785118103027,0.8666960597038269,-1.7657941579818726,0.2136867493391037
2498351053.0,-0.2329564243555069,-0.3202382326126098,9.493488311767578,0.6996016502380371,-1.981555700302124,0.1285834610462188
2498359386.0,-0.2404611706733703,-0.5127882361412048,9.578085899353027,0.6514723896980286,-2.061574697494507,0.3047581911087036
2498367719.0,-0.1328744888305664,-0.2425442337989807,9.489952087402344,0.9155935645103456,-2.0113320350646973,0.4053068459033966
2498376052.0,-0.1901200413703918,-0.1049539893865585,9.435295104980469,0.9403370022773744,-1.6885417699813845,0.4639122784137726
2498384385.0,-0.3454975187778473,-0.2989135086536407,9.555529594421388,0.8856377601623535,-1.770699143409729,0.290286123752594
2498392718.0,-0.4112212359905243,-0.3380401730537414,9.710323333740234,0.7655838131904602,-1.968979001045227,0.3744800686836242
2498401051.0,-0.2974698543548584,-0.2256084978580474,9.59913730621338,0.7717825174331665,-2.2532970905303955,0.520532488822937
2498409384.0,-0.2407879680395126,-0.1714351326227188,9.56199550628662,0.926466941833496,-2.298455238342285,0.3798078894615173
2498417717.0,-0.1184250116348266,-0.2467100769281387,9.467535972595217,0.8041717410087585,-2.236071348190308,0.3759016692638397
2498426050.0,-0.2244628816843032,-0.3414500653743744,9.536914825439451,0.6361551880836487,-2.3689966201782227,0.4690991044044494
2498434383.0,-0.1560708284378051,-0.3606553077697754,9.599331855773926,0.8262384533882141,-2.5093626976013184,0.4608257114887237
2498442716.0,-0.1310376226902008,-0.0060737472958862,9.483990669250488,0.7814902663230896,-2.092413902282715,0.5610285401344299
2498451049.0,-0.3550488650798797,-0.20342418551445,9.551877975463867,0.8599210381507874,-2.071051597595215,0.477603018283844
2498459382.0,-0.4227939546108246,-0.481238454580307,9.632007598876951,1.0400404930114746,-2.425014972686768,0.1898527145385742
2498467715.0,-0.3196753859519958,-0.5538380146026611,9.655890464782717,1.1276410818099976,-2.7378416061401367,0.3301419019699096
2498476048.0,0.0279318559914827,-0.2300732284784317,9.500030517578123,1.198361873626709,-2.4506547451019287,0.2726891636848449
2498484381.0,0.0130370985716581,-0.0744951069355011,9.390945434570312,1.3261771202087402,-1.7846847772598269,0.1912102848291397
2498492714.0,-0.1300996392965316,-0.2203250229358673,9.408703804016112,1.2862058877944946,-1.604936599731445,0.1201179474592208
2498501047.0,-0.2995817363262176,-0.4172572493553161,9.606426239013672,1.3150988817214966,-1.709955096244812,0.1136887818574905
2498509380.0,-0.2484892904758453,-0.3423215746879577,9.63947868347168,1.3925563097000122,-2.1091275215148926,0.2360992282629013
2498517713.0,-0.1402352601289749,-0.1980237811803817,9.524356842041016,1.5690513849258425,-1.8586843013763428,0.3415658473968506
2498526046.0,-0.1208755522966384,-0.1870757341384887,9.438173294067385,1.7043967247009275,-1.5898369550704956,0.1724094003438949
2498534379.0,-0.2385525703430175,-0.3174889981746673,9.524645805358888,1.451661229133606,-1.4897879362106323,0.1520973294973373
2498542712.0,-0.3145577907562256,-0.391862690448761,9.6610107421875,1.325126886367798,-1.4651727676391602,0.1182865500450134
2498551045.0,-0.2699673175811767,-0.2121957093477249,9.580562591552734,1.4382903575897217,-1.5600477457046509,0.2317063510417938
2498559378.0,-0.1253147274255752,-0.2004416286945343,9.43189525604248,1.5103689432144165,-1.537763237953186,0.2712034881114959
2498567711.0,-0.0849124267697334,-0.3201032280921936,9.40721321105957,1.3643934726715088,-1.411408543586731,0.1340905278921127
2498576044.0,-0.0850633084774017,-0.4435914754867553,9.561927795410156,1.3378057479858398,-1.3960397243499756,-0.0422250628471374
2498584377.0,-0.0090226801112294,-0.242198184132576,9.434557914733888,1.4050945043563845,-1.1547536849975586,0.0226685982197523
2498592710.0,-0.091062843799591,-0.1869538575410843,9.35593318939209,1.4641096591949463,-0.6559421420097351,0.0410083904862403
2498601043.0,-0.2685248255729675,-0.3414982557296753,9.445122718811035,1.5189497470855713,-0.6591183543205261,-0.097449354827404
2498609376.0,-0.3858036398887634,-0.5235830545425415,9.71324062347412,1.489519119262695,-0.9254552125930786,-0.0666098222136497
2498617709.0,-0.2437476515769958,-0.3210621476173401,9.673489570617676,1.5604192018508911,-1.2084667682647705,-0.1030588746070861
2498626042.0,-0.0335774794220924,-0.0219295024871826,9.369287490844728,1.825987458229065,-0.9022741913795472,-0.0454780720174312
2498634375.0,-0.0326624810695648,-0.1476687788963318,9.307899475097656,1.74919593334198,-0.6332991719245911,-0.2338451296091079
2498642708.0,-0.1167089715600013,-0.4685288071632385,9.487564086914062,1.7805352210998535,-0.5198409557342529,-0.256808340549469
2498651041.0,-0.0717653930187225,-0.3485144376754761,9.598796844482422,1.7253106832504272,-0.4344173967838287,-0.1617282778024673
2498659374.0,-0.0994729921221733,-0.0553583204746246,9.48350429534912,1.8710687160491943,-0.1438623517751693,-0.1034687086939811
2498667707.0,-0.2765694260597229,0.0129015995189547,9.495023727416992,1.724542498588562,0.0089521752670407,-0.1383424997329712
2498676040.0,-0.472767025232315,-0.2345489561557769,9.696803092956545,1.3412381410598757,-0.4158855378627777,-0.2944740355014801
2498684373.0,-0.40341317653656,-0.3519699573516845,9.762965202331545,1.2853223085403442,-0.8193864822387695,-0.0447096452116966
2498692706.0,-0.1923798471689224,-0.1931747198104858,9.566390991210938,1.450175404548645,-0.8549903631210327,-0.0268309097737073
2498701039.0,-0.1879838705062866,-0.1946574747562408,9.444270133972168,1.4830642938613892,-0.745207667350769,-0.2159407883882522
2498709372.0,-0.242781788110733,-0.4113242328166961,9.558237075805664,1.3791728019714355,-0.8590373992919922,-0.1650197058916092
2498717705.0,-0.1422387212514877,-0.4925921559333801,9.597743034362791,1.4019181728363037,-1.0755544900894165,-0.2263145595788955
2498726038.0,-0.0634314119815826,-0.2400279492139816,9.46912670135498,1.4497145414352417,-0.6971297860145569,0.03434868901968
2498734371.0,-0.2516584694385528,-0.10837272554636,9.473726272583008,1.5122387409210205,-0.4243125915527344,-0.0453243888914585
2498742704.0,-0.3768619298934936,-0.3392271399497986,9.688214302062988,1.5518511533737185,-0.7220907807350159,-0.2231512069702148
2498751037.0,-0.3572196662425995,-0.4186020493507385,9.749751091003418,1.2727200984954834,-1.122044324874878,-0.1639183014631271
2498759370.0,-0.1575862914323806,-0.2608944177627563,9.623111724853516,1.502313494682312,-1.021009087562561,-0.0442614033818244
2498767703.0,-0.1558318436145782,0.084911398589611,9.475678443908691,1.3674286603927612,-0.6657395958900452,-0.231347769498825
2498776036.0,-0.3020073473453522,-0.0526806898415088,9.558423042297363,1.244083285331726,-0.7973583340644836,-0.1090013682842254
2498784369.0,-0.2697061896324157,-0.3192233145236969,9.678677558898926,1.204586148262024,-1.3434793949127195,-0.0065188226290047
2498792702.0,-0.0881788060069084,-0.3907419145107269,9.60546588897705,1.0181530714035034,-1.418746829032898,-0.0520481206476688
2498801035.0,-0.0490828081965446,-0.1799011528491974,9.393084526062012,1.2887674570083618,-0.8684250116348267,0.0078763775527477
2498809368.0,-0.2200858294963836,-0.1382286846637725,9.430315017700195,1.1913948059082031,-0.6693127751350403,-0.1728064268827438
2498817701.0,-0.3856240212917328,-0.2807849049568176,9.652668952941896,1.1103259325027466,-0.9671550393104552,-0.1438879519701004
2498826034.0,-0.3003550171852112,-0.3473635017871856,9.68592929840088,1.066166877746582,-1.0568305253982544,-0.1077974885702133
2498834367.0,-0.1781129539012909,-0.1501524299383163,9.522957801818848,1.312268614768982,-0.9831640124320984,-0.0440436787903308
2498842700.0,-0.2063809782266616,-0.1117917820811271,9.444127082824709,1.3047378063201904,-0.8167482614517212,-0.1940918713808059
2498851033.0,-0.1635999530553817,-0.2811280786991119,9.480356216430664,1.2168809175491333,-0.9843165278434752,-0.3219068646430969
2498859366.0,0.0007653541979379,-0.3783138692378998,9.53159236907959,1.23468279838562,-0.9552699327468872,-0.1415314376354217
2498867699.0,0.0558493994176387,-0.1949364244937896,9.406538963317873,1.400509476661682,-0.4802285134792328,-0.0799292251467704
2498876032.0,-0.2305790483951568,-0.0793894007802009,9.404672622680664,1.386549711227417,0.076279193162918,-0.1122543737292289
2498884365.0,-0.5075584650039673,-0.2115096300840377,9.57280158996582,1.2512553930282593,-0.318884402513504,-0.2691159546375274
2498892698.0,-0.5414630770683289,-0.4676242470741272,9.781262397766112,0.997700035572052,-1.212769865989685,-0.1486265957355499
2498901031.0,-0.2633745074272156,-0.3615997731685638,9.642434120178224,1.24713134765625,-1.5960612297058103,-0.042660504579544
2498909364.0,-0.0893657952547073,-0.1018862277269363,9.417866706848145,1.1829421520233154,-1.198656439781189,-0.1136887818574905
2498917697.0,-0.1920896023511886,-0.1111837923526763,9.37824249267578,1.086350917816162,-1.1609266996383667,-0.1094368174672126
2498926030.0,-0.2374617755413055,-0.3954503238201141,9.525458335876465,0.938326358795166,-1.397269368171692,-0.1217060610651969
2498934363.0,-0.0676374956965446,-0.4790219664573669,9.557244300842283,1.0550376176834106,-1.523406744003296,-0.1081433072686195
2498942696.0,0.0483317598700523,-0.283774733543396,9.338980674743652,1.2147294282913208,-1.0136961936950684,-0.1079511865973472
2498951029.0,-0.1603095531463623,-0.1519907265901565,9.396001815795898,1.2735397815704346,-0.6435448527336121,-0.0626396089792251
2498959362.0,-0.3980628550052643,-0.2803342342376709,9.627119064331056,1.2606558799743652,-0.7498438954353333,-0.1561827957630157
2498967695.0,-0.3569525480270386,-0.3802354633808136,9.718721389770508,1.24544095993042,-1.1958134174346924,-0.0915068536996841
2498976028.0,-0.1697270721197128,-0.2654125094413757,9.497989654541016,1.284989356994629,-1.2178672552108765,0.0112958783283829
2498984361.0,-0.1400025933980941,-0.2322170436382293,9.385173797607422,1.1741052865982056,-1.0166159868240356,-0.0330039411783218
2498992694.0,-0.2297850847244262,-0.3620697557926178,9.49427604675293,1.1752067804336548,-0.9183087944984436,-0.05377709120512
2499001027.0,-0.1848837286233902,-0.4831612110137939,9.61935329437256,1.093164324760437,-1.3090795278549194,0.09318458288908
2499009360.0,-0.0220936127007007,-0.3499388098716736,9.431839942932127,1.2598105669021606,-1.3231675624847412,0.001357554574497
2499017693.0,-0.0779730975627899,-0.2684748768806457,9.303732872009276,1.2806861400604248,-0.816594660282135,-0.1342057734727859
2499026026.0,-0.218025803565979,-0.3687934279441833,9.420172691345217,1.4212570190429688,-0.6594768762588501,-0.1030844822525978
2499034359.0,-0.2911493182182312,-0.5685938000679016,9.65810489654541,1.365341305732727,-0.850866436958313,-0.1639439165592193
2499042692.0,-0.2258221060037613,-0.50010085105896,9.686487197875977,1.542975664138794,-0.964286208152771,-0.2321033626794815
2499051025.0,-0.1887974143028259,-0.0760521963238716,9.501687049865724,1.5654395818710327,-0.7945150136947632,0.0307626947760581
2499059358.0,-0.3841935098171234,0.0215515047311782,9.578213691711426,1.0755161046981812,-0.9977128505706788,0.0814276561141014
2499067691.0,-0.399636298418045,-0.274387925863266,9.700461387634276,0.7784037590026855,-1.6814208030700684,0.0966809317469596
2499076024.0,-0.1927262246608734,-0.5189838409423828,9.718799591064451,0.6108482480049133,-2.1546566486358643,0.2058615982532501
2499084357.0,0.0496284626424312,-0.2085889279842376,9.4325532913208,0.7630992531776428,-1.910271167755127,0.2939745783805847
2499092690.0,-0.2135452032089233,-0.1061825826764106,9.45212459564209,0.6980392336845398,-1.5367902517318726,0.285521924495697
2499101023.0,-0.459197461605072,-0.2197334021329879,9.645537376403809,0.6101566553115845,-1.8276907205581665,0.0929028242826461
2499109356.0,-0.4710410535335541,-0.3837124407291412,9.810649871826172,0.5193798542022705,-2.418483257293701,0.1824758350849151
2499117689.0,-0.3700820505619049,-0.4532670080661773,9.809070587158203,0.9169897437095642,-2.732564926147461,0.240133449435234
2499126022.0,-0.0894145965576171,-0.2579074800014496,9.430583000183104,1.6114171743392944,-2.45780086517334,0.1322206705808639
2499134355.0,-0.1354544758796692,-0.1716878116130828,9.391666412353516,1.5959718227386477,-2.084883689880371,0.1665693819522857
2499142688.0,-0.1496716737747192,-0.2686350643634796,9.590655326843262,1.5855724811553955,-2.001739740371704,0.4223531484603882
2499151021.0,0.1276034861803054,-0.3975357413291931,9.61664581298828,1.4045820236206057,-1.6699841022491455,0.5877185463905334
2499159354.0,0.007696486543864,-0.1996447443962097,9.483460426330566,1.2493855953216553,-1.301958680152893,0.5658696293830872
2499167687.0,-0.1969892978668213,-0.2364515364170074,9.399558067321776,1.241547465324402,-0.8312459588050842,0.273944228887558
2499176020.0,-0.3395812213420868,-0.316062718629837,9.549674034118652,1.1186504364013672,-1.0448943376541138,0.1175693273544311
2499184353.0,-0.3498097956180572,-0.6304157972335815,9.776033401489258,0.9666044116020204,-1.2898430824279783,0.1630602180957794
2499192686.0,-0.109939195215702,-0.0336112082004547,9.616997718811035,1.18622088432312,-1.093587040901184,0.195487841963768
2499201019.0,-0.3136378526687622,0.0219449214637279,9.616303443908691,0.9725468158721924,-1.012722730636597,0.0282012708485126
2499209352.0,-0.2354085743427276,-0.1731907576322555,9.52584171295166,0.9574856758117676,-1.3971924781799316,-0.0020363316871225
2499217685.0,-0.1234221309423446,-0.2925942838191986,9.620702743530272,0.8143022060394287,-1.5057456493377686,-0.1847426891326904
2499226018.0,-0.0278258044272661,-0.312302678823471,9.662014961242676,0.9872238039970398,-1.4670937061309814,-0.0400990843772888
2499234351.0,-0.0022531454451382,-0.1252892017364502,9.480635643005373,1.023186206817627,-0.9116235375404358,0.0956691652536392
2499242684.0,-0.1850941181182861,-0.1490008682012558,9.62867832183838,0.9075891375541688,-0.485248863697052,0.0821448415517807
2499251017.0,-0.4322964549064636,-0.2466442883014679,9.740111351013184,0.8713449835777283,-0.7616520524024963,-0.0994984954595565
2499259350.0,-0.3815111815929413,-0.2262301295995712,9.787607192993164,0.8283515572547913,-1.019446611404419,0.0106170997023582
2499267683.0,-0.2965640425682068,-0.1984770894050598,9.630258560180664,0.8986498117446899,-1.248885989189148,0.0102713080123066
2499276016.0,-0.1644438654184341,-0.2675234675407409,9.515841484069824,0.77273029088974,-1.3100273609161377,-0.089944377541542
2499284349.0,-0.0976505950093269,-0.4293064475059509,9.608390808105469,0.6030360460281372,-1.3837194442749023,-0.0520609319210052
2499292682.0,-0.0493045449256897,-0.346712589263916,9.546756744384766,1.141908049583435,-1.1094164848327637,0.0980256721377372
2499301015.0,-0.1566758751869201,-0.1790356636047363,9.392047882080078,1.0824064016342163,-0.8382386565208435,-0.0357958935201168
2499309348.0,-0.3391234278678894,-0.2542263567447662,9.46030044555664,0.9215232729911804,-0.8009955286979675,-0.0821576565504074
2499317681.0,-0.4301505088806152,-0.5667197704315186,9.67431354522705,0.9714198112487792,-1.1324692964553833,-0.0825930908322334
2499326014.0,-0.3177639245986938,-0.6172484755516052,9.661622047424316,1.119905710220337,-1.28912615776062,-0.0671733394265174
2499334347.0,-0.1923060268163681,-0.2130995839834213,9.412745475769045,1.233811855316162,-1.1505786180496216,-0.0942219570279121
2499342680.0,-0.2673661112785339,-0.1521481275558471,9.366790771484377,1.19270122051239,-1.1030641794204712,-0.0261393282562494
2499351013.0,-0.2950522899627685,-0.3539145588874817,9.524251937866213,1.201512575149536,-1.2880758047103882,-0.1809005290269851
2499359346.0,-0.188059315085411,-0.5582730770111084,9.509927749633787,1.0131198167800903,-1.447473168373108,-0.201443150639534
2499367679.0,-0.0137441428378224,-0.3991208076477051,9.26181983947754,1.2551230192184448,-1.2389988899230957,-0.021170163527131
2499376012.0,-0.2165308594703674,-0.3201326429843902,9.367348670959473,1.3058136701583862,-0.9667963981628418,-0.0798523798584938
2499384345.0,-0.2508430480957031,-0.3207120299339294,9.427404403686523,1.168188452720642,-1.0483522415161133,-0.2148649990558624
2499392678.0,-0.3333063423633575,-0.484553188085556,9.59825038909912,1.1644742488861084,-1.2721693515777588,-0.0058016241528093
2499401011.0,-0.1988203376531601,-0.3748395442962646,9.474392890930176,1.0995936393737793,-1.316584587097168,-0.0232449192553758
2499409344.0,-0.2080942094326019,-0.2921513319015503,9.369945526123049,1.242674469947815,-1.3356157541275024,-0.0697603672742843
2499417677.0,-0.2142952531576156,-0.3974394500255584,9.41590976715088,1.124464988708496,-1.3996258974075315,-0.158616155385971
2499426010.0,-0.125205397605896,-0.5695759057998657,9.51279354095459,1.2266913652420044,-1.598136067390442,-0.0149971349164843
2499434343.0,0.0419738590717315,-0.4616058468818664,9.405572891235352,1.1896532773971558,-1.475623369216919,0.0230528134852647
2499442676.0,0.0319114215672016,-0.268485426902771,9.249669075012209,1.360576868057251,-1.1591081619262695,-0.0568251870572567
2499451009.0,-0.1471053212881088,-0.3690796196460724,9.369152069091797,1.2957472801208496,-0.9512999057769777,-0.140558123588562
2499459342.0,-0.2521734833717346,-0.6238495111465454,9.565768241882324,1.1477738618850708,-1.211847901344299,-0.1251127421855926
2499467675.0,-0.1494656056165695,-0.7092725038528442,9.664156913757324,1.328226089477539,-1.453646183013916,-0.1361524611711502
2499476008.0,-0.0403618030250072,-0.3837666809558868,9.447006225585938,1.566054344177246,-1.2380000352859497,-0.0186599697917699
2499484341.0,-0.1041526421904563,-0.2439412027597427,9.39393711090088,1.5435136556625366,-0.9938962459564208,-0.1773145347833633
2499492674.0,-0.1084623336791992,-0.4344702661037445,9.513660430908203,1.4929001331329346,-1.3913012742996216,-0.2080772519111633
2499501007.0,0.015622510574758,-0.586511492729187,9.534866333007812,1.445667386054993,-1.4005223512649536,-0.139968991279602
2499509340.0,0.1396241188049316,-0.5481584072113037,9.411273956298828,1.5941272974014282,-1.2305206060409546,0.1213090196251869
2499517673.0,0.0770730674266815,-0.2721079289913177,9.336095809936523,1.7387710809707642,-0.7513295412063599,-0.0564409606158733
2499526006.0,-0.1854725480079651,-0.3685151934623718,9.54323673248291,1.6723276376724243,-0.6864998936653137,-0.1322590857744217
2499534339.0,-0.2347535043954849,-0.4897242188453674,9.686470985412598,1.5157222747802734,-1.013030171394348,-0.1294671446084976
2499542672.0,-0.1233318746089935,-0.4098287522792816,9.568860054016112,1.7609658241271973,-1.1901652812957764,-0.1008432433009147
2499551005.0,-0.0124494601041078,-0.2139505892992019,9.41713047027588,1.7661272287368774,-0.9412335753440856,0.0587590560317039
2499559338.0,-0.0869733095169067,-0.2618713676929474,9.477895736694336,1.5876470804214478,-0.7547874450683594,-0.0855643451213836
2499567671.0,-0.1038086712360382,-0.4732365608215332,9.605025291442873,1.6280021667480469,-1.087682843208313,-0.1840894818305969
2499576004.0,0.0206394307315349,-0.4450293183326721,9.598773002624512,1.7203800678253174,-1.098351240158081,0.0620120614767074
2499584337.0,0.0855010747909545,-0.158763974905014,9.373944282531738,1.8287283182144165,-0.8424649238586426,0.0490256436169147
2499592670.0,-0.0922133028507232,-0.0843703299760818,9.37023639678955,1.617743968963623,-0.4724674522876739,0.0459007136523723
2499601003.0,-0.3534061908721924,-0.3260815143585205,9.596004486083984,1.5990709066390991,-0.5229017734527588,-0.2295931875705719
2499609336.0,-0.3257769346237182,-0.4913250207901001,9.719514846801758,1.5670530796051023,-0.949916660785675,-0.101009726524353
2499617669.0,-0.1525380611419677,-0.2903766930103302,9.544097900390623,1.7632583379745483,-1.0046286582946775,-0.0291874203830957
2499626002.0,-0.139553040266037,-0.0174855273216962,9.421782493591309,1.7393858432769775,-0.6678526997566223,-0.0115392124280333
2499634335.0,-0.2421178519725799,-0.1006681099534034,9.508713722229004,1.6046550273895264,-0.7463091015815735,0.0012550975661724
2499642668.0,-0.2066190987825393,-0.3530575633049011,9.619552612304688,1.576146364212036,-1.0708156824111938,-0.0480138808488845
2499651001.0,-0.077967919409275,-0.3765150904655456,9.544243812561035,1.4823981523513794,-1.1351587772369385,0.040342416614294
2499659334.0,-0.0549123510718345,-0.1821870654821396,9.387993812561035,1.5813716650009155,-0.7272264957427979,0.1265855431556701
2499667667.0,-0.2755968272686004,-0.1608952432870865,9.50420379638672,1.6312425136566162,-0.4981584250926971,-0.0282140783965587
2499676000.0,-0.4558776021003723,-0.3368468582630157,9.683079719543455,1.554271936416626,-0.7280206680297852,-0.1189653277397155
2499684333.0,-0.3434570133686065,-0.3192570805549621,9.649579048156738,1.4355497360229492,-1.0119030475616455,0.0284830294549465
2499692666.0,-0.2035575956106186,-0.1582366228103637,9.53573226928711,1.5291441679000854,-1.016103982925415,-0.0123332543298602
2499700999.0,-0.2601892054080963,-0.1231917291879654,9.546160697937012,1.4988040924072266,-0.8426058292388916,-0.1242290437221527
2499709332.0,-0.3183099627494812,-0.3305336833000183,9.641671180725098,1.4496121406555176,-0.993819534778595,-0.244859293103218
2499717665.0,-0.1630199253559112,-0.3419966995716095,9.56846046447754,1.470794916152954,-1.3788527250289917,-0.0232449173927307
2499725998.0,-0.0189548749476671,-0.2268309444189071,9.441554069519045,1.3454644680023191,-1.08206045627594,0.0451066680252552
2499734331.0,-0.1239238008856773,-0.1236281171441078,9.392051696777344,1.535598874092102,-0.7131130695343018,-0.0106939431279897
2499742664.0,-0.3905952870845794,-0.2688753604888916,9.563279151916504,1.5029664039611816,-0.6105024814605713,-0.2141734212636947
2499750997.0,-0.4114515483379364,-0.5265360474586487,9.651399612426758,1.385960578918457,-1.0690997838974,-0.2133537679910659
2499759330.0,-0.2175117880105972,-0.3933654427528381,9.58475112915039,1.4923876523971558,-1.2805452346801758,-0.1226025372743606
2499767663.0,-0.1041363999247551,-0.0930027589201927,9.49265193939209,1.616309404373169,-1.119149923324585,-0.0938889756798744
2499775996.0,-0.1854706555604934,-0.0420196019113063,9.502948760986328,1.5218952894210815,-0.8980734944343567,-0.1660442948341369
2499784329.0,-0.2233132123947143,-0.3071067929267883,9.5980863571167,1.3016129732131958,-1.1938153505325315,-0.2468827962875366
2499792662.0,-0.044400155544281,-0.4089094698429107,9.547419548034668,1.2480792999267578,-1.3596162796020508,-0.1711158901453018
2499800995.0,0.0931371673941612,-0.238962173461914,9.417447090148926,1.305890440940857,-1.047250747680664,-0.0963479429483413
2499809328.0,-0.0573872588574886,-0.2173176705837249,9.442338943481444,1.211348295211792,-0.6718485355377197,-0.1514953672885894
2499817661.0,-0.3034021258354187,-0.3736287653446197,9.625022888183594,1.284528136253357,-0.8025580048561096,-0.1305429339408874
2499825994.0,-0.2530854642391205,-0.526872456073761,9.686745643615724,1.4115235805511477,-1.090026617050171,-0.2146344631910324
2499834327.0,-0.0531241632997989,-0.3467555344104767,9.53342342376709,1.2752559185028076,-1.0413339138031006,0.1096033081412315
2499842660.0,-0.0600169226527214,-0.2553915679454803,9.48855686187744,1.4119718074798584,-0.9493404030799866,-0.0209268294274806
2499850993.0,-0.1549769192934036,-0.4394044578075409,9.543476104736328,1.4580520391464231,-0.8501877784729004,-0.0649833232164383
2499859326.0,-0.101956158876419,-0.5606473088264465,9.594714164733888,1.4819114208221436,-1.2205822467803955,-0.1737285405397415
2499867659.0,0.0696944966912269,-0.4610646963119507,9.447039604187012,1.551326036453247,-1.1127463579177856,0.0634208396077156
2499875992.0,0.0555554591119289,-0.2172519564628601,9.327656745910645,1.5684494972229004,-0.6689670085906982,-0.1118061542510986
2499884325.0,-0.237553060054779,-0.3536795079708099,9.520092010498049,1.5484957695007324,-0.4417943656444549,-0.0430831424891948
2499892658.0,-0.3900583684444427,-0.548589825630188,9.660134315490724,1.5374689102172852,-0.8229982852935791,-0.1778012365102768
2499900991.0,-0.246449202299118,-0.4860484302043915,9.615602493286133,1.6405918598175049,-1.080318808555603,-0.0051356544718146
2499909324.0,-0.1050530076026916,-0.1372057646512985,9.482531547546388,1.700605869293213,-0.9783997535705566,-0.0091827027499675
2499917657.0,-0.1679859012365341,-0.0376486033201217,9.494667053222656,1.5125718116760254,-0.7981266975402832,-0.1200411096215248
2499925990.0,-0.2777011394500732,-0.2873276174068451,9.57197093963623,1.4519939422607422,-0.9223045706748962,-0.1784671694040298
2499934323.0,-0.1300303041934967,-0.4736492931842804,9.537982940673828,1.424228310585022,-1.105907320976257,-0.0833359137177467
2499942656.0,-0.0125057194381952,-0.2937179505825043,9.392170906066896,1.5138524770736694,-0.9574216604232788,-0.012896766886115
2499950989.0,-0.1365191638469696,-0.139122799038887,9.404593467712402,1.517489671707153,-0.5002331733703613,-0.013229751959443
2499959322.0,-0.3891433477401733,-0.2233188301324844,9.598377227783203,1.4434388875961304,-0.5537669062614441,-0.1814384311437606
2499967655.0,-0.4200362265110016,-0.3907849490642547,9.707178115844728,1.4301197528839111,-1.089181423187256,-0.2754170894622803
2499975988.0,-0.2375055104494094,-0.3409523665904999,9.559209823608398,1.4481008052825928,-1.1593642234802246,-0.0292130298912525
2499984321.0,-0.1554682850837707,-0.2036065757274627,9.460927963256836,1.38296377658844,-0.9837020039558412,-0.1084378883242607
2499992654.0,-0.2359587401151657,-0.3064574003219604,9.53304386138916,1.4430419206619265,-0.8879942297935486,-0.1110633164644241
2500000987.0,-0.2183869481086731,-0.4974610209465027,9.629117965698242,1.413419246673584,-1.1265779733657837,-0.2109460234642028
2500009320.0,-0.0405306033790111,-0.4213940799236297,9.530019760131836,1.4567583799362185,-1.315150022506714,-0.0714509040117263
2500017653.0,0.0034091458655893,-0.223899096250534,9.391627311706545,1.5865458250045776,-0.8554258942604065,-0.1052104830741882
2500025986.0,-0.2263445407152176,-0.2216594815254211,9.504091262817385,1.481629729270935,-0.4034881889820099,-0.0369229167699813
2500034319.0,-0.4197325706481933,-0.467990517616272,9.693591117858888,1.501070857048035,-0.9004043340682983,-0.2275696396827697
2500042652.0,-0.2975454926490783,-0.5597562789916992,9.700855255126951,1.5557576417922974,-1.251012086868286,-0.059104848653078
2500050985.0,-0.0613167881965637,-0.2659777402877807,9.527180671691896,1.6321390867233276,-1.176449179649353,0.0027407235465943
2500059318.0,-0.0935093760490417,-0.0109363226220011,9.458545684814451,1.5005332231521606,-0.8630845546722412,-0.0512668974697589
2500067651.0,-0.1864658594131469,-0.1786720901727676,9.513324737548828,1.520947813987732,-0.7655967473983765,-0.1604091674089431
2500075984.0,-0.162463366985321,-0.420712262392044,9.593428611755373,1.482090711593628,-1.171505570411682,-0.2551818192005157
2500084317.0,0.0374745018780231,-0.3828264772891998,9.472079277038574,1.4897496700286863,-1.1241447925567627,0.0077867275103926
2500092650.0,0.0375667326152324,-0.1399596780538559,9.420608520507812,1.474291205406189,-0.7910188436508179,-0.0094516519457101
2500100983.0,-0.2104008793830871,-0.1128647103905677,9.529109954833984,1.441812515258789,-0.5136935114860535,-0.135089486837387
2500109316.0,-0.3597593903541565,-0.3425067365169525,9.620752334594728,1.3506128787994385,-0.9048100113868712,-0.1995220780372619
2500117649.0,-0.1989099383354187,-0.3845775127410888,9.601490020751951,1.296823024749756,-1.1374129056930542,-0.0547504238784313
2500125982.0,-0.0465998351573944,-0.2309633195400238,9.460007667541504,1.5079100131988523,-0.955475091934204,0.0549937672913074
2500134315.0,-0.1303676962852478,-0.2269382923841476,9.466503143310549,1.3651106357574463,-0.7538141012191772,-0.0603343285620212
2500142648.0,-0.1990183293819427,-0.4290328919887543,9.61346435546875,1.3434666395187378,-1.081599473953247,-0.1141498461365699
2500150981.0,-0.0493086762726306,-0.4727608263492584,9.549728393554688,1.4075276851654053,-1.2716827392578125,-0.1326176971197128
2500159314.0,0.1123431771993637,-0.2880431115627289,9.397911071777344,1.4702316522598269,-0.9818065166473388,0.0103737656027078
2500167647.0,-0.0167305003851652,-0.1902656257152557,9.346161842346191,1.5354195833206177,-0.4642964005470276,0.0567611344158649
2500175980.0,-0.3312123417854309,-0.4660578668117523,9.605453491210938,1.3022788763046265,-0.5829159617424011,-0.1455272585153579
2500184313.0,-0.3405377566814422,-0.6210575103759766,9.725221633911133,1.4827569723129272,-1.05908465385437,-0.1070034727454185
2500192646.0,-0.1425522565841674,-0.4324530959129333,9.571255683898926,1.5714462995529177,-1.0720839500427246,-0.0131401037797331
2500200979.0,-0.104320541024208,-0.0951642170548439,9.43584156036377,1.5085886716842651,-0.8979326486587524,-0.0047642476856708
2500209312.0,-0.2421707957983017,-0.1567254811525344,9.477005004882812,1.5167981386184692,-0.7919281125068665,-0.1303892731666565
2500217645.0,-0.264950692653656,-0.4713410139083862,9.563427925109863,1.4363694190979004,-1.1156407594680786,-0.1599480807781219
2500225978.0,-0.0866983085870742,-0.5263596177101135,9.51607608795166,1.4483569860458374,-1.236437439918518,-0.0506009198725223
2500234311.0,0.0143737029284238,-0.3027050197124481,9.417802810668944,1.4817321300506592,-0.8220760226249695,-0.0030096725095063
2500242644.0,-0.1793636232614517,-0.1470211148262024,9.518978118896484,1.6272852420806885,-0.4625674784183502,-0.0953874066472053
2500250977.0,-0.4324179589748382,-0.3048684597015381,9.658133506774902,1.4867271184921265,-0.7181078195571899,-0.1483192443847656
2500259310.0,-0.3718075454235077,-0.4299120008945465,9.660268783569336,1.428992509841919,-1.1901013851165771,-0.1040322184562683
2500267643.0,-0.1387245655059814,-0.3617883324623108,9.491777420043944,1.3862680196762085,-1.144713044166565,-0.096655324101448
2500275976.0,-0.1313261985778808,-0.2511649131774902,9.45500659942627,1.3399319648742676,-0.7838851809501648,-0.0602574832737445
2500284309.0,-0.25132617354393,-0.395029604434967,9.580214500427246,1.476455807685852,-0.8007394075393677,-0.2453971952199936
2500292642.0,-0.2191855013370514,-0.4890869855880737,9.629916191101074,1.4589354991912842,-1.152730107307434,-0.164404958486557
2500300975.0,-0.020502682775259,-0.3194595575332641,9.446914672851562,1.4864581823349,-1.215088129043579,-0.190083235502243
2500309308.0,-0.0226103272289037,-0.1330592632293701,9.377573013305664,1.52166485786438,-0.7861136198043823,0.004584948066622
2500317641.0,-0.2654720246791839,-0.2620619535446167,9.518112182617188,1.5904134511947632,-0.5967220067977905,-0.00575039582327
2500325974.0,-0.421049416065216,-0.5593941807746887,9.68100643157959,1.576377034187317,-0.909753680229187,-0.2055926769971847
2500334307.0,-0.2278535068035125,-0.5205137729644775,9.597282409667969,1.7373112440109253,-1.2680199146270752,-0.0976030528545379
2500342640.0,-0.0574503205716609,-0.1673292219638824,9.46056079864502,1.6151055097579956,-0.9327294826507568,0.0368332713842392
2500350973.0,-0.1357867270708084,0.0475075431168079,9.476862907409668,1.565746784210205,-0.7278668284416199,-0.0519840866327285
2500359306.0,-0.2774962484836578,-0.2273344695568084,9.560879707336426,1.5647225379943848,-0.9685127139091492,-0.1886872798204422
2500367639.0,-0.1367509216070175,-0.4694306552410126,9.57800006866455,1.593256592750549,-1.2283433675765991,-0.1547227799892425
2500375972.0,0.0544786974787712,-0.3669466078281402,9.45019245147705,1.4644426107406616,-1.1424332857131958,-0.1066704839468002
2500384305.0,0.0023532265331596,-0.1136527061462402,9.3861722946167,1.6177822351455688,-0.6276511549949646,0.0315951593220233
2500392638.0,-0.2933166325092315,-0.1744363754987716,9.596440315246582,1.5771068334579468,-0.4215078353881836,-0.1471793800592422
2500400971.0,-0.3665578365325928,-0.310380756855011,9.699389457702637,1.516977310180664,-0.8845235705375671,-0.0764200687408447
2500409304.0,-0.1864251345396042,-0.313071072101593,9.546771049499512,1.4142132997512815,-1.1810083389282229,-0.2116120159626007
2500417637.0,-0.0485079512000083,-0.1551492512226104,9.411103248596191,1.4967167377471924,-1.0041933059692385,-0.1094368249177932
2500425970.0,-0.1393731385469436,-0.2203075587749481,9.510977745056152,1.469898343086243,-0.7921074032783508,-0.1055178418755531
2500434303.0,-0.1916792243719101,-0.4637733995914459,9.614175796508787,1.5143903493881226,-1.0197666883468628,-0.1757776737213134
2500442636.0,-0.0422922633588314,-0.4228066205978393,9.533263206481934,1.4107296466827393,-1.2481688261032104,-0.0811843201518058
2500450969.0,0.0621295943856239,-0.1723978221416473,9.407769203186035,1.479811191558838,-0.755043625831604,0.0269974023103714
2500459302.0,-0.1507820039987564,-0.1268842369318008,9.43763828277588,1.3685940504074097,-0.4351218044757843,-0.1709621995687484
2500467635.0,-0.3998582363128662,-0.4343778491020202,9.661824226379396,1.3801974058151243,-0.710013747215271,-0.2120730578899383
2500475968.0,-0.3266383707523346,-0.6085608005523682,9.691758155822754,1.4765326976776123,-1.1268854141235352,-0.1816945821046829
2500484301.0,-0.0628642290830612,-0.3595435321331024,9.475868225097656,1.618333101272583,-1.16692054271698,-0.0915580913424491
2500492634.0,-0.0651112347841262,-0.0488937273621559,9.39031982421875,1.6095472574234009,-0.7341167330741882,-0.0493202060461044
2500500967.0,-0.2341840714216232,-0.1748655587434768,9.506392478942873,1.4241513013839722,-0.7277899384498596,-0.1611775606870651
2500509300.0,-0.2619538307189941,-0.4774073660373688,9.59471321105957,1.269646406173706,-1.1549841165542605,-0.2370725125074386
2500517633.0,-0.0359357260167598,-0.4772879183292389,9.48918914794922,1.3606023788452148,-1.22790789604187,-0.0568507947027683
2500525966.0,-0.0235927086323499,-0.2814470529556274,9.40798282623291,1.5020956993103027,-0.7964363098144531,-0.081619769334793
2500534299.0,-0.2481178790330886,-0.1908449679613113,9.503716468811035,1.5143134593963623,-0.2896585464477539,-0.1250102669000625
2500542632.0,-0.4492038488388061,-0.3724268674850464,9.676234245300291,1.5478938817977903,-0.8817571997642517,-0.0886124372482299
2500550965.0,-0.2968920767307281,-0.4743001461029053,9.6285400390625,1.4073868989944458,-1.252100706100464,-0.1903393864631652
2500559298.0,-0.0491746589541435,-0.2839145958423614,9.457467079162598,1.5032994747161863,-1.1062660217285156,-0.0692480877041816
2500567631.0,-0.1078004986047744,-0.2213733345270156,9.466072082519531,1.4444122314453125,-0.6492055654525757,-0.0154069606214761
2500575964.0,-0.2540332078933716,-0.4227544665336609,9.627233505249023,1.301075100898743,-0.849790632724762,-0.0948623195290565
2500584297.0,-0.1710220426321029,-0.5447556972503662,9.595561027526855,1.42686665058136,-1.1888206005096436,-0.2503150999546051
2500592630.0,0.0214126333594322,-0.3873641192913055,9.459590911865234,1.4848827123641968,-1.1641796827316284,0.0679545626044273
2500600963.0,-0.0227889567613601,-0.1587215811014175,9.381525993347168,1.462649703025818,-0.5343257784843445,0.056300088763237
2500609296.0,-0.3436512053012848,-0.315540462732315,9.536669731140137,1.4682847261428833,-0.5177277326583862,-0.0368204601109027
2500617629.0,-0.4316088855266571,-0.6687624454498291,9.709192276000977,1.451072096824646,-1.0133376121520996,-0.1984206736087799
2500625962.0,-0.1559847295284271,-0.4782917201519012,9.59628963470459,1.5728164911270142,-1.3241406679153442,-0.2265451103448867
2500634295.0,-0.0125022111460566,-0.1555718928575515,9.441483497619627,1.6299360990524292,-0.9802182912826538,0.0785076320171356
2500642628.0,-0.1271155327558517,-0.1153094619512558,9.42571258544922,1.5244567394256592,-0.7365244626998901,0.0264338888227939
2500650961.0,-0.2594407498836517,-0.3718709647655487,9.578742980957031,1.5793482065200806,-0.9836506843566896,-0.123601496219635
2500659294.0,-0.0809940844774246,-0.4947508573532104,9.48964500427246,1.53242290019989,-1.274577260017395,-0.0423275232315063
2500667627.0,0.0313287898898124,-0.3696384131908417,9.468646049499512,1.6560627222061155,-1.0167186260223389,0.0242822952568531
2500675960.0,-0.0565289184451103,-0.132055789232254,9.43807601928711,1.6310632228851318,-0.3792827725410461,0.0232321098446846
2500684293.0,-0.3609753847122192,-0.2276749908924102,9.603614807128906,1.533575415611267,-0.5915735960006714,-0.1138424724340438
2500692626.0,-0.3761819005012512,-0.4438909590244293,9.68198299407959,1.5314496755599976,-1.0146695375442505,-0.0624603182077407
2500700959.0,-0.1236088573932647,-0.3157038390636444,9.542719841003418,1.492208480834961,-1.228676438331604,-0.0440692901611328
2500709292.0,-0.0585844740271568,-0.1563757807016372,9.3951997756958,1.5809106826782229,-0.7816056609153748,0.0934407338500022
2500717625.0,-0.1930694580078125,-0.268823891878128,9.538721084594728,1.546203374862671,-0.7744336724281311,-0.2434761226177215
2500725958.0,-0.2125092893838882,-0.4478380978107452,9.580026626586914,1.465364933013916,-1.068613052368164,-0.1548764854669571
2500734291.0,-0.0291920062154531,-0.3606215119361877,9.526835441589355,1.5404144525527954,-1.1971197128295898,-0.0849239826202392
2500742624.0,0.0199778899550437,-0.160059168934822,9.40339183807373,1.4259443283081057,-0.7104235887527466,-0.0024717734195291
2500750957.0,-0.1996787637472152,-0.1570549756288528,9.458175659179688,1.4362924098968506,-0.3951123654842376,-0.0328246392309665
2500759290.0,-0.4741133153438568,-0.4699274599552154,9.701489448547363,1.5605216026306152,-0.763137698173523,-0.2575126886367798
2500767623.0,-0.2944143116474151,-0.529199481010437,9.6517333984375,1.5522996187210083,-1.2562628984451294,-0.0855643525719642
2500775956.0,-0.0550632551312446,-0.2343472391366958,9.496806144714355,1.5185399055480957,-1.145660638809204,0.0575039573013782
2500784289.0,-0.1009165570139885,0.0255303364247083,9.423175811767578,1.5937175750732422,-0.7580660581588745,-0.0043159984052181
2500792622.0,-0.2882238030433655,-0.2141489684581756,9.57470989227295,1.4620349407196045,-0.7622412443161011,-0.1406861990690231
2500800955.0,-0.2455949783325195,-0.482656717300415,9.607094764709473,1.497689962387085,-1.2193785905838013,-0.1819251179695129
2500809288.0,0.0282832607626914,-0.3680347502231598,9.477228164672852,1.4022767543792725,-1.298244595527649,-0.0915836989879608
2500817621.0,-0.0141125591471791,-0.1642507314682006,9.408563613891602,1.414853572845459,-0.7158538103103638,0.0291489996016025
2500825954.0,-0.2761640548706054,-0.1583496779203415,9.566657066345217,1.4271994829177856,-0.4084573984146118,-0.1242418512701988
2500834287.0,-0.4226258993148803,-0.3518856167793274,9.719416618347168,1.4882380962371826,-0.941438376903534,-0.2126109451055526
2500842620.0,-0.253452718257904,-0.3993290960788727,9.598969459533691,1.4283777475357056,-1.338228464126587,-0.1107687577605247
2500850953.0,-0.0512833222746849,-0.2245764732360839,9.451184272766112,1.462752103805542,-1.0558315515518188,-0.1218084990978241
2500859286.0,-0.1507890820503235,-0.1822186708450317,9.46297550201416,1.336166501045227,-0.758936882019043,-0.0412261039018631
2500867619.0,-0.2779643535614013,-0.42762491106987,9.611855506896973,1.5575504302978516,-1.0864663124084473,-0.2091274410486221
2500875952.0,-0.1206927523016929,-0.4673919677734375,9.597651481628418,1.481040596961975,-1.3232697248458862,-0.122115857899189
2500884285.0,0.0667709410190582,-0.267568826675415,9.381738662719728,1.4703083038330078,-1.0479680299758911,0.0943884551525116
2500892618.0,-0.0699977204203605,-0.1605598628520965,9.39517307281494,1.514082908630371,-0.5542279481887817,0.051049169152975
2500900951.0,-0.3627135157585144,-0.4210091829299927,9.604101181030272,1.468079686164856,-0.5947496891021729,-0.1612287759780883
2500909284.0,-0.3384991586208343,-0.6193348169326782,9.700953483581545,1.4915168285369873,-1.1008100509643557,-0.1736773252487182
2500917617.0,-0.0864395722746849,-0.4426969587802887,9.515666961669922,1.5389289855957031,-1.2460685968399048,-0.0156631059944629
2500925950.0,-0.0106246192008256,-0.1023454815149307,9.377792358398438,1.6366726160049438,-0.8011491894721985,-0.0488847643136978
2500934283.0,-0.175959825515747,-0.1513184607028961,9.49712371826172,1.4936683177947998,-0.5722603797912598,-0.1981132924556732
2500942616.0,-0.2650253176689148,-0.4679162800312042,9.604546546936035,1.450329065322876,-1.0033223628997805,-0.1778524518013
2500950949.0,-0.0535454787313938,-0.5311058163642883,9.50825309753418,1.3284310102462769,-1.2838494777679443,-0.0225533340126276
2500959282.0,0.0613940246403217,-0.302244484424591,9.403738975524902,1.5003153085708618,-0.907922089099884,-0.0204913858324289
2500967615.0,-0.1357752680778503,-0.1384504288434982,9.495413780212402,1.4836020469665527,-0.4655771255493164,-0.0364618636667728
2500975948.0,-0.4035643339157104,-0.3377786874771118,9.663012504577637,1.5381346940994265,-0.7576562762260437,-0.096245490014553
2500984281.0,-0.2949491441249847,-0.4498801827430725,9.617539405822754,1.492746353149414,-1.1870020627975464,-0.2904269695281982
2500992614.0,-0.0632039457559585,-0.3127059042453766,9.478479385375977,1.534907341003418,-1.1729398965835571,-0.0301607623696327
2501000947.0,-0.0995615124702453,-0.1965440213680267,9.41736125946045,1.5818841457366943,-0.8458461761474609,-0.0035219576675444
2501009280.0,-0.2290268838405609,-0.3177722096443176,9.540168762207031,1.4398528337478638,-0.7534555196762085,-0.0572350062429904
2501017613.0,-0.2083674967288971,-0.5248422026634216,9.614266395568848,1.4913631677627563,-1.191458821296692,-0.1457321792840957
2501025946.0,-0.0022948151454329,-0.3602087795734405,9.476319313049316,1.4556057453155518,-1.1989895105361938,-0.0287263616919517
2501034279.0,0.0106939850375056,-0.1700170934200287,9.34559726715088,1.572265625,-0.687434732913971,-0.02876478433609
2501042612.0,-0.2873725593090057,-0.2559216022491455,9.500664710998535,1.5295796394348145,-0.4223146736621856,-0.104544498026371
2501050945.0,-0.4500309228897095,-0.5609962940216064,9.703925132751465,1.4687713384628296,-0.8939751982688904,-0.10833540558815
2501059278.0,-0.2495089769363403,-0.5317974090576172,9.671480178833008,1.6541929244995115,-1.4013676643371582,-0.1002925410866737
2501067611.0,-0.0236936025321483,-0.1984938532114029,9.462422370910645,1.5107017755508425,-1.0057812929153442,0.0062754871323704
2501075944.0,-0.141969621181488,-0.0249061994254589,9.455371856689451,1.5706136226654053,-0.5830696225166321,-0.0168157424777746
2501084277.0,-0.3027615249156952,-0.3085823953151703,9.583128929138184,1.5080124139785769,-0.7464627623558044,-0.2282100170850753
2501092610.0,-0.1669807881116867,-0.5429152250289917,9.614092826843262,1.5244823694229126,-1.2899713516235352,-0.1524174958467483
2501100943.0,0.0416339114308357,-0.3791432976722717,9.421490669250488,1.5050156116485596,-1.1945326328277588,0.0068646143190562
2501109276.0,-0.0271450392901897,-0.1618616878986358,9.412640571594238,1.512622952461243,-0.6251281499862671,0.0834511741995811
2501117609.0,-0.3567838668823242,-0.1526129990816116,9.578320503234863,1.4797343015670776,-0.5433675050735474,-0.1368440389633178
2501125942.0,-0.414538025856018,-0.3537313640117645,9.679590225219728,1.5786309242248535,-1.0312162637710571,-0.1482167541980743
2501134275.0,-0.2103433310985565,-0.3710428476333618,9.58508014678955,1.4987016916275024,-1.348589539527893,0.0251916013658046
2501142608.0,-0.0418552979826927,-0.1934405863285064,9.42701816558838,1.501147747039795,-1.039899468421936,-0.0038549422752112
2501150941.0,-0.1584712415933609,-0.2083122432231903,9.47494888305664,1.5090370178222656,-0.7131130695343018,-0.0395355708897113
2501159274.0,-0.2668255269527435,-0.4057073593139648,9.61589813232422,1.441107988357544,-1.0618252754211426,-0.2638393938541412
2501167607.0,-0.0706573203206062,-0.3967178463935852,9.565783500671388,1.4699242115020752,-1.287153720855713,0.0025358092971146
2501175940.0,0.0893170610070228,-0.1633516103029251,9.389293670654297,1.4184907674789429,-0.9040928483009338,-0.0166108310222625
2501184273.0,-0.0950255170464515,-0.1342803239822387,9.420258522033691,1.45050847530365,-0.4691119194030761,-0.0910714119672775
2501192606.0,-0.3810033202171325,-0.4171037375926971,9.65249729156494,1.47540545463562,-0.687421977519989,-0.2224724292755127
2501200939.0,-0.3413469493389129,-0.5983394980430603,9.70404052734375,1.5159530639648438,-1.1887695789337158,-0.2677584290504455
2501209272.0,-0.0761787965893745,-0.3270060122013092,9.545917510986328,1.580654501914978,-1.2625385522842407,-0.0480907298624515
2501217605.0,-0.0460536740720272,-0.0212766714394092,9.452770233154297,1.5401453971862793,-0.7001650929450989,-0.0028687941376119
2501225938.0,-0.2305933535099029,-0.1502168476581573,9.527772903442385,1.46863055229187,-0.6536240577697754,-0.1710262447595596
2501234271.0,-0.2500972747802734,-0.4780058860778808,9.587556838989258,1.4141874313354492,-1.1871044635772705,-0.2250082343816757
2501242604.0,0.0019335006363689,-0.4985199570655823,9.489173889160156,1.4477421045303345,-1.3378698825836182,-0.1331811994314193
2501250937.0,0.10353434830904,-0.2561915218830108,9.42227554321289,1.499559998512268,-0.7917744517326355,0.1037632748484611
2501259270.0,-0.1674623936414718,-0.1412972211837768,9.512321472167969,1.5674631595611572,-0.4137082993984222,-0.0664305165410041
2501267603.0,-0.4060882925987243,-0.3417915105819702,9.6771821975708,1.467772364616394,-0.6862949728965759,-0.0908921062946319
2501275936.0,-0.2914204597473144,-0.4408283233642578,9.655838966369627,1.4291205406188965,-1.13546621799469,-0.1785183995962143
2501284269.0,-0.0773472562432289,-0.3053147494792938,9.476265907287598,1.544102907180786,-1.0350327491760254,0.0212598145008087
2501292602.0,-0.1339798867702484,-0.221759632229805,9.46587371826172,1.35003662109375,-0.6080819368362427,-0.0499221459031105
2501300935.0,-0.256303608417511,-0.3769796788692474,9.57902717590332,1.5109069347381592,-0.9083703756332396,-0.0986019968986511
2501309268.0,-0.1595689952373504,-0.4943524897098541,9.603538513183594,1.4198226928710938,-1.2563397884368896,-0.1149694919586181
2501317601.0,0.0184842962771654,-0.3119672238826751,9.481624603271484,1.4350374937057495,-1.148196578025818,0.0574271120131015
2501325934.0,-0.0351848341524601,-0.1401098817586898,9.406732559204102,1.544128656387329,-0.5242593884468079,-0.0036756431218236
2501334267.0,-0.3495665788650512,-0.3651812374591827,9.5714693069458,1.5172336101531982,-0.6291496157646179,-0.0932742357254028
2501342600.0,-0.4374188780784607,-0.6176786422729492,9.718294143676758,1.4158267974853516,-1.1529351472854614,-0.3657584488391876
2501350933.0,-0.1720260679721832,-0.4565814733505249,9.589873313903809,1.6304997205734253,-1.2512937784194946,-0.0510107465088367
2501359266.0,-0.0605249740183353,-0.1624699085950851,9.411456108093262,1.6799863576889038,-0.8286844491958618,0.1346796303987503
2501367599.0,-0.191640242934227,-0.094974085688591,9.496123313903809,1.568539023399353,-0.6454915404319763,-0.1018550023436546
2501375932.0,-0.3005477488040924,-0.3629896640777588,9.610840797424316,1.5634928941726685,-0.9612382650375366,-0.2324107736349105
2501384265.0,-0.1276036500930786,-0.5829758644104004,9.556636810302734,1.459563136100769,-1.2910854816436768,-0.0363465994596481
2501392598.0,0.0737951248884201,-0.3371601998806,9.44171142578125,1.45463228225708,-0.9500703811645508,0.0418280437588691
2501400931.0,-0.1105328798294067,-0.1371700763702392,9.424449920654297,1.5681802034378052,-0.3895540833473205,0.0907000005245208
2501409264.0,-0.4066985845565796,-0.287638247013092,9.666409492492676,1.574276328086853,-0.6615516543388367,-0.2301823198795318
2501417597.0,-0.3536876738071441,-0.424186646938324,9.66396713256836,1.4503803253173828,-1.2163047790527344,-0.2244959473609924
2501425930.0,-0.0864527150988578,-0.3052681088447571,9.492324829101562,1.5952290296554563,-1.2820053100585938,-0.0114623708650469
2501434263.0,-0.0303191598504781,-0.2167212665081024,9.433160781860352,1.5133146047592163,-0.8359588980674744,-0.0507289879024028
2501442596.0,-0.1999474018812179,-0.2890037298202514,9.562463760375977,1.4837044477462769,-0.783475399017334,-0.1139961555600166
2501450929.0,-0.1879461854696273,-0.4897095263004303,9.630575180053713,1.4812711477279663,-1.1926883459091189,-0.0769323483109474
2501459262.0,-0.0029994812794029,-0.3849652409553528,9.519163131713867,1.389290452003479,-1.1939435005187988,-0.1583344042301178
2501467595.0,0.0470585525035858,-0.1160620301961898,9.35161304473877,1.5405423641204834,-0.6634982824325562,0.0136011578142642
2501475928.0,-0.2310582846403122,-0.236422911286354,9.4998197555542,1.4261749982833862,-0.3487249910831451,-0.0584644936025142
2501484261.0,-0.4371173977851867,-0.5139245986938477,9.745047569274902,1.469949722290039,-0.7597053647041321,-0.1723197698593139
2501492594.0,-0.2415662854909896,-0.5126965045928955,9.62277126312256,1.5442310571670532,-1.355005979537964,-0.1752141714096069
2501500927.0,-0.0147520499303936,-0.238178938627243,9.463061332702637,1.561341404914856,-1.1471463441848757,0.0215159561485052
2501509260.0,-0.0799044668674469,-0.0496764630079269,9.439105033874512,1.4415178298950195,-0.5646529793739319,-0.1262397468090057
2501517593.0,-0.251679927110672,-0.2465155869722366,9.55406665802002,1.4173378944396973,-0.7657759189605713,-0.1761362701654434
2501525926.0,-0.1654830574989318,-0.5433214902877808,9.603611946105955,1.509344458580017,-1.1972734928131104,-0.1421974301338195
2501534259.0,0.0450555868446826,-0.3925593495368957,9.429819107055664,1.522663712501526,-1.0147206783294678,-0.0673270151019096
2501542592.0,-0.0122957369312644,-0.13912995159626,9.386446952819824,1.514415979385376,-0.6173670887947083,-0.0477321222424507
2501550925.0,-0.3414266407489776,-0.188320055603981,9.615516662597656,1.4907996654510498,-0.501411497592926,-0.2215503454208374
2501559258.0,-0.4220755994319916,-0.3823040127754211,9.700419425964355,1.515619874000549,-0.8550927639007568,-0.1430939137935638
2501567591.0,-0.1922546476125717,-0.3843867480754852,9.583084106445312,1.308375120162964,-1.2881271839141846,-0.0242438726127147
2501575924.0,-0.0649230480194091,-0.2220548093318939,9.45468044281006,1.3760991096496582,-0.9714838862419128,0.0025614232290536
2501584257.0,-0.1698800176382064,-0.2141060531139373,9.508417129516602,1.3462330102920532,-0.715495228767395,-0.1244979798793792
2501592590.0,-0.2420599460601806,-0.4345365166664123,9.599742889404297,1.4726903438568115,-1.0197923183441162,-0.2180155515670776
2501600923.0,-0.0539863668382167,-0.4343200325965881,9.571002960205078,1.5330119132995603,-1.255340814590454,-0.0216568335890769
2501609256.0,0.088459201157093,-0.202697291970253,9.382399559020996,1.3832966089248655,-0.9323964715003968,-0.0045465258881449
2501617589.0,-0.116362452507019,-0.1460825055837631,9.41673183441162,1.498970627784729,-0.4024380445480346,0.0303272549062967
2501625922.0,-0.4365952312946319,-0.4551640152931213,9.6530122756958,1.3958731889724731,-0.5563539266586304,-0.0752418115735054
2501634255.0,-0.3560407757759094,-0.6135222911834717,9.698731422424316,1.415570616722107,-1.2603100538253784,-0.1877139210700988
2501642588.0,-0.0887996926903724,-0.3469704091548919,9.514436721801758,1.4742016792297363,-1.2467601299285889,-0.0931461676955223
2501650921.0,-0.0701978132128715,-0.0463407970964908,9.43293571472168,1.5635696649551392,-0.8048632740974426,0.1092703193426132
2501659254.0,-0.2450278252363205,-0.1936917752027511,9.545467376708984,1.3490248918533323,-0.7664675712585449,-0.0670964941382408
2501667587.0,-0.2241916805505752,-0.501372218132019,9.596503257751465,1.3561713695526123,-1.1576482057571411,-0.1648404151201248
2501675920.0,0.0061265239492058,-0.4984724521636963,9.508265495300291,1.4307599067687988,-1.3003193140029907,-0.1507013440132141
2501684253.0,0.0589394681155681,-0.2476528584957122,9.378691673278809,1.5243031978607178,-0.6219776272773743,0.0642917305231094
2501692586.0,-0.2103579640388488,-0.1691861897706985,9.51501178741455,1.4718451499938965,-0.3923972547054291,-0.2166067957878112
2501700919.0,-0.4254339933395386,-0.3376469314098358,9.67984390258789,1.527863383293152,-0.7910572290420532,-0.2088200449943542
2501709252.0,-0.2937588393688202,-0.4340313971042633,9.63378620147705,1.489595651626587,-1.2909702062606812,-0.1645330190658569
2501717585.0,-0.0519424974918365,-0.3009507358074188,9.455474853515623,1.4610358476638794,-1.1515775918960571,0.0122692175209522
2501725918.0,-0.1131937876343727,-0.2216880023479461,9.454018592834473,1.3911346197128296,-0.6787132024765015,-0.1166856437921524
2501734251.0,-0.2647009491920471,-0.4338580965995788,9.589930534362791,1.4922596216201782,-0.8319631218910217,-0.1590771973133087
2501742584.0,-0.1310874074697494,-0.4846105575561523,9.575155258178713,1.4283778667449951,-1.2866672277450562,-0.2046449482440948
2501750917.0,0.0729925632476806,-0.2856419682502746,9.434069633483888,1.392313003540039,-1.0706876516342163,-0.0220922771841287
2501759250.0,0.0108150988817214,-0.1186012923717498,9.380581855773926,1.4869191646575928,-0.5140520930290222,-0.0686205327510833
2501767583.0,-0.3402535915374756,-0.3377572298049927,9.60091781616211,1.4180936813354492,-0.4593912661075592,-0.1529682129621505
2501775916.0,-0.4045367836952209,-0.6172311902046204,9.75460433959961,1.5592409372329712,-1.0572402477264404,-0.2603814899921417
2501784249.0,-0.1548811495304107,-0.4722284972667694,9.56679344177246,1.5512492656707764,-1.288562536239624,-0.1032381802797317
2501792582.0,-0.0352117381989955,-0.125090092420578,9.408469200134276,1.72496497631073,-0.8795031309127808,0.0582979992032051
2501800915.0,-0.197204440832138,-0.0708386152982711,9.482163429260254,1.5946398973464966,-0.6283300518989563,-0.1035967841744422
2501809248.0,-0.3017519116401672,-0.3704313039779663,9.60175895690918,1.4154679775238037,-1.0175381898880005,-0.1654551476240158
2501817581.0,-0.0836365520954132,-0.5388419032096863,9.548094749450684,1.4446940422058103,-1.3511124849319458,-0.0913531705737114
2501825914.0,0.0802374333143234,-0.3431589901447296,9.42740535736084,1.5231504440307615,-0.92678701877594,-0.0150227481499314
2501834247.0,-0.0753288194537162,-0.1377583891153335,9.458075523376465,1.7810603380203247,-0.4646550416946411,0.1235886886715889
2501842580.0,-0.4217948317527771,-0.2557599544525146,9.64816188812256,1.5838818550109863,-0.6725913882255554,-0.2500845789909363
2501850913.0,-0.3713273406028747,-0.4218605458736419,9.668590545654297,1.5338828563690186,-1.063259482383728,-0.2540803849697113
2501859246.0,-0.1034731119871139,-0.3206976056098938,9.517425537109377,1.5661826133728027,-1.14614737033844,-0.0979872718453407
2501867579.0,-0.0335539877414703,-0.1815248429775238,9.43140983581543,1.438392996788025,-0.8414660692214966,0.0042007341980934
2501875912.0,-0.210264965891838,-0.2617654502391815,9.518359184265137,1.5134683847427368,-0.6914947032928467,-0.2015712410211563
2501884245.0,-0.2611438632011413,-0.5072456002235413,9.629132270812988,1.467208981513977,-1.1060867309570312,-0.1401482820510864
2501892578.0,-0.0220924355089664,-0.3992694914340973,9.521814346313477,1.479222059249878,-1.3186079263687134,-0.0587206296622753
2501900911.0,0.0611270889639854,-0.0824550539255142,9.345802307128906,1.600582242012024,-0.7376003265380859,0.0719247683882713
2501909244.0,-0.2424026876688003,-0.2185622751712799,9.513795852661133,1.323180079460144,-0.4165514707565307,-0.0680954381823539
2501917577.0,-0.4451285600662231,-0.4995187819004059,9.72364616394043,1.4358315467834473,-0.8013285398483276,-0.1745738089084625
2501925910.0,-0.2875373959541321,-0.52595454454422,9.671581268310549,1.5456907749176023,-1.2766004800796509,0.0072744423523545
2501934243.0,-0.0386453419923782,-0.2890987694263458,9.4650239944458,1.4738174676895142,-1.2103623151779177,0.0402143448591232
2501942576.0,-0.1036804616451263,-0.0382605567574501,9.486042976379396,1.4379065036773682,-0.695003867149353,-0.0221178922802209
2501950909.0,-0.2367304861545562,-0.187497466802597,9.50571346282959,1.3358848094940186,-0.8141868114471436,-0.222036987543106
2501959242.0,-0.2390047460794448,-0.4906788170337677,9.57577133178711,1.4022258520126345,-1.188436508178711,-0.1380991637706756
2501967575.0,0.024757420644164,-0.4714601933956146,9.494918823242188,1.2804300785064695,-1.1948657035827637,-0.0751393660902977
2501975908.0,0.0407712049782276,-0.1570978909730911,9.39540958404541,1.5298612117767334,-0.5928030014038086,0.077252522110939
2501984241.0,-0.3087024092674255,-0.2013096064329147,9.566448211669922,1.5695377588272097,-0.4409618377685547,-0.1068497821688652
2501992574.0,-0.4251935482025146,-0.358193039894104,9.723511695861816,1.399664282798767,-0.8599850535392761,-0.2061561793088913
2502000907.0,-0.2197799980640411,-0.4051382541656494,9.591912269592283,1.486855149269104,-1.3329776525497437,-0.1183761954307556
2502009240.0,-0.0017934248317033,-0.2620910406112671,9.466565132141112,1.465083122253418,-1.0300379991531372,-0.0591816939413547
2502017573.0,-0.0889027714729309,-0.1916245967149734,9.440313339233398,1.524507999420166,-0.6692103147506714,-0.1926318556070327
2502025906.0,-0.2598288357257843,-0.432086318731308,9.59217929840088,1.4726135730743408,-0.9162338972091676,-0.3077166080474853
2502034239.0,-0.1309452652931213,-0.5014203190803528,9.608607292175291,1.6040401458740234,-1.3031882047653198,-0.0937352925539016
2502042572.0,0.1130032241344451,-0.2297599017620086,9.399264335632324,1.5580884218215942,-1.020125389099121,-0.0913787856698036
2502050905.0,-0.081520952284336,-0.1325064152479171,9.410194396972656,1.499815821647644,-0.460710346698761,0.0022284383885562
2502059238.0,-0.3836354911327362,-0.366368681192398,9.622706413269045,1.4258931875228882,-0.4530517756938934,-0.1843072175979614
2502067571.0,-0.3960829079151153,-0.6639527678489685,9.767494201660156,1.4211033582687378,-1.197836995124817,-0.2784395515918731
2502075904.0,-0.0853425487875938,-0.4410742819309234,9.561226844787598,1.5846757888793943,-1.306338667869568,-0.0087472610175609
2502084237.0,0.0064833289943635,-0.1081740483641624,9.432682991027832,1.543231964111328,-0.8070148825645447,-0.1173772290349006
2502092570.0,-0.1616399437189102,-0.0780160576105117,9.467531204223633,1.5197181701660156,-0.5891402363777161,-0.0738330408930778
2502100903.0,-0.2713118195533752,-0.4173373579978943,9.621230125427246,1.4501242637634275,-1.0546789169311523,-0.1783134937286377
2502109236.0,-0.0893263444304466,-0.5384829640388489,9.524698257446287,1.4563229084014893,-1.2187124490737915,-0.1007791981101036
2502117569.0,0.0680237412452697,-0.3423235118389129,9.402162551879885,1.5189497470855713,-0.8067331910133362,-0.0194283965975046
2502125902.0,-0.1911597251892089,-0.1656097769737243,9.497265815734863,1.512930393218994,-0.3546674847602844,-0.0023949306923896
2502134235.0,-0.4432902038097381,-0.316091388463974,9.669042587280272,1.4591659307479858,-0.7647769451141357,-0.1627912521362304
2502142568.0,-0.3756360411643982,-0.4652977883815765,9.670611381530762,1.457706093788147,-1.2810574769973757,-0.1541336476802826
2502150901.0,-0.0460727736353874,-0.2910227179527282,9.435240745544434,1.5399534702301023,-1.2479127645492554,-0.0542125254869461
2502159234.0,-0.0318254642188549,-0.2072157114744186,9.431434631347656,1.5149283409118652,-0.8225370645523071,-0.0424043610692024
2502167567.0,-0.17739899456501,-0.3044067919254303,9.515209197998049,1.5423868894577026,-0.8017128109931946,-0.0730390027165412
2502175900.0,-0.2092086374759674,-0.5131598711013794,9.640886306762695,1.3956427574157717,-1.1244776248931885,-0.0985251516103744
2502184233.0,-0.0039106076583266,-0.3517923355102539,9.482894897460938,1.5325506925582886,-1.269633412361145,-0.0869987457990646
2502192566.0,-0.0042273299768567,-0.1028364226222038,9.357956886291504,1.477864384651184,-0.7232562899589539,-0.0728852972388267
2502200899.0,-0.3128868043422699,-0.1865819096565246,9.503853797912598,1.436612844467163,-0.4041670560836792,-0.1568103581666946
2502209232.0,-0.4911241829395294,-0.5404102206230164,9.718140602111816,1.5546176433563232,-0.9433978796005248,-0.2188736498355865
2502217565.0,-0.2533821761608124,-0.5630865693092346,9.65024757385254,1.5665922164916992,-1.3091819286346436,-0.1020343080163002
2502225898.0,0.0151688298210501,-0.2351437658071518,9.456409454345703,1.6244547367095947,-1.2103365659713743,-0.1131764873862266
2502234231.0,-0.0436141118407249,-0.0143595356494188,9.45459270477295,1.561033844947815,-0.6698507070541382,-0.0718607380986213
2502242564.0,-0.2346061021089553,-0.2363728433847427,9.56804370880127,1.417005181312561,-0.8240227103233337,-0.1816433519124984
2502250897.0,-0.1625359505414962,-0.5314698815345764,9.581567764282228,1.4989962577819824,-1.2392038106918335,-0.2602790296077728
2502259230.0,0.0318815819919109,-0.3771731853485107,9.435977935791016,1.5182068347930908,-1.1412549018859863,-0.0347969345748424
2502267563.0,-0.0418369732797145,-0.1887850016355514,9.404287338256836,1.4241002798080444,-0.5496430993080139,-0.0123844817280769
2502275896.0,-0.3635503947734833,-0.2027258723974228,9.57571792602539,1.474124789237976,-0.4862477779388428,-0.0805951878428459
2502284229.0,-0.455342948436737,-0.4134930074214935,9.725361824035645,1.415493726730347,-0.9908994436264038,-0.122781828045845
2502292562.0,-0.1854953914880752,-0.3929349780082702,9.580737113952637,1.484216809272766,-1.4191694259643557,-0.0585413314402103
2502300895.0,0.0109512768685817,-0.1918640732765197,9.4085693359375,1.4345508813858032,-1.0566513538360596,-0.120117962360382
2502309228.0,-0.1264265179634094,-0.1890925168991089,9.46117877960205,1.4726649522781372,-0.7049165368080139,-0.0429678782820701
2502317561.0,-0.2518748641014099,-0.4256718754768371,9.629353523254396,1.449406981468201,-0.9178476333618164,-0.172601506114006
2502325894.0,-0.073572538793087,-0.4679574966430664,9.572338104248049,1.6298339366912842,-1.3014978170394895,-0.0274968836456537
2502334227.0,0.063497245311737,-0.1989567577838897,9.378368377685549,1.563467264175415,-0.8861116170883179,0.0417255870997905
2502342560.0,-0.1129219383001327,-0.1194667667150497,9.418533325195312,1.435908317565918,-0.4139644205570221,-0.0234754458069801
2502350893.0,-0.4601854085922241,-0.3715185821056366,9.652037620544434,1.3538914918899536,-0.6013069748878479,-0.1705011576414108
2502359226.0,-0.3640705943107605,-0.5893076658248901,9.730366706848145,1.5772732496261597,-1.247169852256775,-0.0486798509955406
2502367559.0,-0.0689783841371536,-0.3681871592998504,9.53278923034668,1.5302199125289917,-1.3145097494125366,-0.1015476286411285
2502375892.0,0.010488866828382,-0.0610805377364158,9.360264778137209,1.4772497415542605,-0.8584994673728943,-0.0894321054220199
2502384225.0,-0.2381181418895721,-0.1547231525182724,9.514976501464844,1.5053997039794922,-0.6682113409042358,-0.0260112527757883
2502392558.0,-0.2792498767375946,-0.4550141096115112,9.583418846130373,1.4639816284179688,-1.1072649955749512,-0.1218853294849395
2502400891.0,-0.0529653169214725,-0.5052071809768677,9.510652542114258,1.4252017736434937,-1.270965576171875,-0.0565178133547306
2502409224.0,0.0575016550719738,-0.2339408844709396,9.366791725158691,1.3867931365966797,-0.8571547269821167,0.0850008353590965
2502417557.0,-0.1758311837911605,-0.1682134121656417,9.539116859436035,1.5506216287612915,-0.4041926264762878,-0.0497172251343727
2502425890.0,-0.4370693266391754,-0.2968433201313019,9.691149711608888,1.5732519626617432,-0.6589645743370056,-0.1426841020584106
2502434223.0,-0.3221606612205505,-0.4912116527557373,9.6751708984375,1.4490739107131958,-1.317890763282776,-0.2316423207521438
2502442556.0,-0.0311527885496616,-0.2752828001976013,9.505468368530272,1.4836533069610596,-1.2482969760894775,0.1165703758597374
2502450889.0,-0.0543830692768096,-0.1599375456571579,9.433961868286133,1.4176965951919556,-0.6546101570129395,-0.0190697945654392
2502459222.0,-0.2740040719509125,-0.343214750289917,9.579057693481444,1.43629252910614,-0.7499207258224487,-0.2360223680734634
2502467555.0,-0.20496566593647,-0.5052123665809631,9.616259574890137,1.387138843536377,-1.2042149305343628,-0.2641212046146393
2502475888.0,0.0434715971350669,-0.3814448416233063,9.446503639221191,1.4746627807617188,-1.1893329620361328,-0.0460928156971931
2502484221.0,0.0588965080678463,-0.1258685737848281,9.376425743103027,1.4485875368118286,-0.7289683818817139,-0.0146897640079259
2502492554.0,-0.2886386215686798,-0.29840949177742,9.562372207641602,1.4986376762390137,-0.2464217543601989,-0.1387651115655899
2502500887.0,-0.4324516952037811,-0.566048800945282,9.715700149536133,1.5237908363342283,-0.845820426940918,-0.1812078952789306
2502509220.0,-0.2232357710599899,-0.5724102258682251,9.64793586730957,1.5504297018051147,-1.4304909706115725,-0.1928367614746093
2502517553.0,0.0256264191120862,-0.1734933406114578,9.413084983825684,1.644715428352356,-1.0506831407546997,0.022309998050332
2502525886.0,-0.0938381478190422,-0.0505348369479179,9.44690990447998,1.4950517416000366,-0.575820803642273,-0.0299558453261852
2502534219.0,-0.2905681133270263,-0.2867949306964874,9.58568286895752,1.5221771001815796,-0.7739468812942505,-0.173651710152626
2502542552.0,-0.1868278831243515,-0.5661027431488037,9.599717140197754,1.545742392539978,-1.2589269876480105,-0.0892271995544433
2502550885.0,0.0452252738177776,-0.3769558668136596,9.422844886779783,1.5463825464248655,-1.078474521636963,0.0165980253368616
2502559218.0,-0.0597620010375976,-0.1413687914609909,9.426202774047852,1.5111247301101685,-0.4743500351905823,-0.0234626419842243
2502567551.0,-0.3871333301067352,-0.1924758553504943,9.643362998962402,1.4151865243911743,-0.4393737614154815,-0.0910714119672775
2502575884.0,-0.4097231328487396,-0.3939821720123291,9.709600448608398,1.448408126831055,-1.1384376287460327,-0.1935539543628692
2502584217.0,-0.1224122270941734,-0.420673131942749,9.542177200317385,1.5717918872833252,-1.4234726428985596,-0.0379987172782421
2502592550.0,0.0468050874769687,-0.1925398856401443,9.382740020751951,1.5740973949432373,-1.1250412464141846,5.12284750584e-05
2502600883.0,-0.1392494440078735,-0.2172098010778427,9.483887672424316,1.5774015188217163,-0.6757932305335999,-0.1608958393335342
2502609216.0,-0.2817197740077972,-0.4228595793247223,9.60707664489746,1.48314106464386,-0.9554493427276612,-0.262200117111206
2502617549.0,-0.1309210509061813,-0.4699907302856445,9.588408470153809,1.5035300254821775,-1.216304898262024,-0.153954342007637
2502625882.0,0.0677832588553428,-0.1819154024124145,9.393506050109863,1.4901081323623655,-0.9203579425811768,0.0178018938750028
2502634215.0,-0.1390584260225296,-0.148178294301033,9.423441886901855,1.5353171825408936,-0.48296919465065,-0.0308779589831829
2502642548.0,-0.4314809441566467,-0.3996793925762176,9.64675998687744,1.5132120847702026,-0.6299436688423157,-0.1789794713258743
2502650881.0,-0.3541389405727386,-0.6022339463233948,9.725788116455078,1.501147747039795,-1.202088713645935,-0.2234970033168792
2502659214.0,-0.0323231481015682,-0.36386239528656,9.554430961608888,1.700400948524475,-1.3682996034622192,0.0308651514351367
2502667547.0,0.0421806573867797,-0.0324658490717411,9.405962944030762,1.6080102920532229,-0.8039155006408691,0.0037140634376555
2502675880.0,-0.1822401881217956,-0.1120921596884727,9.53134059906006,1.5189239978790283,-0.6129357814788818,-0.1184530258178711
2502684213.0,-0.2666765451431274,-0.462609589099884,9.624338150024414,1.5467411279678345,-1.0592894554138184,-0.1248565763235092
2502692546.0,-0.0389746390283107,-0.5116482973098755,9.537071228027344,1.4536845684051514,-1.310590744018555,-0.039202582091093
2502700879.0,0.0702674016356468,-0.2320575714111328,9.377995491027832,1.5203843116760254,-0.8836784362792969,0.0938505679368972
2502709212.0,-0.2163305729627609,-0.1050466746091842,9.502117156982422,1.528606414794922,-0.4074840545654297,-0.0215543806552886
2502717545.0,-0.4731677174568176,-0.2727307379245758,9.68405532836914,1.53941547870636,-0.6121161580085754,-0.1618435382843017
2502725878.0,-0.3505128026008606,-0.458148717880249,9.651432037353516,1.4097049236297607,-1.2984496355056765,-0.2045937031507492
2502734211.0,-0.0292398110032081,-0.3066380321979522,9.456053733825684,1.4433364868164062,-1.0853904485702517,-0.1229098960757255
2502742544.0,-0.0355281718075275,-0.1795220524072647,9.403985977172852,1.3348346948623655,-0.7481534481048584,-0.1302868127822876
2502750877.0,-0.2411509454250335,-0.3180511593818664,9.57388687133789,1.3746135234832764,-0.757733166217804,-0.1737541854381561
2502759210.0,-0.2013897746801376,-0.4911406636238098,9.636885643005373,1.4874954223632812,-1.1405121088027954,-0.2657860815525055
2502767543.0,0.0119907306507229,-0.3442799150943756,9.442021369934082,1.4968957901000977,-1.240791916847229,-0.1425303816795349
2502775876.0,0.0276528913527727,-0.1175569742918014,9.370996475219728,1.3461177349090576,-0.6102079153060913,-0.0616022385656833
2502784209.0,-0.3089813590049743,-0.235564574599266,9.552450180053713,1.4018030166625977,-0.4156934022903442,-0.0665457770228385
2502792542.0,-0.4541754424571991,-0.5591568946838379,9.739468574523926,1.479798436164856,-0.9427831768989564,-0.2396980226039886
2502800875.0,-0.2490818947553634,-0.5540521144866943,9.630779266357422,1.5211783647537231,-1.2967848777770996,-0.0180196147412061
2502809208.0,0.035881083458662,-0.2094325423240661,9.433374404907228,1.4520196914672852,-1.0817275047302246,-0.0013703615404665
2502817541.0,-0.1076145246624946,-0.0201209466904401,9.449592590332031,1.5597275495529177,-0.6099901795387268,-0.0660719200968742
2502825874.0,-0.304158866405487,-0.2921696603298187,9.57619285583496,1.5003026723861694,-0.8843187689781189,-0.1844865530729293
2502834207.0,-0.1654249429702758,-0.5612298250198364,9.593084335327148,1.455477595329285,-1.3737810850143433,-0.2321033775806427
2502842540.0,0.0944723933935165,-0.4134612381458282,9.434852600097656,1.4928232431411743,-1.1345696449279783,-0.080134131014347
2502850873.0,-0.0118522606790065,-0.1794576793909073,9.44094467163086,1.43334698677063,-0.5462363958358765,0.0984867289662361
2502859206.0,-0.3470058739185333,-0.2064668089151382,9.621810913085938,1.4817835092544556,-0.4687789380550384,-0.1470897495746612
2502867539.0,-0.4365192055702209,-0.4154469966888428,9.705810546875,1.3804789781570437,-1.081753134727478,-0.1134582459926605
2502875872.0,-0.1573264896869659,-0.3783079087734222,9.565284729003906,1.5484575033187866,-1.230879306793213,-0.1735492497682571
2502884205.0,0.0181696396321058,-0.2138156443834304,9.395429611206056,1.5027358531951904,-0.8484587073326111,-0.1089245304465293
2502892538.0,-0.1278570741415023,-0.2360795885324478,9.471787452697754,1.4991756677627563,-0.6526123285293579,-0.0161497760564088
2502900871.0,-0.2668130397796631,-0.4456586837768554,9.587862014770508,1.4518150091171265,-0.9970213770866394,-0.1708853840827942
2502909204.0,-0.090739719569683,-0.4465346038341522,9.564997673034668,1.58626389503479,-1.291354417800903,-0.2495979070663452
2502917537.0,0.0779656544327735,-0.1892622858285904,9.34207820892334,1.5552451610565186,-0.9490458369255066,-0.0910457968711853
2502925870.0,-0.1285723447799682,-0.1190376132726669,9.41952133178711,1.5926674604415894,-0.4077146053314209,-0.0913019403815269
2502934203.0,-0.4259303510189056,-0.3829989731311798,9.696293830871582,1.4700777530670166,-0.5925981402397156,-0.2148137688636779
2502942536.0,-0.3656590580940246,-0.5769396424293518,9.711051940917969,1.5359832048416138,-1.1314703226089478,-0.1619715988636016
2502950869.0,-0.0347384810447692,-0.3857913315296173,9.527249336242676,1.594332575798035,-1.3321579694747925,0.0109628932550549
2502959202.0,0.0197203885763883,-0.0295197833329439,9.41245460510254,1.4150582551956177,-0.873944878578186,0.0748704075813293
2502967535.0,-0.2320453822612762,-0.123636893928051,9.50021266937256,1.5160295963287354,-0.5832232236862183,-0.0766762048006057
2502975868.0,-0.2764275968074798,-0.4369186758995056,9.617817878723145,1.4784791469573977,-1.091230392456055,-0.3188331723213196
2502984201.0,-0.056584320962429,-0.5443236231803894,9.538443565368652,1.4873930215835571,-1.311077356338501,-0.1721404790878296
2502992534.0,0.0646900087594986,-0.2638288140296936,9.36985969543457,1.5438979864120483,-0.7467445731163025,0.0468996614217758
2503000867.0,-0.2064024209976196,-0.1370269954204559,9.5068998336792,1.535112380981445,-0.3273883759975433,0.0280732046812772
2503009200.0,-0.4565303325653076,-0.2945396304130554,9.66323947906494,1.4493814706802368,-0.7856270670890808,-0.251057893037796
2503017533.0,-0.334885686635971,-0.4628360867500305,9.663310050964355,1.411497950553894,-1.335410714149475,-0.1761362850666046
2503025866.0,-0.0294090285897254,-0.3199608922004699,9.457277297973633,1.4600369930267334,-1.1499125957489014,-0.0204017367213964
2503034199.0,-0.0723939538002014,-0.1926975548267364,9.424863815307615,1.5163882970809937,-0.5393204689025879,-0.0723474025726318
2503042532.0,-0.2656196355819702,-0.3470731675624847,9.564855575561523,1.5533112287521362,-0.6822606921195984,-0.083809770643711
2503050865.0,-0.2387385964393615,-0.4951328933238983,9.621731758117676,1.4670554399490356,-1.2143069505691528,-0.1871504336595535
2503059198.0,0.0228526033461093,-0.3243098855018616,9.468140602111816,1.5481754541397097,-1.1964792013168335,0.0776367411017417
2503067531.0,0.0181896798312664,-0.1036446914076805,9.355761528015137,1.4499704837799072,-0.6566593050956726,0.0239493083208799
2503075864.0,-0.3030731081962585,-0.2473381608724594,9.5531005859375,1.4606643915176392,-0.4813427031040191,-0.1682855039834976
2503084197.0,-0.4402818381786346,-0.5416362881660461,9.739914894104004,1.4592429399490356,-0.951965868473053,-0.2698843777179718
2503092530.0,-0.1920796632766723,-0.5061448216438293,9.608600616455078,1.6569591760635376,-1.292302131652832,-0.1176333725452423
2503100863.0,0.0370366349816322,-0.1351475566625595,9.426559448242188,1.600390076637268,-1.025747537612915,0.0786228850483894
2503109196.0,-0.102013848721981,-0.0076463893055915,9.4312162399292,1.4711662530899048,-0.5848242044448853,0.046451412141323
2503117529.0,-0.2953695058822632,-0.276679128408432,9.587384223937988,1.354954719543457,-0.8972411155700684,-0.1654679626226425
2503125862.0,-0.1641941964626312,-0.5547068119049072,9.584102630615234,1.358117938041687,-1.256211757659912,-0.0640227794647216
2503134195.0,0.063986524939537,-0.3732986152172088,9.430474281311035,1.4517124891281128,-1.0889252424240112,-0.127571702003479
2503142528.0,-0.0594043619930744,-0.1279214471578598,9.444355964660645,1.501865029335022,-0.538219153881073,-0.0045465263538062
2503150861.0,-0.3913105726242065,-0.2055011838674545,9.659942626953123,1.428684949874878,-0.52254319190979,-0.15789894759655
2503159194.0,-0.3876617848873138,-0.3824786841869354,9.685349464416504,1.4550933837890625,-1.1391546726226809,-0.1171723082661628
2503167527.0,-0.1258911192417144,-0.3931162357330322,9.54245662689209,1.4787354469299316,-1.319453239440918,-0.057926595211029
2503175860.0,0.0298455990850925,-0.2525753080844879,9.407851219177246,1.461471438407898,-0.9632617831230164,-0.0633055791258812
2503184193.0,-0.1326923966407776,-0.282072365283966,9.505248069763184,1.360090255737305,-0.6281762719154358,-0.1227049902081489
2503192526.0,-0.2523096203804016,-0.4684804677963257,9.634957313537598,1.3897260427474976,-0.9618784785270692,-0.2127902507781982
2503200859.0,-0.0660973787307739,-0.4688729643821716,9.56576156616211,1.4369585514068604,-1.103115439414978,-0.1387651264667511
2503209192.0,0.0930753126740455,-0.1848404258489608,9.37960720062256,1.4628801345825195,-0.8936678171157837,0.017366450279951
2503217525.0,-0.1446877121925354,-0.2048860341310501,9.425737380981444,1.4184650182724,-0.4552289545536041,0.1035583466291427
2503225858.0,-0.4540552198886871,-0.4629034996032715,9.666167259216309,1.500379204750061,-0.6238218545913696,-0.242041677236557
2503234191.0,-0.3403234779834747,-0.6430783271789551,9.666704177856444,1.4804259538650513,-1.09576416015625,-0.1687081605195999
2503242524.0,-0.0329493433237075,-0.3478680551052093,9.525693893432615,1.62898850440979,-1.2688907384872437,-0.0299302358180284
2503250857.0,-0.0386336110532283,-0.028049336746335,9.432379722595217,1.478940486907959,-0.8192586302757263,0.0250763371586799
2503259190.0,-0.2299710512161255,-0.1661963015794754,9.531399726867676,1.5068854093551636,-0.6000519394874573,-0.0928644090890884
2503267523.0,-0.2420554459095001,-0.4866104423999786,9.599501609802246,1.5055792331695557,-1.1608245372772217,-0.1702194213867187
2503275856.0,-0.0041117025539278,-0.496420294046402,9.47095775604248,1.4518404006958008,-1.1775760650634766,-0.06376663595438
2503284189.0,0.0719146803021431,-0.2404142022132873,9.388177871704102,1.435908317565918,-0.6820686459541321,-0.0374352075159549
2503292522.0,-0.2304359823465347,-0.1652664393186569,9.55878734588623,1.44343900680542,-0.3452670872211456,-0.097449354827404
2503300855.0,-0.4544773399829864,-0.3097681701183319,9.669906616210938,1.4124457836151123,-0.7777635455131531,-0.1766485720872879
2503309188.0,-0.3218579292297363,-0.4118459224700928,9.62283420562744,1.5149283409118652,-1.2897920608520508,-0.0954258292913436
2503317521.0,-0.0555077195167541,-0.2452891767024994,9.463263511657717,1.592488169670105,-1.0377734899520874,-0.0827467814087867
2503325854.0,-0.1095815524458885,-0.1915388256311416,9.448190689086914,1.4380087852478027,-0.7564780116081238,-0.1201179474592208
2503334187.0,-0.2682315707206726,-0.389093279838562,9.606719970703123,1.3880096673965454,-0.8362663388252258,-0.1052616909146308
2503342520.0,-0.1500130444765091,-0.4884421229362488,9.579490661621094,1.5173360109329224,-1.3285976648330688,-0.0423531346023082
2503350853.0,0.0766703933477401,-0.2581237256526947,9.430057525634766,1.5285037755966189,-1.132213115692139,0.0351171158254146
2503359186.0,-0.026272403076291,-0.1018922626972198,9.384602546691896,1.4687457084655762,-0.4505031704902649,0.0194155890494585
2503367519.0,-0.3360334038734436,-0.2963995039463043,9.57386589050293,1.5305273532867432,-0.5606315732002258,-0.2428613901138305
2503375852.0,-0.4314530491828918,-0.6227667331695557,9.7421293258667,1.4426705837249756,-1.0783976316452026,-0.1499841511249542
2503384185.0,-0.1394205242395401,-0.459073007106781,9.58572006225586,1.5740714073181152,-1.3086694478988647,-0.174035906791687
2503392518.0,0.0031881346367299,-0.122550182044506,9.421162605285645,1.626375675201416,-0.9012240767478944,-0.0035987996961921
2503400851.0,-0.1616382896900177,-0.068171888589859,9.498706817626951,1.580833911895752,-0.652305006980896,-0.0811074748635292
2503409184.0,-0.301881343126297,-0.3309576213359833,9.60419750213623,1.4400322437286377,-0.98726224899292,-0.1679909527301788
2503417517.0,-0.0952854752540588,-0.5362651348114014,9.560211181640623,1.4873416423797607,-1.2468624114990234,-0.0892015695571899
2503425850.0,0.093810461461544,-0.3124568164348602,9.381961822509766,1.530681014060974,-0.932601511478424,-0.0187368132174015
2503434183.0,-0.1080508530139923,-0.1674123108386993,9.489563941955566,1.544128656387329,-0.4411667585372925,-0.002958444179967
2503442516.0,-0.4134700894355774,-0.2794901728630066,9.655765533447266,1.4455649852752686,-0.6209786534309387,-0.0396636426448822
2503450849.0,-0.3701321482658386,-0.3879740238189697,9.69968605041504,1.4981510639190674,-1.1374385356903076,-0.0766506046056747
2503459182.0,-0.0490758717060089,-0.276398241519928,9.46902847290039,1.4004583358764648,-1.2236049175262451,-0.076496921479702
2503467515.0,-0.0684956237673759,-0.1674337536096573,9.435315132141112,1.3873182535171509,-0.7538397908210754,0.011244649067521
2503475848.0,-0.2577097713947296,-0.3086451590061188,9.560446739196776,1.425355315208435,-0.7900326251983643,-0.0711435377597808
2503484181.0,-0.247615098953247,-0.5133334994316101,9.60717487335205,1.4470250606536863,-1.207160472869873,-0.1340777277946472
2503492514.0,0.0323216430842876,-0.3908736705780029,9.471956253051758,1.5240981578826904,-1.1908953189849854,0.0067109293304383
2503500847.0,0.0888168513774871,-0.076220691204071,9.341062545776367,1.4422607421875,-0.6910336017608643,0.003124936716631
2503509180.0,-0.2495554834604263,-0.2249068915843963,9.524369239807127,1.4360874891281128,-0.2994944453239441,-0.1393030136823654
2503517513.0,-0.4236563146114349,-0.5284141898155212,9.734773635864258,1.4587818384170532,-0.8261743187904358,-0.188098132610321
2503525846.0,-0.2539231181144714,-0.4912148416042328,9.628296852111816,1.472280740737915,-1.2761396169662476,-0.1591028273105621
2503534179.0,-0.0512449219822883,-0.3126801252365112,9.476051330566406,1.6279640197753906,-1.1623611450195312,-0.0016521180514246
2503542512.0,-0.0824078992009162,-0.030807290226221,9.453117370605469,1.4852412939071655,-0.6905469298362732,0.0185447037220001
2503550845.0,-0.2814472317695617,-0.2603821754455566,9.556543350219728,1.4625983238220217,-0.8781455755233765,-0.1738822311162948
2503559178.0,-0.1722253710031509,-0.5115718841552734,9.561942100524902,1.4332703351974487,-1.2539321184158323,-0.1878163814544677
2503567511.0,0.029895506799221,-0.4535804986953735,9.476007461547852,1.441927790641785,-1.1003235578536987,-0.1513161063194275
2503575844.0,0.0458451509475708,-0.1360858976840973,9.35838508605957,1.5799628496170044,-0.5633978843688965,-0.074063554406166
2503584177.0,-0.3639581203460693,-0.2490834444761276,9.613056182861328,1.5209219455718994,-0.3626334965229034,-0.1040322035551071
2503592510.0,-0.4089950621128082,-0.3988790214061737,9.698153495788574,1.4631105661392212,-0.9798597097396852,-0.2111765444278717
2503600843.0,-0.1836662590503692,-0.3926910758018493,9.529267311096191,1.4991755485534668,-1.3129215240478516,-0.0263698529452085
2503609176.0,-0.0224228464066982,-0.2344837933778762,9.430320739746094,1.4141746759414673,-1.000927448272705,-0.0708233565092086
2503617509.0,-0.1660961657762527,-0.2065097242593765,9.488632202148438,1.408065676689148,-0.654533326625824,-0.1184274107217788
2503625842.0,-0.2827634215354919,-0.4654945135116577,9.65163230895996,1.427814245223999,-0.9720985889434814,-0.1182481050491333
2503634175.0,-0.0781689211726188,-0.4769914150238037,9.565040588378906,1.6312425136566162,-1.3687349557876587,-0.118581086397171
2503642508.0,0.1041180118918418,-0.2199652343988418,9.405678749084473,1.5579090118408203,-1.0642331838607788,-0.0217336788773536
2503650841.0,-0.1143238916993141,-0.1184868440032005,9.41123867034912,1.4693862199783323,-0.4216743409633636,-0.0847702994942665
2503659174.0,-0.4515804350376129,-0.4107233881950378,9.661380767822266,1.4035320281982422,-0.5328657627105713,-0.166787102818489
2503667507.0,-0.380626231431961,-0.606416642665863,9.707802772521973,1.4635205268859863,-1.239459991455078,-0.1451942920684814
2503675840.0,-0.0785656422376632,-0.3828532695770263,9.505829811096191,1.4982534646987915,-1.2230411767959597,-0.1057996079325676
2503684173.0,-0.0444320067763328,-0.0592981502413749,9.464629173278809,1.6266576051712036,-0.7647257447242737,0.0511260107159614
2503692506.0,-0.2373742461204528,-0.151146724820137,9.546262741088867,1.491081476211548,-0.5786384344100952,-0.1531347036361694
2503700839.0,-0.2683259546756744,-0.4520174264907837,9.617354393005373,1.505194902420044,-1.1490674018859863,-0.0509082935750484
2503709172.0,0.0134174060076475,-0.47719407081604,9.497910499572754,1.5632624626159668,-1.3201704025268557,-0.04688685759902
2503717505.0,0.0635657235980033,-0.2416540086269378,9.412891387939451,1.5103435516357422,-0.8402878642082214,-0.0190185699611902
2503725838.0,-0.18976491689682,-0.1468335539102554,9.506414413452148,1.4834996461868286,-0.4742347002029419,-0.0210933238267898
2503734171.0,-0.4328235685825348,-0.33552947640419,9.692564964294434,1.4886224269866943,-0.7837058901786804,-0.1753166317939758
2503742504.0,-0.2855985462665558,-0.3979121148586273,9.63212776184082,1.431707501411438,-1.3028552532196045,-0.0856411904096603
2503750837.0,-0.0461382679641246,-0.2618028223514557,9.441617012023926,1.5407474040985107,-1.162745237350464,-0.1187603995203971
2503759170.0,-0.0864564105868339,-0.1669258922338485,9.468518257141112,1.4693862199783323,-0.7266117930412292,-0.078802190721035
2503767503.0,-0.258324921131134,-0.3697375953197479,9.585209846496582,1.4187724590301514,-0.8813473582267761,-0.1343850791454315
2503775836.0,-0.1900430917739868,-0.4997705519199371,9.62436294555664,1.5010710954666138,-1.264638900756836,-0.0143311657011508
2503784169.0,0.0441493615508079,-0.3127616941928863,9.4432954788208,1.5495076179504397,-1.1547536849975586,0.0048667043447494
2503792502.0,-0.0157004911452531,-0.1047247722744941,9.420165061950684,1.4991499185562134,-0.4235953986644745,-0.0356422066688537
2503800835.0,-0.3164132535457611,-0.2693688571453094,9.584643363952637,1.4342433214187622,-0.3706763684749603,-0.1973448693752288
2503809168.0,-0.4227199852466583,-0.5550728440284729,9.71974277496338,1.4339104890823364,-1.0467896461486816,-0.1836156398057937
2503817501.0,-0.1483755856752395,-0.4803040027618408,9.563871383666992,1.575864553451538,-1.3372039794921875,-0.1783647388219833
2503825834.0,0.0168094281107187,-0.1557517349720001,9.424179077148438,1.648199200630188,-0.8187205791473389,0.0841427594423294
2503834167.0,-0.1464133113622665,-0.064598299562931,9.479840278625488,1.580116629600525,-0.6445181369781494,-0.121962197124958
2503842500.0,-0.3227519690990448,-0.3505424857139587,9.594018936157228,1.4770961999893188,-0.8995848298072815,-0.1764436811208725
2503850833.0,-0.1152341663837432,-0.5315245985984802,9.5795259475708,1.460574984550476,-1.3795444965362549,-0.13873952627182
2503859166.0,0.1000438034534454,-0.3128015697002411,9.40587329864502,1.5016857385635376,-0.931986689567566,0.1079127714037895
2503867499.0,-0.0953116342425346,-0.1527346521615982,9.473855018615724,1.555014729499817,-0.4614533483982086,-0.006518823094666
2503875832.0,-0.376482754945755,-0.2731956541538238,9.653925895690918,1.471537709236145,-0.5556367635726929,-0.0372815169394016
2503884165.0,-0.3841880559921264,-0.4308564364910126,9.6522216796875,1.4306572675704956,-1.2216837406158447,-0.1459370851516723
2503892498.0,-0.0916870683431625,-0.3318128287792206,9.508563041687012,1.485113263130188,-1.212898015975952,-0.0014215899864211
2503900831.0,-0.0607462264597415,-0.1956796050071716,9.46730136871338,1.5382884740829468,-0.8266354203224182,0.0819655507802963
2503909164.0,-0.2262873649597168,-0.2418804764747619,9.534180641174316,1.407041072845459,-0.6621407270431519,-0.1057995930314064
2503917497.0,-0.2369110435247421,-0.5044404864311218,9.629995346069336,1.4887505769729614,-1.2122063636779783,-0.0978847965598106
2503925830.0,0.0104586072266101,-0.4069734811782837,9.514493942260742,1.550339937210083,-1.3136003017425537,-0.1716153621673584
2503934163.0,0.0801038071513176,-0.1369345635175705,9.351550102233888,1.5975085496902466,-0.6879598498344421,-0.0184806678444147
2503942496.0,-0.2123249918222427,-0.2198140174150467,9.486000061035156,1.3983962535858154,-0.4128246009349823,-0.0507674105465412
2503950829.0,-0.4663736224174499,-0.4762502610683441,9.696393966674805,1.440698266029358,-0.8596009612083435,-0.1412240713834762
2503959162.0,-0.2789736688137054,-0.5449302792549133,9.63712215423584,1.516132116317749,-1.2540345191955566,-0.1008048132061958
2503967495.0,-0.0369285903871059,-0.2771310210227966,9.468463897705078,1.514544129371643,-1.166356921195984,-0.0165852177888155
2503975828.0,-0.0928512960672378,-0.0264120828360319,9.454527854919434,1.6660523414611816,-0.6817612648010254,-0.0129479952156543
2503984161.0,-0.2734830379486084,-0.2034140229225158,9.564123153686523,1.549225926399231,-0.684911847114563,-0.19875368475914
2503992494.0,-0.2022927403450012,-0.5439031720161438,9.59976863861084,1.4480239152908323,-1.2343883514404297,-0.1630986332893371
2504000827.0,0.0585356354713439,-0.4172277748584747,9.451857566833496,1.5529141426086426,-1.1899220943450928,-0.042173832654953
2504009160.0,0.0553870052099227,-0.1676691174507141,9.388482093811035,1.586135745048523,-0.6481553912162781,0.0669299885630607
2504017493.0,-0.320640504360199,-0.2064739614725113,9.602148056030272,1.5752753019332886,-0.3933705985546112,-0.1024185195565223
2504025826.0,-0.43522909283638,-0.3751378655433655,9.69205093383789,1.4384700059890747,-0.8143150210380554,-0.1828472167253494
2504034159.0,-0.2052647769451141,-0.4361861646175384,9.606471061706545,1.484985113143921,-1.318889617919922,-0.004008627962321
2504042492.0,-0.021579647436738,-0.2597525715827942,9.432799339294434,1.475149393081665,-0.9717655777931212,0.0368844978511333
2504050825.0,-0.1314693093299865,-0.2068673223257064,9.466965675354004,1.4019566774368286,-0.6099773645401001,-0.116237387061119
2504059158.0,-0.2827335894107818,-0.4360182583332062,9.635622024536133,1.531705617904663,-0.8864189982414246,-0.0984995365142822
2504067491.0,-0.1250489503145218,-0.5074841380119324,9.590527534484863,1.4118309020996094,-1.3113590478897097,-0.1970887333154678
2504075824.0,0.0996934324502945,-0.2329917252063751,9.385597229003906,1.4854463338851929,-1.0478143692016602,-0.0375632755458354
2504084157.0,-0.0598621815443038,-0.1346021592617035,9.398212432861328,1.492131590843201,-0.5028970837593079,-0.0861022472381591
2504092490.0,-0.3964391648769378,-0.3760750293731689,9.660099983215332,1.5961511135101318,-0.5112985372543335,-0.0890735015273094
2504100823.0,-0.3605447709560394,-0.6000145673751831,9.72275161743164,1.5287089347839355,-1.1667155027389526,-0.0911482572555542
2504109156.0,-0.083691269159317,-0.3833576142787933,9.532472610473633,1.5970219373703003,-1.2669953107833862,-0.013716422021389
2504117489.0,-0.0071277511306107,-0.0685292109847068,9.404335975646973,1.6407197713851929,-0.9008654356002808,0.0216696429997682
2504125822.0,-0.213777020573616,-0.0926078557968139,9.52642059326172,1.4717938899993896,-0.5660873651504517,-0.0765481367707252
2504134155.0,-0.2884235680103302,-0.4259317815303802,9.592118263244627,1.398793339729309,-1.0586490631103516,-0.1281352043151855
2504142488.0,-0.0414929017424583,-0.5129817724227905,9.530987739562988,1.43010675907135,-1.3837064504623413,-0.0845269635319709
2504150821.0,0.0792232751846313,-0.2675806283950805,9.40553092956543,1.553080677986145,-0.7313632369041443,-0.0068133864551782
2504159154.0,-0.1672048568725586,-0.124709814786911,9.49368953704834,1.5337803363800049,-0.3500057160854339,-0.0075433920137584
2504167487.0,-0.455979436635971,-0.2919146716594696,9.661587715148926,1.5683852434158323,-0.5648066401481628,-0.1455016583204269
2504175820.0,-0.3509650826454162,-0.4492149353027344,9.659436225891112,1.4785819053649902,-1.1835441589355469,-0.1566950976848602
2504184153.0,-0.042593840509653,-0.3176004886627197,9.45701789855957,1.4801442623138428,-1.2371290922164917,-0.088663674890995
2504192486.0,-0.0578175783157348,-0.2055980563163757,9.418156623840332,1.5283247232437134,-0.717595636844635,-0.0858717262744903
2504200819.0,-0.252087652683258,-0.3455753028392792,9.576204299926758,1.414149045944214,-0.7378180027008057,-0.1058124080300331
2504209152.0,-0.2058913558721542,-0.5165382623672485,9.629742622375488,1.4697959423065186,-1.2135127782821655,-0.1385601758956909
2504217485.0,0.0480302907526493,-0.3654403686523437,9.456683158874512,1.498637557029724,-1.0679470300674438,-0.1254969388246536
2504225818.0,0.0319231376051902,-0.1437721401453018,9.407891273498535,1.4870599508285522,-0.575436532497406,0.004251962993294
2504234151.0,-0.2876730263233185,-0.2642689347267151,9.551398277282717,1.460421085357666,-0.4555363357067108,-0.1950908005237579
2504242484.0,-0.457669049501419,-0.5828897953033447,9.69107151031494,1.545844554901123,-0.965669572353363,-0.1538775116205215
2504250817.0,-0.2161071300506591,-0.5612192153930664,9.620650291442873,1.6562933921813965,-1.448344349861145,-0.0945293456315994
2504259150.0,0.0106873428449034,-0.1956369578838348,9.454825401306152,1.6184097528457642,-1.0569074153900146,-0.0981409326195716
2504267483.0,-0.1224773451685905,-0.0338775850832462,9.472042083740234,1.6031181812286377,-0.5941349267959595,-0.0825418680906295
2504275816.0,-0.2952264547348022,-0.2917144000530243,9.57762050628662,1.408501148223877,-0.8473317623138428,-0.2501870393753052
2504284149.0,-0.1666192561388015,-0.5414699912071228,9.58983325958252,1.5601118803024292,-1.2206591367721558,-0.1886616498231887
2504292482.0,0.0694709420204162,-0.3646666407585144,9.444330215454102,1.5755058526992798,-1.165434956550598,-0.0371534489095211
2504300815.0,-0.0547550171613693,-0.1291875094175338,9.457569122314451,1.5212550163269043,-0.4814324080944061,-0.0032914290204644
2504309148.0,-0.3685287833213806,-0.1954371333122253,9.651345252990724,1.5855211019515991,-0.4988244175910949,-0.1298769861459732
2504317481.0,-0.4152664840221405,-0.3578313887119293,9.688679695129396,1.408718824386597,-1.0532060861587524,-0.1249718517065048
2504325814.0,-0.1715578883886337,-0.3224239647388458,9.553013801574709,1.4528008699417114,-1.2523822784423828,-0.0694658011198043
2504334147.0,-0.0464367792010307,-0.1735272109508514,9.462449073791504,1.48903226852417,-0.9766579270362854,-0.0722193345427513
2504342480.0,-0.1744649857282638,-0.2029118537902832,9.508302688598633,1.370771408081055,-0.686627984046936,-0.1804138571023941
2504350813.0,-0.2501063942909241,-0.4222463071346283,9.608489990234377,1.3853201866149902,-0.9298352003097534,-0.2007003426551818
2504359146.0,-0.0505160056054592,-0.3996737003326416,9.495407104492188,1.4712305068969729,-1.215869426727295,-0.1176333874464035
2504367479.0,0.0663995072245597,-0.1543476581573486,9.374825477600098,1.45832097530365,-0.9729440212249756,-0.0751905888319015
2504375812.0,-0.1685853600502014,-0.1340299695730209,9.482473373413086,1.3596291542053225,-0.4121714532375335,-0.083079770207405
2504384145.0,-0.4472315907478332,-0.4185055494308471,9.672208786010742,1.4110114574432373,-0.7155208587646484,-0.2034410536289215
2504392478.0,-0.3135316371917724,-0.5775295495986938,9.68455410003662,1.5269156694412231,-1.3642269372940063,-0.128673106431961
2504400811.0,-0.0171509105712175,-0.3227978348731994,9.480539321899414,1.453390121459961,-1.2658041715621948,-0.0468228198587894
2504409144.0,-0.0199063643813133,-0.042630948126316,9.407362937927246,1.392159342765808,-0.7460530400276184,-0.0007043914520181
2504417477.0,-0.2272958755493164,-0.1993282288312912,9.54666233062744,1.4927974939346311,-0.7646488547325134,-0.0069286506623029
2504425810.0,-0.183277815580368,-0.4966623783111572,9.612330436706545,1.4513025283813477,-1.1366956233978271,-0.1831801831722259
2504434143.0,0.0337088704109191,-0.4420036077499389,9.46217155456543,1.4804770946502686,-1.2212995290756226,0.0136011578142642
2504442476.0,0.0480456836521625,-0.2106011360883712,9.407604217529297,1.4651085138320925,-0.7044810652732849,0.0641380473971366
2504450809.0,-0.2754201591014862,-0.1856735348701477,9.59503936767578,1.4429265260696411,-0.4699058532714844,-0.1258555203676223
2504459142.0,-0.3770055472850799,-0.3555841743946075,9.660239219665527,1.4518660306930542,-0.9684613943099976,-0.2072063386440277
2504467475.0,-0.2505494952201843,-0.391380101442337,9.575937271118164,1.4675931930541992,-1.2642033100128174,-0.0492945946753025
2504475808.0,-0.0254394561052322,-0.3173088729381561,9.477959632873535,1.448613166809082,-1.0171797275543213,-0.058592565357685
2504484141.0,-0.105904996395111,-0.1866677403450012,9.49604320526123,1.4062471389770508,-0.5658825039863586,-0.0338236019015312
2504492474.0,-0.2766372859477997,-0.3940836191177368,9.597593307495115,1.4005863666534424,-0.9532464146614076,-0.0785460472106933
2504500807.0,-0.1342406868934631,-0.5895224213600159,9.6151762008667,1.5445383787155151,-1.2764469385147097,-0.1099234819412231
2504509140.0,0.1117736622691154,-0.256682276725769,9.41455364227295,1.449022889137268,-1.103371500968933,-0.0103609589859843
2504517473.0,-0.0077178864739835,-0.1458822637796402,9.356849670410156,1.3613710403442385,-0.3602514564990997,-0.0754979625344276
2504525806.0,-0.3930844962596893,-0.384129136800766,9.597949028015137,1.5045288801193235,-0.5029739141464233,-0.1633035540580749
2504534139.0,-0.4013181030750274,-0.6594533920288086,9.719049453735352,1.473868727684021,-1.0001206398010254,-0.2607913315296173
2504542472.0,-0.1117636263370513,-0.4410642683506012,9.502077102661133,1.592206358909607,-1.259848952293396,0.0544046312570571
2504550805.0,-0.0919102132320404,-0.1962088793516159,9.494125366210938,1.6709445714950562,-0.7148804664611816,0.040419265627861
2504559138.0,-0.2164267152547836,-0.1122029796242713,9.526198387145996,1.6657449007034302,-0.5930079221725464,-0.0392025858163833
2504567471.0,-0.3015463948249817,-0.4412046670913696,9.579731941223145,1.5107018947601318,-1.13472318649292,-0.2358686923980713
2504575804.0,-0.0538660958409309,-0.5579017400741577,9.543543815612791,1.3849616050720217,-1.3700668811798096,-0.1753934770822525
2504584137.0,0.1364344656467437,-0.3063434064388275,9.35103702545166,1.5357526540756226,-0.878094494342804,0.0249226540327072
2504592470.0,-0.1152823939919471,-0.1990207284688949,9.494070053100586,1.5757877826690674,-0.387171983718872,0.0333753451704978
2504600803.0,-0.4050154387950897,-0.2924869060516357,9.684462547302246,1.5372381210327148,-0.6019216775894165,-0.178851380944252
2504609136.0,-0.3572976589202881,-0.4565948843955993,9.664714813232422,1.305121898651123,-1.2327746152877808,-0.1777499765157699
2504617469.0,-0.1109224110841751,-0.3026389181613922,9.499756813049316,1.5391595363616943,-1.1726069450378418,-0.0193003267049789
2504625802.0,-0.087032251060009,-0.1884061843156814,9.42592430114746,1.457680583000183,-0.8522496223449707,-0.0317232273519039
2504634135.0,-0.2627780139446258,-0.3121722042560577,9.570271492004396,1.5181303024291992,-0.734065592288971,-0.1428890228271484
2504642468.0,-0.2499155700206756,-0.4901075065135956,9.641454696655272,1.614849328994751,-1.229854702949524,-0.1993940025568008
2504650801.0,0.0038248265627771,-0.3592657148838043,9.483646392822266,1.5801677703857422,-1.2686090469360352,-0.1465518474578857
2504659134.0,0.0661641284823417,-0.1050209701061248,9.349138259887695,1.565926432609558,-0.7755094766616821,-0.0427117384970188
2504667467.0,-0.2327463179826736,-0.2028761208057403,9.552908897399902,1.4067721366882324,-0.3859809041023254,-0.0984354987740516
2504675800.0,-0.4232539236545563,-0.4924944341182709,9.664643287658691,1.4139187335968018,-0.8699620366096497,-0.3368016183376312
2504684133.0,-0.2284687012434005,-0.5406524538993835,9.680914878845217,1.5475224256515503,-1.2767413854599,-0.1637261807918548
2504692466.0,-0.0140287922695279,-0.1858415752649307,9.449456214904783,1.577375888824463,-1.0739408731460571,-0.0171487294137477
2504700799.0,-0.0975408032536506,-0.0065587908029556,9.435359954833984,1.5808336734771729,-0.6066347360610962,0.0285342559218406
2504709132.0,-0.2813437283039093,-0.2427082508802414,9.582429885864258,1.5435905456542969,-0.8382129669189453,-0.1379966884851455
2504717465.0,-0.1817239969968795,-0.502732515335083,9.57882595062256,1.54876446723938,-1.2494494915008545,-0.1676323562860489
2504725798.0,0.0759937092661857,-0.3588623106479645,9.4266357421875,1.5654397010803225,-1.087849497795105,0.0526116453111171
2504734131.0,0.0014233838301151,-0.1470552682876587,9.423711776733398,1.5489439964294434,-0.4869138300418854,-0.0703238919377327
2504742464.0,-0.3194245100021362,-0.2016457915306091,9.582320213317873,1.5566025972366333,-0.4916524291038513,-0.106055736541748
2504750797.0,-0.3982743918895721,-0.3563871383666992,9.710211753845217,1.4445147514343262,-0.979219377040863,-0.1617410778999328
2504759130.0,-0.1695019006729126,-0.3658094108104706,9.582440376281738,1.3879584074020386,-1.263588547706604,-0.1145852655172348
2504767463.0,-0.0026036347262561,-0.1673550605773925,9.43032932281494,1.2912391424179075,-0.9418482184410096,0.0256398506462574
2504775796.0,-0.1519120037555694,-0.205758735537529,9.497760772705078,1.5030176639556885,-0.6273310780525208,-0.1451942920684814
2504784129.0,-0.2655066251754761,-0.422149509191513,9.647001266479492,1.3186975717544556,-1.02570903301239,-0.2791310846805572
2504792462.0,-0.0750519633293151,-0.4395662844181061,9.540419578552246,1.4971009492874146,-1.2721694707870483,-0.0748063772916793
2504800795.0,0.0692037567496299,-0.1862886399030685,9.391267776489258,1.3734865188598633,-0.7743054628372192,0.0013063257792964
2504809128.0,-0.1171850264072418,-0.1400312036275863,9.440129280090332,1.439340591430664,-0.425977498292923,-0.0350018553435802
2504817461.0,-0.4330545663833618,-0.4196072220802307,9.685378074645996,1.2376030683517456,-0.6434167623519897,-0.214890643954277
2504825794.0,-0.3558701574802398,-0.616660475730896,9.681904792785645,1.522638201713562,-1.11653733253479,-0.2034666985273361
2504834127.0,-0.051696840673685,-0.3721904158592224,9.501541137695312,1.6448436975479126,-1.3535714149475098,-0.0676600113511085
2504842460.0,-0.0121677285060286,-0.0932224243879318,9.430750846862791,1.587134838104248,-0.8334488272666931,-0.0958100482821464
2504850793.0,-0.2287122011184692,-0.2008803784847259,9.53533935546875,1.3770980834960938,-0.6879087090492249,-0.1101796329021453
2504859126.0,-0.255006194114685,-0.4930078685283661,9.625412940979004,1.3661863803863523,-1.1204050779342651,-0.1375612318515777
2504867459.0,-0.0251682419329881,-0.5177047252655029,9.480772972106934,1.540235161781311,-1.125912070274353,-0.068812645971775
2504875792.0,0.048481997102499,-0.2671157419681549,9.389113426208496,1.5234322547912598,-0.6434935927391052,0.0348097421228885
2504884125.0,-0.2679598033428192,-0.197804719209671,9.516599655151367,1.5183093547821045,-0.3217787742614746,-0.0340541228652
2504892458.0,-0.4582137167453766,-0.3745213150978088,9.704708099365234,1.4983302354812622,-0.8025579452514648,-0.1086940020322799
2504900791.0,-0.2857111394405365,-0.4746571779251098,9.595539093017578,1.4821677207946775,-1.276472568511963,-0.1647123545408249
2504909124.0,-0.0261748507618904,-0.3115890622138977,9.435080528259276,1.480912685394287,-1.1183302402496338,-0.0206322651356458
2504917457.0,-0.1098674461245536,-0.2101158052682876,9.44040870666504,1.521203637123108,-0.7174419164657593,0.0272791553288698
2504925790.0,-0.2739182114601135,-0.4041998982429504,9.638190269470217,1.3712581396102903,-0.838161826133728,-0.2434504926204681
2504934123.0,-0.1592563241720199,-0.5186834931373596,9.626398086547852,1.4583463668823242,-1.299935221672058,-0.2162737846374511
2504942456.0,0.1081470847129821,-0.2746751606464386,9.412349700927734,1.5135709047317505,-1.1971198320388794,-0.0376145057380199
2504950789.0,0.0256143305450677,-0.119967482984066,9.347328186035156,1.373640060424805,-0.5695196986198425,-0.0923008844256401
2504959122.0,-0.3417556881904602,-0.3031231760978699,9.599072456359863,1.5257631540298462,-0.5901135206222534,-0.1255225539207458
2504967455.0,-0.4150927662849426,-0.5952178239822388,9.7130765914917,1.5876214504241943,-1.0569074153900146,-0.2588959038257599
2504975788.0,-0.1467978805303573,-0.4829108119010925,9.55820083618164,1.5590617656707764,-1.3476802110671997,-0.0424043647944927
2504984121.0,0.0023526097647845,-0.1050770282745361,9.435735702514648,1.592539668083191,-0.9183856248855592,0.0032017796766012
2504992454.0,-0.1469130218029022,-0.0556796714663505,9.47768783569336,1.583318114280701,-0.7188506722450256,-0.1830265074968338
2505000787.0,-0.2874229550361633,-0.351580798625946,9.599435806274414,1.4188493490219116,-1.0121335983276367,-0.1441441029310226
2505009120.0,-0.0654562935233116,-0.514759361743927,9.537043571472168,1.4185163974761963,-1.353801965713501,-0.2013407051563263
2505017453.0,0.1056988313794136,-0.3268772065639496,9.362655639648438,1.5385959148406982,-0.985776662826538,0.028098814189434
2505025786.0,-0.0833377763628959,-0.164586916565895,9.458353996276855,1.3947079181671145,-0.4271173477172851,-0.0197485759854316
2505034119.0,-0.4002730846405029,-0.2357791662216186,9.663562774658203,1.49403977394104,-0.4868241548538208,-0.1447204202413559
2505042452.0,-0.3648673295974731,-0.4112055897712707,9.704155921936035,1.5419000387191772,-1.117433786392212,-0.3097913563251495
2505050785.0,-0.0834026783704757,-0.3269304037094116,9.512018203735352,1.3604488372802734,-1.203139066696167,-0.0376145020127296
2505059118.0,-0.0263939909636974,-0.1683135479688644,9.393671035766602,1.5088577270507812,-0.7274570465087891,-0.0325684994459152
2505067451.0,-0.2231056988239288,-0.2767746746540069,9.53904628753662,1.5064114332199097,-0.7496005296707153,-0.0228478964418172
2505075784.0,-0.2149476259946823,-0.4764429926872253,9.635973930358888,1.489519119262695,-1.078295350074768,-0.1010609716176986
2505084117.0,0.0107211926952004,-0.3757137358188629,9.532668113708496,1.453069806098938,-1.2492189407348633,-0.1049287095665931
2505092450.0,0.0671286061406135,-0.1058359891176223,9.374068260192873,1.5946141481399536,-0.6778166890144348,0.0748191773891449
2505100783.0,-0.2274103313684463,-0.1627343297004699,9.505012512207031,1.464750051498413,-0.3839702010154724,0.070977047085762
2505109116.0,-0.4599041938781738,-0.4768866598606109,9.67876434326172,1.4830642938613892,-0.8267122507095337,-0.2298493385314941
2505117449.0,-0.2772140502929687,-0.563933253288269,9.649910926818848,1.450175404548645,-1.3267788887023926,-0.1022392138838768
2505125782.0,-0.0056766881607472,-0.2582624852657318,9.437604904174805,1.6182560920715332,-1.1736057996749878,0.0678777173161506
2505134115.0,-0.0748902484774589,-0.0203999187797307,9.437533378601074,1.5616998672485352,-0.5683158040046692,-0.0297509338706731
2505142448.0,-0.2969431281089782,-0.2099931687116623,9.55087661743164,1.376047968864441,-0.732246994972229,-0.1500866115093231
2505150781.0,-0.2253374904394149,-0.486097127199173,9.60501194000244,1.411190629005432,-1.2649461030960083,-0.1471665799617767
2505159114.0,0.0511920861899852,-0.4063905477523803,9.448476791381836,1.4312210083007812,-1.2689931392669678,-0.0233729891479015
2505167447.0,0.0185759328305721,-0.1933341920375824,9.369673728942873,1.4554263353347778,-0.580431342124939,0.0224636830389499
2505175780.0,-0.3240237832069397,-0.2130617350339889,9.563572883605955,1.450764536857605,-0.4284877181053161,-0.1557217389345169
2505184113.0,-0.448403388261795,-0.3649615347385406,9.71035861968994,1.4351400136947632,-0.8973052501678467,-0.2082309424877166
2505192446.0,-0.2259502112865448,-0.4039284586906433,9.60097885131836,1.4693093299865725,-1.263896107673645,-0.1185554936528205
2505200779.0,-0.028194198384881,-0.206994742155075,9.422425270080566,1.485215663909912,-0.9971749782562256,-0.1711158901453018
2505209112.0,-0.1549234241247177,-0.2223246693611145,9.4998197555542,1.4803491830825806,-0.7244090437889099,-0.0065444367937743
2505217445.0,-0.2785051167011261,-0.4374348521232605,9.619532585144045,1.5014296770095823,-0.9727902412414552,-0.220090314745903
2505225778.0,-0.1102770492434501,-0.4837560057640075,9.576613426208496,1.434883713722229,-1.2562885284423828,-0.0989349782466888
2505234111.0,0.0825671330094337,-0.2577260136604309,9.389361381530762,1.507756233215332,-0.9673343300819396,-0.0324660390615463
2505242444.0,-0.0935091152787208,-0.1512039452791214,9.421080589294434,1.338036298751831,-0.467216432094574,-0.0353860631585121
2505250777.0,-0.4183125495910644,-0.3919829428195953,9.650108337402344,1.433013916015625,-0.5904209017753601,-0.1700401157140731
2505259110.0,-0.3843243420124054,-0.614837646484375,9.732256889343262,1.5092675685882568,-1.0933820009231567,-0.2637113630771637
2505267443.0,-0.0623530857264995,-0.4386618137359619,9.549574851989746,1.5933336019515991,-1.2139995098114014,-0.0510875955224037
2505275776.0,0.0135903377085924,-0.1042039319872856,9.411301612854004,1.5980720520019531,-0.7620362639427185,0.0319409482181072
2505284109.0,-0.2077257931232452,-0.1468048840761184,9.515647888183594,1.4902361631393433,-0.7379077076911926,-0.14813993871212
2505292442.0,-0.2617931067943573,-0.453059434890747,9.59880256652832,1.46863055229187,-1.0729291439056396,-0.171897143125534
2505300775.0,-0.0504297986626625,-0.5186694860458374,9.524945259094238,1.5504297018051147,-1.356389045715332,-0.1191446185111999
2505309108.0,0.0723366513848304,-0.2697766423225403,9.420817375183104,1.4125736951828003,-0.7643927931785583,0.1040962412953376
2505317441.0,-0.2006730139255523,-0.1729557365179062,9.517186164855955,1.5258911848068235,-0.368217408657074,-0.0568507947027683
2505325774.0,-0.456129640340805,-0.3234587013721466,9.701909065246582,1.4405958652496338,-0.7848073244094849,-0.2335634231567382
2505334107.0,-0.2983356714248657,-0.4536338448524475,9.634332656860352,1.5659005641937256,-1.4182984828948977,-0.1608701944351196
2505342440.0,-0.0004817789886146,-0.2963380515575409,9.460588455200195,1.4409031867980957,-1.1577762365341189,0.0063011012971401
2505350773.0,-0.0565985329449176,-0.1565002650022506,9.43019199371338,1.5323971509933472,-0.7079389691352844,-0.0103097287937998
2505359106.0,-0.2579004764556885,-0.3386557102203369,9.603378295898438,1.5432063341140747,-0.7861136794090271,-0.1102564707398414
2505367439.0,-0.2043722718954086,-0.4861257672309875,9.650795936584473,1.4227683544158936,-1.211617350578308,-0.1466286927461624
2505375772.0,0.0349994599819183,-0.3210610151290893,9.445865631103516,1.4860100746154783,-1.1707115173339844,-0.095220923423767
2505384105.0,0.0040413234382867,-0.1267912983894348,9.38192081451416,1.5010453462600708,-0.6169571876525879,0.0589127354323864
2505392438.0,-0.3215918242931366,-0.2514653503894806,9.564745903015137,1.475174903869629,-0.4326115846633911,-0.1261628866195678
2505400771.0,-0.4808252453804016,-0.5391860008239746,9.699002265930176,1.5150821208953855,-0.9302962422370912,-0.1991634964942932
2505409104.0,-0.2081807404756546,-0.4910069704055786,9.612221717834473,1.4969725608825684,-1.325677514076233,-0.1805419325828552
2505417437.0,0.0085533000528812,-0.1341150850057602,9.458578109741213,1.6143370866775513,-1.0560107231140137,-0.0002433352055959
2505425770.0,-0.1214314550161361,-0.0274192187935113,9.454533576965332,1.522817611694336,-0.7272522449493408,0.0039958213455975
2505434103.0,-0.3011049628257751,-0.3259957432746887,9.570804595947266,1.4193872213363647,-1.0263495445251465,-0.3281311392784118
2505442436.0,-0.1245220899581909,-0.521669864654541,9.55753231048584,1.4755593538284302,-1.2917386293411257,-0.2870203256607055
2505450769.0,0.0891378670930862,-0.3284421265125274,9.394906044006348,1.607344388961792,-1.075708031654358,-0.0202480535954237
2505459102.0,-0.0762421563267707,-0.1366192996501922,9.444177627563477,1.548303723335266,-0.5014883279800415,-0.049653198570013
2505467435.0,-0.4230692982673645,-0.235278382897377,9.641100883483888,1.4960505962371826,-0.4635279774665832,-0.168016567826271
2505475768.0,-0.4225525557994842,-0.4261532723903656,9.68896484375,1.3483333587646484,-1.1236836910247805,-0.2120218425989151
2505484101.0,-0.1145717725157737,-0.3556134104728699,9.550785064697266,1.4181575775146484,-1.263281226158142,-0.1455016583204269
2505492434.0,-0.0276743676513433,-0.1935058832168579,9.415367126464844,1.339189052581787,-0.882679283618927,0.0236419383436441
2505500767.0,-0.2015561461448669,-0.2503842115402221,9.542080879211426,1.5653626918792725,-0.6916995644569397,-0.1839742362499237
2505509100.0,-0.2767042517662048,-0.467260479927063,9.619154930114746,1.3736401796340942,-1.0897319316864014,-0.2050419449806213
2505517433.0,-0.0112318769097328,-0.4071501791477203,9.49501895904541,1.5843428373336792,-1.183364748954773,-0.1219109371304512
2505525766.0,0.0839386209845542,-0.1698371469974517,9.366934776306152,1.426226258277893,-0.8287870287895203,-0.0299302358180284
2505534099.0,-0.1818180978298187,-0.1941854059696197,9.489635467529297,1.3388817310333252,-0.4252859652042389,-0.0435313954949379
2505542432.0,-0.4642624258995056,-0.4710790812969208,9.69724464416504,1.4273276329040527,-0.7386505007743835,-0.2287222743034362
2505550765.0,-0.2779790461063385,-0.5918281078338623,9.695417404174805,1.5462031364440918,-1.3479362726211548,-0.1356914043426513
2505559098.0,-0.0151976747438311,-0.2872026264667511,9.474726676940918,1.5128791332244873,-1.2157669067382812,-0.0652522593736648
2505567431.0,-0.0464720614254474,-0.0393191576004028,9.448267936706545,1.5017368793487549,-0.5726702213287354,-0.0863583832979202
2505575764.0,-0.2719023525714874,-0.2356669306755066,9.557909965515137,1.4797086715698242,-0.8134440779685974,-0.2111253291368484
2505584097.0,-0.2073272913694381,-0.5290815830230713,9.62261962890625,1.484088659286499,-1.228522777557373,-0.1319517344236374
2505592430.0,0.0584035106003284,-0.4403623342514038,9.427077293395996,1.4567584991455078,-1.1990151405334473,-0.1134326383471489
2505600763.0,0.036522414535284,-0.1915173679590225,9.37990951538086,1.487725853919983,-0.5800471305847168,0.0924930050969123
2505609096.0,-0.2760782837867737,-0.1968605369329452,9.54721450805664,1.434947848320007,-0.4626699090003967,-0.1145980879664421
2505617429.0,-0.4498609900474548,-0.3869173228740692,9.713857650756836,1.4158267974853516,-0.8977660536766052,-0.1641232073307037
2505625762.0,-0.2165846973657608,-0.4220702052116394,9.59415054321289,1.4921828508377075,-1.3719111680984497,0.0111421924084424
2505634095.0,-0.009684843942523,-0.2506005465984344,9.428564071655272,1.4710510969161987,-0.9180269837379456,-0.0662512183189392
2505642428.0,-0.1314835548400879,-0.2257794886827469,9.471637725830078,1.4480239152908323,-0.7245882749557495,-0.1089757531881332
2505650761.0,-0.2741816341876983,-0.4507729411125183,9.627196311950684,1.4775571823120115,-1.0006330013275146,-0.1671200841665268
2505659094.0,-0.0908560827374458,-0.4790664911270141,9.54167366027832,1.602580189704895,-1.239485502243042,-0.1909669339656829
2505667427.0,0.0875721722841262,-0.2191787213087082,9.351301193237305,1.4981253147125244,-0.9568325877189636,0.0413157567381858
2505675760.0,-0.0534031242132186,-0.1210690215229988,9.399737358093262,1.3856018781661987,-0.3920642733573913,-0.0228094737976789
2505684093.0,-0.4081197679042816,-0.3873765170574188,9.657690048217772,1.3930813074111938,-0.5310983061790466,-0.1021623685956001
2505692426.0,-0.3904513120651245,-0.6103078722953796,9.690378189086914,1.5795531272888184,-1.1668691635131836,-0.1905827224254608
2505700759.0,-0.113323800265789,-0.4022500514984131,9.543257713317873,1.59694504737854,-1.2656632661819458,-0.1023160517215728
2505709092.0,-0.0408566631376743,-0.0845765396952629,9.407719612121582,1.6185379028320312,-0.7592955827713013,-0.0368716940283775
2505717425.0,-0.2223175168037414,-0.1474916189908981,9.51845932006836,1.4666966199874878,-0.6413676142692566,-0.1052616909146308
2505725758.0,-0.2436109036207199,-0.4600746929645538,9.602599143981934,1.478146195411682,-1.0686129331588743,-0.2076417654752731
2505734091.0,-0.0446407571434974,-0.4921752214431762,9.479698181152344,1.5075771808624268,-1.2404078245162964,-0.0500886403024196
2505742424.0,0.081309862434864,-0.2803120911121368,9.40833854675293,1.614157795906067,-0.8870849609375,0.0637282133102417
2505750757.0,-0.1697584092617035,-0.1332860887050628,9.51137924194336,1.5270949602127075,-0.4109932482242584,-0.0291105806827545
2505759090.0,-0.4093214273452759,-0.2828877866268158,9.65085220336914,1.452378273010254,-0.706043541431427,-0.0985251516103744
2505767423.0,-0.3400299549102783,-0.4389135837554931,9.668028831481934,1.468387246131897,-1.2607710361480713,-0.1586929857730865
2505775756.0,-0.0650675594806671,-0.2831393778324127,9.46934413909912,1.4504828453063965,-1.1017578840255735,-0.0640740022063255
2505784089.0,-0.092761643230915,-0.1059343516826629,9.43747329711914,1.492439031600952,-0.8264304399490356,-0.0551858693361282
2505792422.0,-0.293531209230423,-0.3964463174343109,9.602849006652832,1.3713093996047974,-0.7422364354133606,-0.1618179380893707
2505800755.0,-0.1826166361570358,-0.4887119233608246,9.610486030578612,1.5190008878707886,-1.3184798955917358,-0.2539010941982269
2505809088.0,0.0955291017889976,-0.2714597880840301,9.400424003601074,1.4715378284454346,-1.120456337928772,0.0019722960423678
2505817421.0,0.0397698059678077,-0.0904262438416481,9.332157135009766,1.560137391090393,-0.5216211080551147,-0.116096518933773
2505825754.0,-0.3335442245006561,-0.3182371258735657,9.590646743774414,1.462470293045044,-0.4396555125713348,-0.1782878786325454
2505834087.0,-0.3973346650600433,-0.542931854724884,9.638463020324709,1.4792476892471311,-1.0566257238388062,-0.1450662314891815
2505842420.0,-0.2102154940366745,-0.4949676990509033,9.616329193115234,1.5046569108963013,-1.3366916179656982,-0.139507919549942
2505850753.0,-0.0157873425632715,-0.1305679827928543,9.43779754638672,1.5646966695785522,-0.8488941192626953,-0.0004994775517843
2505859086.0,-0.1863971203565597,-0.0415618084371089,9.47218418121338,1.6498384475708008,-0.6039708256721497,-0.1138936877250671
2505867419.0,-0.3162132501602173,-0.3669688999652862,9.608222007751465,1.402020812034607,-0.9404650926589966,-0.2749560177326202
2505875752.0,-0.0762235522270202,-0.5130707025527954,9.501978874206545,1.454837441444397,-1.2697618007659912,-0.1241393983364105
2505884085.0,0.1350907683372497,-0.3358066380023956,9.408917427062988,1.5143647193908691,-0.9902846217155457,0.0783539339900016
2505892418.0,-0.0485534965991973,-0.1265266388654709,9.466386795043944,1.5511209964752195,-0.5222870111465454,-0.0450938567519187
2505900751.0,-0.3678492605686188,-0.2556712329387665,9.651988983154297,1.53057861328125,-0.4242869913578033,-0.1229098960757255
2505909084.0,-0.3736364543437958,-0.4373398125171661,9.664494514465332,1.379620909690857,-1.1675735712051392,-0.1263806372880935
2505917417.0,-0.0985295474529266,-0.3424147367477417,9.510881423950195,1.4992011785507202,-1.0763229131698608,0.0122948326170444
2505925750.0,-0.0725942030549049,-0.1980479210615158,9.415244102478027,1.5004050731658936,-0.7326312065124512,-0.0614869780838489
2505934083.0,-0.24051433801651,-0.3040530383586883,9.552221298217772,1.4185419082641602,-0.7917487621307373,-0.1250102669000625
2505942416.0,-0.2724426686763763,-0.5043767690658569,9.654560089111328,1.491773247718811,-1.2149215936660769,-0.261124312877655
2505950749.0,0.0361899435520172,-0.3692808449268341,9.4716215133667,1.4570016860961914,-1.2443138360977173,-0.1662619858980178
2505959082.0,0.055892314761877,-0.1563611477613449,9.327471733093262,1.513570785522461,-0.7189019322395325,-0.0217592921108007
2505967415.0,-0.2054081857204437,-0.2374314367771148,9.492615699768066,1.44041645526886,-0.3785399794578552,0.002740723080933
2505975748.0,-0.4312030673027038,-0.5485939383506775,9.703031539916992,1.5664896965026855,-0.8064001202583313,-0.1582063138484954
2505984081.0,-0.2395740300416946,-0.5675854682922363,9.642606735229492,1.566797137260437,-1.3417888879776,-0.1441441029310226
