SampleTimeFine,Acc_X,Acc_Y,Acc_Z,Gyr_X,Gyr_Y,Gyr_Z
3993349584.0,0.0,0.0,0.0,0.0,0.0,0.0
3993357917.0,-0.3639382421970367,-0.1486637592315673,9.865614891052246,1.7085206508636477,-3.2949254512786865,0.5099281668663025
3993366250.0,-0.4361243844032287,0.0640590637922287,9.963685035705566,1.764897704124451,-2.8983407020568848,0.3341633677482605
3993374583.0,-0.7156985402107239,0.0794838294386863,10.2069730758667,1.8126938343048096,-2.6981136798858643,0.4639762639999389
3993382916.0,-0.7622309923171997,-0.1286149770021438,10.183320999145508,1.7813420295715332,-3.1333255767822266,0.541254460811615
3993391249.0,-0.5710715651512146,-0.1292166709899902,9.991460800170898,1.6324976682662964,-3.320795774459839,0.3652845919132232
3993399582.0,-0.4792767465114593,0.0517605505883693,9.967702865600586,1.8021153211593628,-3.0998988151550293,0.471199482679367
3993407915.0,-0.6131079196929932,0.0715458020567894,10.121468544006348,1.7516549825668335,-2.8068206310272217,0.5153326988220215
3993416248.0,-0.6601169109344482,-0.1596191227436065,10.123690605163574,1.7298060655593872,-3.1970791816711426,0.55126953125
3993424581.0,-0.4372442960739136,-0.1901618391275406,9.960098266601562,1.7365938425064087,-3.4435136318206787,0.4421785175800323
3993432914.0,-0.3275452852249145,0.0399433970451355,9.88793659210205,1.69292151927948,-3.2100398540496826,0.3547315299510956
3993441247.0,-0.528957188129425,0.1536566615104675,10.067416191101074,1.7593904733657837,-2.651470184326172,0.4718910455703735
3993449580.0,-0.7877240180969238,-0.0574012324213981,10.224474906921388,1.7342888116836548,-2.839888572692871,0.4158471226692199
3993457913.0,-0.7467065453529358,-0.2677226066589355,10.084853172302246,1.7367218732833862,-3.353991985321045,0.4282956123352051
3993466246.0,-0.4775948226451874,-0.1124209463596344,9.965411186218262,1.8124120235443115,-3.422945261001587,0.5266798734664917
3993474579.0,-0.4498534202575683,0.1533505022525787,10.010451316833496,1.904751539230347,-2.986504554748535,0.305552214384079
3993482912.0,-0.6316022872924805,0.1425774544477462,10.20404815673828,1.771582841873169,-2.970290422439575,0.4505800604820251
3993491245.0,-0.6266142129898071,-0.1431082487106323,10.10503101348877,1.6574968099594116,-3.2068119049072266,0.5635899305343628
3993499578.0,-0.4077662825584411,-0.1934407204389572,9.89517307281494,1.6744792461395264,-3.378197193145752,0.5207117795944214
3993507911.0,-0.3581851124763489,0.0565318651497364,9.92449188232422,1.7413582801818848,-3.006150960922241,0.3814216256141662
3993516244.0,-0.5694656372070312,0.1235971897840499,10.1676025390625,1.7160768508911133,-2.6230382919311523,0.3293478190898895
3993524577.0,-0.7648411989212036,-0.0583216845989227,10.2083101272583,1.823247075080872,-2.903207302093506,0.4973772764205932
3993532910.0,-0.640133798122406,-0.1855092495679855,10.046249389648438,1.565388321876526,-3.3081679344177246,0.4502469897270202
3993541243.0,-0.506615400314331,-0.0055819191038608,9.955962181091309,1.7174086570739746,-3.2626254558563232,0.4989907741546631
3993549576.0,-0.5708943605422974,0.0917320400476455,10.078913688659668,1.6928448677062988,-2.8825366497039795,0.4347504377365112
3993557909.0,-0.6661550998687744,-0.039146602153778,10.171813011169434,1.699888825416565,-2.9814844131469727,0.4674085676670074
3993566242.0,-0.5379953980445862,-0.1902175098657608,10.023838996887209,1.6335476636886597,-3.4565765857696533,0.4538073241710663
3993574575.0,-0.3339617550373077,-0.0696359351277351,9.897104263305664,1.6387474536895752,-3.233861207962036,0.4455595910549164
3993582908.0,-0.424690693616867,0.1233078315854072,9.960874557495115,1.709980845451355,-2.7044920921325684,0.3552182018756866
3993591241.0,-0.6918259263038635,-0.0161411296576261,10.159610748291016,1.70161771774292,-2.5316853523254395,0.4261312782764435
3993599574.0,-0.8143367171287537,-0.2599838674068451,10.10732078552246,1.6454455852508545,-3.0438671112060547,0.4253115355968475
3993607907.0,-0.5935748815536499,-0.2055931538343429,9.986038208007812,1.746596097946167,-3.3972926139831543,0.5393717288970947
3993616240.0,-0.439245343208313,0.0980326831340789,10.015050888061523,1.738924860954285,-3.163729667663574,0.4612355828285217
3993624573.0,-0.5476067662239075,0.1813909411430359,10.149908065795898,1.7542420625686646,-2.885200023651123,0.4464048147201538
3993632906.0,-0.6304560899734497,-0.0755579620599746,10.139145851135254,1.659597396850586,-3.0757699012756348,0.6144598126411438
3993641239.0,-0.5064710378646851,-0.2725510001182556,9.930315017700195,1.641385555267334,-3.352403402328491,0.4242997467517853
3993649572.0,-0.3742968142032623,-0.0707635059952735,9.856678009033203,1.68239426612854,-3.1122961044311523,0.5619251728057861
3993657905.0,-0.5669320821762085,0.1330461353063583,10.097713470458984,1.753832221031189,-2.6245243549346924,0.4529621303081512
3993666238.0,-0.7711589932441711,0.0457855015993118,10.238990783691406,1.6621078252792358,-2.7333078384399414,0.5224535465240479
3993674571.0,-0.7164250612258911,-0.16127610206604,10.121150970458984,1.650888442993164,-3.2423136234283447,0.526372492313385
3993682904.0,-0.4919362962245941,-0.0931333154439926,9.965747833251951,1.6353919506072998,-3.3116767406463623,0.4892574548721313
3993691237.0,-0.450350284576416,0.0527195706963539,9.9722318649292,1.6614415645599363,-2.924773931503296,0.3736604452133178
3993699570.0,-0.6060577034950256,-0.0024759357329458,10.162338256835938,1.7861063480377195,-2.938093662261963,0.4077530205249786
3993707903.0,-0.5815706253051758,-0.2097062617540359,10.10618019104004,1.607549071311951,-3.277071952819824,0.5810332298278809
3993716236.0,-0.3939670324325561,-0.1581494212150573,9.927687644958496,1.756521701812744,-3.3844470977783203,0.4979406893253326
3993724569.0,-0.3824000656604767,0.1155204102396965,9.918817520141602,1.7739652395248413,-2.889989852905273,0.517791748046875
3993732902.0,-0.6687762141227722,0.0974582210183143,10.10318088531494,1.709391713142395,-2.537538290023804,0.3982501327991485
3993741235.0,-0.8486152291297913,-0.2119415402412414,10.162335395812988,1.7325341701507568,-2.957061290740967,0.4306649565696716
3993749568.0,-0.6509940028190613,-0.2997533082962036,10.009771347045898,1.756137490272522,-3.413416862487793,0.5366438031196594
3993757901.0,-0.4291565120220184,-0.0562084466218948,9.917978286743164,1.7736061811447144,-3.294412612915039,0.3740189969539642
3993766234.0,-0.4496256709098816,0.1903571188449859,10.084515571594238,1.796915888786316,-2.8957791328430176,0.4367739856243133
3993774567.0,-0.6182815432548523,0.0315629839897155,10.192461013793944,1.6219446659088137,-2.9628117084503174,0.4820599257946014
3993782900.0,-0.5576046705245972,-0.216169849038124,10.063017845153809,1.6439985036849976,-3.391746997833252,0.5681493282318115
3993791233.0,-0.3685522973537445,-0.1593859195709228,9.861255645751951,1.7078288793563845,-3.274331569671631,0.3949202299118042
3993799566.0,-0.4500780701637268,0.0612046457827091,9.970111846923828,1.7965312004089355,-2.69949722290039,0.4503751099109649
3993807899.0,-0.6943814754486084,0.0759332776069641,10.179012298583984,1.7579820156097412,-2.682284355163574,0.3280927538871765
3993816232.0,-0.7756013870239258,-0.1255888640880584,10.18254852294922,1.6602380275726318,-3.0735676288604736,0.5014755725860596
3993824565.0,-0.5913882851600647,-0.1309420466423034,10.014473915100098,1.6552941799163818,-3.2382924556732178,0.4505544006824493
3993832898.0,-0.4952325522899627,0.0406426638364791,9.976000785827637,1.7417681217193604,-3.016165971755981,0.3673593699932098
3993841231.0,-0.5875073671340942,0.058474451303482,10.137887954711914,1.7353132963180542,-2.8721373081207275,0.3799871802330017
3993849564.0,-0.6656070947647095,-0.1294197738170623,10.17501735687256,1.5523252487182615,-3.1546876430511475,0.4991958439350128
3993857897.0,-0.4448292255401611,-0.2052014172077179,9.999384880065918,1.6352640390396118,-3.4920525550842285,0.5657159686088562
3993866230.0,-0.3048740327358246,-0.0012257121270522,9.896917343139648,1.846017837524414,-3.2436716556549072,0.390950083732605
3993874563.0,-0.5032517313957214,0.143182948231697,10.017730712890623,1.7670491933822632,-2.663816452026367,0.4060368537902832
3993882896.0,-0.7898768782615662,-0.0984006449580192,10.20033359527588,1.7615166902542114,-2.670527696609497,0.5498864054679871
3993891229.0,-0.7931486964225769,-0.2920017540454864,10.084253311157228,1.7338019609451294,-3.320129871368408,0.5626422762870789
3993899562.0,-0.5314850211143494,-0.1096406280994415,9.965046882629396,1.7843132019042969,-3.458241701126098,0.4688941538333893
3993907895.0,-0.4441393613815307,0.1568570435047149,10.03517246246338,1.8287283182144165,-2.997159957885742,0.3531690537929535
3993916228.0,-0.6068081855773926,0.1301167160272598,10.195538520812988,1.85027015209198,-2.8926799297332764,0.4435617625713348
3993924561.0,-0.6285659074783325,-0.1510076522827148,10.087529182434082,1.682573318481445,-3.197949886322021,0.5642558932304382
3993932894.0,-0.4451772570610046,-0.2116344720125198,9.856332778930664,1.657676100730896,-3.3754818439483643,0.5291900038719177
3993941227.0,-0.3958360552787781,0.0274982023984193,9.91518497467041,1.7169735431671145,-2.9361467361450195,0.4593400359153747
3993949560.0,-0.613860011100769,0.1608599126338958,10.141962051391602,1.876985788345337,-2.716735601425171,0.3695365786552429
3993957893.0,-0.7723895311355591,-0.0127496086061,10.251771926879885,1.6785651445388794,-2.9706623554229736,0.4982097446918487
3993966226.0,-0.6346755623817444,-0.1423050016164779,10.053322792053224,1.5735721588134766,-3.3520326614379883,0.568571925163269
3993974559.0,-0.4591942429542541,-0.0231807027012109,9.93703842163086,1.7307538986206057,-3.097388505935669,0.4000687897205353
3993982892.0,-0.5212786197662354,0.0642026737332344,10.046053886413574,1.741870641708374,-2.9616847038269043,0.3589835464954376
3993991225.0,-0.6406471133232117,-0.062286727130413,10.182114601135254,1.7497851848602295,-3.024285316467285,0.4710713326931
3993999558.0,-0.5513445138931274,-0.197907418012619,10.033864974975586,1.6167705059051514,-3.423201322555542,0.4722496271133423
3994007891.0,-0.3716912269592285,-0.042618278414011,9.923178672790527,1.7601075172424316,-3.3929250240325928,0.4327780604362488
3994016224.0,-0.4321245551109314,0.147785946726799,9.991368293762209,1.789231300354004,-2.7950894832611084,0.4930227398872375
3994024557.0,-0.7342038750648499,-0.0073796799406409,10.137125968933104,1.596816897392273,-2.601829767227173,0.3937419950962066
3994032890.0,-0.8188349008560181,-0.31071537733078,10.10874366760254,1.6231228113174438,-3.0455453395843506,0.4810096621513366
3994041223.0,-0.5750937461853027,-0.2739271223545074,9.965953826904297,1.7267065048217771,-3.4919495582580566,0.5341847538948059
3994049556.0,-0.4160602390766144,0.0390593856573104,9.943236351013184,1.814870953559876,-3.2274835109710693,0.3552694022655487
3994057889.0,-0.506322979927063,0.176636204123497,10.15590000152588,1.841766119003296,-2.8856360912323,0.378450334072113
3994066222.0,-0.6201821565628052,-0.0220318119972944,10.19820499420166,1.7155903577804563,-3.157556533813477,0.523273229598999
3994074555.0,-0.5170658826828003,-0.2324985861778259,9.949285507202148,1.6685622930526731,-3.401557445526123,0.4693552255630493
3994082888.0,-0.3870708048343658,-0.0897688418626785,9.894262313842772,1.741819143295288,-3.231581211090088,0.4367995262145996
3994091221.0,-0.5398886203765869,0.0804837942123413,10.056201934814451,1.8832097053527832,-2.837071180343628,0.3587785959243774
3994099554.0,-0.7691560387611389,0.0166975371539592,10.231427192687988,1.760312795639038,-2.743374347686768,0.4354420304298401
3994107887.0,-0.7265550494194031,-0.1512762755155563,10.113041877746582,1.6318060159683228,-3.278404235839844,0.3492244482040405
3994116220.0,-0.5022839903831482,-0.0858938992023468,9.998809814453123,1.6770663261413574,-3.256708860397339,0.5094927549362183
3994124553.0,-0.4735295176506042,0.0793412029743194,10.023116111755373,1.6676403284072876,-3.0920350551605225,0.3342145085334778
3994132886.0,-0.6110296249389648,0.0104548260569572,10.15491008758545,1.7029622793197632,-2.9078686237335205,0.3797822296619415
3994141219.0,-0.6055073738098145,-0.1844236999750137,10.119414329528809,1.7340580224990845,-3.239829063415528,0.5024744272232056
3994149552.0,-0.3942269384860992,-0.15902940928936,9.901025772094728,1.7289352416992188,-3.506678342819214,0.5702753067016602
3994157885.0,-0.3641121089458465,0.0900268629193306,9.940396308898926,1.800398826599121,-3.005920171737671,0.4097765386104584
3994166218.0,-0.645827054977417,0.1070345863699913,10.104143142700195,1.752090573310852,-2.594990968704224,0.4637201130390167
3994174551.0,-0.870853841304779,-0.1618228703737259,10.184056282043455,1.6505812406539917,-2.882689952850342,0.4486076831817627
3994182884.0,-0.6915265321731567,-0.2980897128582001,10.042214393615724,1.703449010848999,-3.3953843116760254,0.5922523140907288
3994191217.0,-0.4486713409423828,-0.0395958796143531,9.97348976135254,1.7817003726959229,-3.443257093429565,0.5136678218841553
3994199550.0,-0.414059042930603,0.1798501163721084,10.104042053222656,1.9416102170944207,-2.861404657363892,0.4252475500106811
3994207883.0,-0.5873646140098572,0.0555303357541561,10.193629264831545,1.7763729095458984,-2.877439498901367,0.5062653422355652
3994216216.0,-0.5720590949058533,-0.2125103324651718,10.05679988861084,1.73446786403656,-3.25804090499878,0.5554702877998352
3994224549.0,-0.4025714695453644,-0.1712589412927627,9.869726181030272,1.7386045455932615,-3.3479340076446533,0.4828923642635345
3994232882.0,-0.4666600823402405,0.0717309266328811,9.935420036315918,1.799425482749939,-2.8908612728118896,0.3701513409614563
3994241215.0,-0.6965813636779785,0.1060478538274765,10.196430206298828,1.8214282989501955,-2.667402744293213,0.3953557312488556
3994249548.0,-0.7862573266029358,-0.0985042080283165,10.199976921081545,1.6548333168029783,-2.990602731704712,0.5315210819244385
3994257881.0,-0.5747869610786438,-0.1462449878454208,10.01042652130127,1.6578428745269775,-3.342913627624512,0.5559441447257996
3994266214.0,-0.4566469490528106,0.0039354776963591,9.932984352111816,1.794661283493042,-3.2362172603607178,0.3452798724174499
3994274547.0,-0.5444686412811279,0.0568722337484359,10.07543659210205,1.6694718599319458,-2.8872110843658447,0.522491991519928
3994282880.0,-0.6446994543075562,-0.1019227430224418,10.168387413024902,1.6941126585006714,-3.1225032806396484,0.4114030003547668
3994291213.0,-0.4939531087875366,-0.1865138858556747,9.993088722229004,1.6696895360946655,-3.466361284255981,0.4767577350139618
3994299546.0,-0.3285049498081207,0.0279157180339097,9.897327423095703,1.8022173643112185,-3.247410774230957,0.3665396571159363
3994307879.0,-0.4943422079086303,0.1543800979852676,10.003425598144531,1.824412107467652,-2.6695921421051025,0.4981327950954437
3994316212.0,-0.7856453657150269,-0.0771396234631538,10.188579559326172,1.6939207315444946,-2.7636609077453613,0.438515692949295
3994324545.0,-0.7877167463302612,-0.3151919245719909,10.093088150024414,1.745328068733215,-3.358550786972046,0.5977849364280701
3994332878.0,-0.4881364703178406,-0.1802613884210586,9.972271919250488,1.7067532539367676,-3.450326919555664,0.3880300521850586
3994341211.0,-0.3893294930458069,0.1430930942296981,10.004825592041016,1.9115904569625848,-3.0479018688201904,0.4716348648071289
3994349544.0,-0.5376231670379639,0.1672062575817108,10.165452003479004,1.820762157440185,-2.7396602630615234,0.4233008623123169
3994357877.0,-0.6465258598327637,-0.1147853434085846,10.157812118530272,1.6954317092895508,-3.204148530960083,0.5971446633338928
3994366210.0,-0.4635071456432342,-0.2374215424060821,9.886957168579102,1.6077029705047607,-3.394436836242676,0.4590326845645904
3994374543.0,-0.3675945997238159,-0.0510792769491672,9.860563278198242,1.7706351280212402,-3.2166996002197266,0.5423301458358765
3994382876.0,-0.5840311646461487,0.1252850592136383,10.11434555053711,1.8241432905197144,-2.6483709812164307,0.4466353952884674
3994391209.0,-0.7725879549980164,0.0023573022335767,10.2613525390625,1.7692521810531616,-2.8609695434570312,0.6153052449226379
3994399542.0,-0.6839977502822876,-0.1747022420167923,10.106616020202637,1.6873120069503784,-3.2960522174835205,0.4856458306312561
3994407875.0,-0.4720330834388733,-0.0738582089543342,9.965219497680664,1.725041747093201,-3.2516114711761475,0.3986086845397949
3994416208.0,-0.498507559299469,0.0763793811202049,10.013107299804688,1.7609785795211792,-2.8984169960021973,0.4054733216762543
3994424541.0,-0.6610742211341858,-0.0290291644632816,10.164533615112305,1.710262417793274,-2.847419261932373,0.416333794593811
3994432874.0,-0.6046537756919861,-0.2016112506389618,10.097726821899414,1.7173832654953003,-3.2827072143554688,0.4666401445865631
3994441207.0,-0.3404677212238312,-0.10262331366539,9.878718376159668,1.673454761505127,-3.3884942531585693,0.4732742309570312
3994449540.0,-0.3557305037975311,0.130832627415657,9.935440063476562,1.805521845817566,-2.9465723037719727,0.4248377382755279
3994457873.0,-0.6744489073753357,0.0419369004666805,10.123013496398926,1.7332383394241333,-2.681387662887573,0.4255805611610412
3994466206.0,-0.8582974076271057,-0.2184006720781326,10.19264316558838,1.5459474325180054,-2.974696636199951,0.4715836942195892
3994474539.0,-0.632352888584137,-0.2724141776561737,10.01962947845459,1.7695850133895874,-3.4792962074279785,0.5077252984046936
3994482872.0,-0.3956170380115509,-0.0019132484449073,9.951272010803224,1.6951757669448853,-3.1670851707458496,0.3694597780704498
3994491205.0,-0.4762400984764099,0.2088754177093505,10.132797241210938,1.7891544103622437,-2.8114569187164307,0.3504796028137207
3994499538.0,-0.6298420429229736,0.0312895737588405,10.193187713623049,1.683956742286682,-3.1157543659210205,0.5183040499687195
3994507871.0,-0.5563524961471558,-0.2539429366588592,9.991095542907717,1.6695356369018557,-3.323561906814575,0.54117751121521
3994516204.0,-0.3866540491580963,-0.150329440832138,9.86793613433838,1.741434931755066,-3.2744596004486084,0.4885658919811249
3994524537.0,-0.4565792679786682,0.0984972864389419,9.98465633392334,1.8084932565689087,-2.74265718460083,0.3328570127487182
3994532870.0,-0.6998351812362671,0.1155954077839851,10.219736099243164,1.770980954170227,-2.568211078643799,0.5026921629905701
3994541203.0,-0.7397534847259521,-0.117014966905117,10.226629257202148,1.7177804708480835,-3.117713451385498,0.5478501319885254
3994549536.0,-0.5452368855476379,-0.131153330206871,10.015707015991213,1.6559346914291382,-3.4022746086120605,0.4608768820762634
3994557869.0,-0.4693649709224701,0.0284591261297464,9.930428504943848,1.6932547092437744,-3.0131947994232178,0.4348785281181335
3994566202.0,-0.5989111661911011,0.0596770793199539,10.102913856506348,1.7768596410751345,-2.8161697387695312,0.4277577698230743
3994574535.0,-0.6673804521560669,-0.1566254645586013,10.16624641418457,1.6781163215637207,-3.202073335647583,0.5920217633247375
3994582868.0,-0.4441915154457092,-0.1890894472599029,9.966812133789062,1.6671793460845947,-3.3506107330322266,0.448761373758316
3994591201.0,-0.3250412046909332,0.0538308471441268,9.894123077392578,1.6880292892456057,-3.0729780197143555,0.4126453101634979
3994599534.0,-0.5028529167175293,0.1511449068784713,10.050484657287598,1.7340070009231567,-2.6270344257354736,0.2496875673532486
3994607867.0,-0.790584146976471,-0.0821211263537406,10.193551063537598,1.6498639583587646,-2.658782958984375,0.5323662161827087
3994616200.0,-0.7673435211181641,-0.3336193859577179,10.061567306518556,1.633214831352234,-3.2389585971832275,0.5492460131645203
3994624533.0,-0.516732394695282,-0.1727977097034454,9.935218811035156,1.767791986465454,-3.415645360946656,0.4364665448665619
3994632866.0,-0.4477109611034393,0.14907868206501,10.018610954284668,1.9210419654846191,-2.9165775775909424,0.4329830110073089
3994641199.0,-0.6485053300857544,0.1464253515005111,10.199185371398926,1.80150043964386,-2.9732108116149902,0.4699700176715851
3994649532.0,-0.6555855870246887,-0.1364460885524749,10.118148803710938,1.6782832145690918,-3.1637680530548096,0.5732338428497314
3994657865.0,-0.4305450618267059,-0.2389256656169891,9.852718353271484,1.6300771236419678,-3.446139097213745,0.5187522768974304
3994666198.0,-0.3490061163902282,-0.0121993971988558,9.889691352844238,1.77550208568573,-3.0176005363464355,0.4993239343166351
3994674531.0,-0.5664438605308533,0.1181603074073791,10.139115333557127,1.7998096942901611,-2.593735933303833,0.4635151624679565
3994682864.0,-0.753119707107544,-0.0421353094279766,10.22619342803955,1.6737879514694214,-2.993267059326172,0.4304728507995605
3994691197.0,-0.6593862175941467,-0.172538548707962,10.07252311706543,1.6393749713897705,-3.211615085601806,0.5504370331764221
3994699530.0,-0.4865270555019378,-0.0090864673256874,9.913825035095217,1.6631964445114136,-3.18041729927063,0.3828431963920593
3994707863.0,-0.5365373492240906,0.083220787346363,10.04428768157959,1.7093018293380735,-2.909008502960205,0.3860193192958832
3994716196.0,-0.6782541871070862,-0.0322936177253723,10.15757656097412,1.7441500425338743,-2.9771552085876465,0.4989140629768371
3994724529.0,-0.5687217712402344,-0.2193452268838882,10.06074333190918,1.639490246772766,-3.459266424179077,0.6229894161224365
3994732862.0,-0.3118271827697754,-0.1211175546050071,9.89999771118164,1.6954573392868042,-3.358013153076172,0.4981712102890014
3994741195.0,-0.345978319644928,0.121531568467617,9.956485748291016,1.7779607772827148,-2.7846901416778564,0.2543237507343292
3994749528.0,-0.6590477824211121,0.0703122913837432,10.149812698364258,1.7054213285446167,-2.506519556045532,0.4352626800537109
3994757861.0,-0.8222092986106873,-0.2463920712471008,10.156607627868652,1.7556766271591189,-2.99759578704834,0.5633083581924438
3994766194.0,-0.6088941097259521,-0.277664452791214,10.025106430053713,1.7321369647979736,-3.426941156387329,0.545634388923645
3994774527.0,-0.4495550990104675,0.0145569508895277,9.969564437866213,1.8224782943725584,-3.277174472808838,0.3425391018390655
3994782860.0,-0.5388475060462952,0.1872548162937164,10.134519577026367,1.853676438331604,-2.8626596927642822,0.3370577394962311
3994791193.0,-0.661288857460022,-0.0149924913421273,10.203339576721191,1.7569061517715454,-3.1258974075317383,0.5845169425010681
3994799526.0,-0.5254639983177185,-0.2136615365743637,9.982467651367188,1.705459713935852,-3.2397139072418213,0.4894239902496338
3994807859.0,-0.3648256361484527,-0.0782002508640289,9.89979362487793,1.6892973184585571,-3.145018577575684,0.4770267009735107
3994816192.0,-0.451197862625122,0.1167526170611381,10.018778800964355,1.7671772241592407,-2.803618669509888,0.4410771131515503
3994824525.0,-0.688626229763031,0.0614004023373127,10.238802909851074,1.8142051696777344,-2.792297601699829,0.5142313838005066
3994832858.0,-0.7265424132347107,-0.1397594064474105,10.156631469726562,1.6212786436080933,-3.228943347930908,0.4906662702560425
3994841191.0,-0.5480329394340515,-0.1051370501518249,9.996658325195312,1.7136690616607666,-3.333756685256958,0.4803181290626526
3994849524.0,-0.5099178552627563,0.0785442143678665,9.99862289428711,1.794687032699585,-3.0283071994781494,0.3730969429016113
3994857857.0,-0.6295191645622253,0.0481738187372684,10.184208869934082,1.6996837854385376,-2.8596115112304688,0.4496834874153137
3994866190.0,-0.5965856909751892,-0.1422191262245178,10.129067420959473,1.610238790512085,-3.24700140953064,0.5136422514915466
3994874523.0,-0.3999828994274139,-0.157349556684494,9.933781623840332,1.7452768087387085,-3.419102907180786,0.5374890565872192
3994882856.0,-0.3198390901088714,0.0719501823186874,9.907764434814451,1.7989903688430786,-3.0065863132476807,0.3163102269172668
3994891189.0,-0.5555281043052673,0.0853948071599006,10.089292526245115,1.7431769371032717,-2.599191904067993,0.3359050452709198
3994899522.0,-0.7842527031898499,-0.1647259891033172,10.186731338500977,1.7096989154815674,-2.900030851364136,0.4422809779644012
3994907855.0,-0.6715702414512634,-0.3018549680709839,10.00830078125,1.669945478439331,-3.381911039352417,0.521377682685852
3994916188.0,-0.4923740029335022,-0.0642832666635513,9.96364688873291,1.7760268449783323,-3.287663698196411,0.3776434659957886
3994924521.0,-0.4940201938152313,0.186997190117836,10.12472438812256,1.838833212852478,-2.9389259815216064,0.3972639143466949
3994932854.0,-0.630476713180542,0.0586012005805969,10.186851501464844,1.6813697814941406,-2.963502883911133,0.4783458411693573
3994941187.0,-0.5755282640457153,-0.2043715715408325,10.059452056884766,1.7374902963638306,-3.297691583633423,0.6008330583572388
3994949520.0,-0.3954960703849792,-0.1711902320384979,9.84749984741211,1.7288583517074585,-3.432294607162476,0.5335444808006287
3994957853.0,-0.4330899715423584,0.0607839375734329,9.942891120910645,1.8279855251312256,-2.839351177215576,0.3966876864433288
3994966186.0,-0.6915648579597473,0.0966412499547004,10.190434455871582,1.8241691589355469,-2.697140455245972,0.3984293937683105
3994974519.0,-0.791793704032898,-0.0838533267378807,10.223116874694824,1.6747101545333862,-2.99936318397522,0.4365690350532532
3994982852.0,-0.6168293952941895,-0.1148158758878707,9.993096351623535,1.6747097969055176,-3.352710962295532,0.4550368785858154
3994991185.0,-0.5025068521499634,0.0042142895981669,9.973846435546877,1.65690815448761,-3.106610059738159,0.4782946109771728
3994999518.0,-0.5916546583175659,0.0443726144731044,10.08656406402588,1.7090585231781006,-2.830359935760498,0.4066003561019897
3995007851.0,-0.637848973274231,-0.138306513428688,10.15026569366455,1.7160255908966064,-3.241698980331421,0.5347228050231934
3995016184.0,-0.4564380347728729,-0.173447385430336,9.95051097869873,1.6902830600738523,-3.3566808700561523,0.4468658864498138
3995024517.0,-0.3047889173030853,0.0245899297297,9.893345832824709,1.8844903707504272,-3.15978479385376,0.4330598413944244
3995032850.0,-0.5042162537574768,0.1557782143354416,10.042936325073242,1.7403849363327026,-2.703723430633545,0.3348549008369446
3995041183.0,-0.7942730188369751,-0.0921435803174972,10.191880226135254,1.712695837020874,-2.718348979949951,0.5563668012619019
3995049516.0,-0.7719054222106934,-0.3095985651016235,10.102274894714355,1.802140712738037,-3.2493064403533936,0.4637457430362701
3995057849.0,-0.5415748953819275,-0.1399320065975189,9.967166900634766,1.7221986055374146,-3.3956148624420166,0.3959448039531708
3995066182.0,-0.4704493880271911,0.1573377400636673,10.031342506408691,1.839384078979492,-3.039372205734253,0.320715844631195
3995074515.0,-0.604878842830658,0.1380674540996551,10.192935943603516,1.7293964624404907,-3.01158094406128,0.5517818331718445
3995082848.0,-0.6083228588104248,-0.1276241689920425,10.144394874572754,1.6343672275543213,-3.246796131134033,0.6638953685760498
3995091181.0,-0.3992982804775238,-0.1995332241058349,9.899520874023438,1.7374646663665771,-3.327608823776245,0.4025020599365234
3995099514.0,-0.3821746110916137,0.0237955283373594,9.904160499572754,1.714591145515442,-2.8992621898651123,0.3912830352783203
3995107847.0,-0.5815901756286621,0.1188013181090354,10.14967918395996,1.7418193817138672,-2.609898328781128,0.2919766902923584
3995116180.0,-0.7581948637962341,-0.0388326309621334,10.239344596862791,1.753294587135315,-2.987170934677124,0.4125172793865204
3995124513.0,-0.6383626461029053,-0.1331994235515594,10.050469398498535,1.6641311645507812,-3.3430800437927246,0.5343385338783264
3995132846.0,-0.5099009871482849,0.008487544953823,9.979287147521973,1.6995174884796145,-3.190227746963501,0.4209828078746795
3995141179.0,-0.5820897817611694,0.1080472022294998,10.091012954711914,1.7491194009780884,-2.9728012084960938,0.4688942432403564
3995149512.0,-0.6833747029304504,-0.0305335894227027,10.165190696716309,1.598251461982727,-3.114473342895508,0.4507337510585785
3995157845.0,-0.5169838666915894,-0.2152474224567413,10.02277660369873,1.65035080909729,-3.421844005584717,0.5305988788604736
3995166178.0,-0.3198395669460296,-0.0395108796656131,9.876591682434082,1.7460196018218994,-3.35084080696106,0.3467398285865783
3995174511.0,-0.40003302693367,0.1447003781795501,9.99936866760254,1.7340326309204102,-2.810022354125977,0.4510667026042938
3995182844.0,-0.6965302228927612,0.0205349680036306,10.172613143920898,1.642000436782837,-2.757718086242676,0.4200478494167328
3995191177.0,-0.7912883162498474,-0.2474836409091949,10.131528854370115,1.6022473573684692,-3.0187530517578125,0.5107479095458984
3995199510.0,-0.5482958555221558,-0.1841938644647598,9.95295524597168,1.6454071998596191,-3.4316797256469727,0.5539847016334534
3995207843.0,-0.4603794813156128,0.0848122388124466,9.96799087524414,1.8051377534866333,-3.048004627227783,0.3605715930461883
3995216176.0,-0.5817952156066895,0.1625990122556686,10.14794635772705,1.6907191276550293,-2.8928847312927246,0.3845465779304504
3995224509.0,-0.6467499732971191,-0.0766200348734855,10.154621124267578,1.6088943481445312,-3.209745645523072,0.5207502245903015
3995232842.0,-0.4670279622077942,-0.2131571322679519,9.919500350952148,1.5959458351135254,-3.398329734802246,0.4753232300281524
3995241175.0,-0.3571681380271911,-0.038708109408617,9.900224685668944,1.7783708572387695,-3.0834801197052,0.4133625328540802
3995249508.0,-0.5290805697441101,0.1001320257782936,10.090411186218262,1.7979655265808103,-2.7282872200012207,0.4194842875003814
3995257841.0,-0.7352805137634277,-0.0230217613279819,10.206852912902832,1.6959184408187866,-2.890374183654785,0.4978381991386413
3995266174.0,-0.6504130363464355,-0.1730459034442901,10.068151473999023,1.6853910684585571,-3.2509970664978027,0.4290128052234649
3995274507.0,-0.503325879573822,-0.0870316624641418,9.972711563110352,1.608228087425232,-3.187665700912476,0.5060988068580627
3995282840.0,-0.5268850326538086,0.0378032885491848,10.048209190368652,1.732931137084961,-2.974440574645996,0.4120050072669983
3995291173.0,-0.66554194688797,-0.0490719601511955,10.18558120727539,1.7204314470291138,-3.04341983795166,0.4246840476989746
3995299506.0,-0.5464088916778564,-0.2185135334730148,10.038442611694336,1.6216883659362793,-3.2651360034942627,0.5399993062019348
3995307839.0,-0.3440949320793152,-0.1334782242774963,9.88809299468994,1.807775616645813,-3.270232915878296,0.5109014511108398
3995316172.0,-0.375708132982254,0.0682619586586952,9.982284545898438,1.745021104812622,-2.7844083309173584,0.3277597725391388
3995324505.0,-0.6580682396888733,-0.00035583646968,10.13579273223877,1.7054215669631958,-2.6769821643829346,0.4286030232906341
3995332838.0,-0.7995693683624268,-0.2510436177253723,10.142005920410156,1.7578282356262207,-3.007943868637085,0.4354420304298401
3995341171.0,-0.6215664148330688,-0.2739562094211578,9.984036445617676,1.6595078706741333,-3.253391742706299,0.6058406829833984
3995349504.0,-0.4707366824150085,0.009858458302915,9.999552726745604,1.807686448097229,-3.043637275695801,0.3345347046852112
3995357837.0,-0.5756233334541321,0.1713640540838241,10.163618087768556,1.8314052820205688,-2.7795543670654297,0.4712635278701782
3995366170.0,-0.6472936272621155,-0.0590426996350288,10.209545135498049,1.7248883247375488,-3.0825836658477783,0.4857483804225921
3995374503.0,-0.5114036202430725,-0.2390205562114715,10.00270938873291,1.7492471933364868,-3.3244073390960693,0.5659465193748474
3995382836.0,-0.3748624622821808,-0.0735012739896774,9.900514602661133,1.8712223768234253,-3.1537909507751465,0.4113133549690246
3995391169.0,-0.5059119462966919,0.1064677685499191,10.023051261901855,1.868712067604065,-2.829258441925049,0.4509385824203491
3995399502.0,-0.7414376735687256,0.0248871129006147,10.202926635742188,1.788053035736084,-2.8099968433380127,0.4648727774620056
3995407835.0,-0.7277019619941711,-0.1552836149930954,10.125511169433594,1.6977115869522097,-3.143699407577514,0.4831101298332214
3995416168.0,-0.5472472310066223,-0.0548573210835456,9.981815338134766,1.6804733276367188,-3.186884880065918,0.4961477816104889
3995424501.0,-0.5494011044502258,0.0823084414005279,10.014025688171388,1.7371317148208618,-2.909098148345948,0.4440996646881103
3995432834.0,-0.6911349892616272,0.0559461191296577,10.197369575500488,1.7048068046569824,-3.006919384002685,0.50567626953125
3995441167.0,-0.6064186692237854,-0.1544991880655288,10.102240562438965,1.739949345588684,-3.3933098316192627,0.406421035528183
3995449500.0,-0.3449463844299316,-0.0921389758586883,9.919050216674805,1.781508445739746,-3.451927900314331,0.4272838234901428
3995457833.0,-0.2985148131847381,0.1186613142490387,9.911497116088867,1.7679842710494995,-2.9820096492767334,0.4689838588237762
3995466166.0,-0.5657506585121155,0.0881875902414321,10.08695125579834,1.843392252922058,-2.6996893882751465,0.3783094584941864
3995474499.0,-0.7821146249771118,-0.18314129114151,10.1566801071167,1.6569594144821167,-2.8958303928375244,0.5474019050598145
3995482832.0,-0.6358962059020996,-0.2356091290712356,10.016823768615724,1.715538740158081,-3.466361284255981,0.5088010430335999
3995491165.0,-0.4896838366985321,0.0417852215468883,10.001437187194824,1.8095943927764893,-3.3501241207122803,0.3563195765018463
3995499498.0,-0.5028705596923828,0.1966755390167236,10.110631942749023,1.8377318382263184,-2.956625938415528,0.4190617203712463
3995507831.0,-0.6269557476043701,0.0400896146893501,10.166104316711426,1.6266320943832395,-2.99751877784729,0.4732742607593536
3995516164.0,-0.5268241167068481,-0.2034486681222915,9.974621772766112,1.5850600004196167,-3.3717169761657715,0.568226158618927
3995524497.0,-0.354158490896225,-0.0851451307535171,9.872668266296388,1.738028049468994,-3.228379487991333,0.4661789834499359
3995532830.0,-0.4447413980960846,0.1158744022250175,9.987875938415527,1.8009625673294067,-2.867629051208496,0.4320609271526336
3995541163.0,-0.6835491061210632,0.0782740414142608,10.196176528930664,1.8459413051605225,-2.775008201599121,0.4166923761367798
3995549496.0,-0.7122789621353149,-0.0850594416260719,10.144495010375977,1.6481735706329346,-3.0960309505462646,0.4167692363262176
3995557829.0,-0.54327791929245,-0.0549100302159786,9.996817588806152,1.5462673902511597,-3.1975786685943604,0.4624009728431701
3995566162.0,-0.5340645909309387,0.0795259997248649,9.996634483337402,1.693510890007019,-3.025771379470825,0.4245047569274902
3995574495.0,-0.6481021046638489,0.0285241045057773,10.154936790466309,1.6477125883102417,-2.9362497329711914,0.4862350225448608
3995582828.0,-0.6173524856567383,-0.1531306207180023,10.098621368408203,1.6137735843658447,-3.2290968894958496,0.5974520444869995
3995591161.0,-0.4106994569301605,-0.1529117673635482,9.92538833618164,1.568359375,-3.419999361038208,0.4919981658458709
3995599494.0,-0.3345248103141784,0.0709548592567443,9.90902328491211,1.662773847579956,-3.01306676864624,0.3652846217155456
3995607827.0,-0.5981899499893188,0.0838435441255569,10.103761672973633,1.6358788013458252,-2.668042659759521,0.5221205353736877
3995616160.0,-0.8163095712661743,-0.1847599297761917,10.177058219909668,1.580795407295227,-2.978654146194458,0.4914731383323669
3995624493.0,-0.6378655433654785,-0.311226338148117,10.006256103515623,1.685711145401001,-3.328108787536621,0.5490795373916626
3995632826.0,-0.4721434712409973,-0.0656083673238754,10.00289821624756,1.8074429035186768,-3.192058801651001,0.4180755317211151
3995641159.0,-0.5058256387710571,0.1193175166845321,10.117416381835938,1.7171015739440918,-2.900696992874145,0.3464581668376922
3995649492.0,-0.6187431812286377,-0.0191611591726541,10.201210975646973,1.7481204271316528,-3.016242742538452,0.5522685647010803
3995657825.0,-0.5317188501358032,-0.2460017502307891,10.01401138305664,1.6595460176467896,-3.4083704948425293,0.4487100839614868
3995666158.0,-0.38955819606781,-0.1521406918764114,9.884504318237305,1.689578890800476,-3.250395059585572,0.4348912835121155
3995674491.0,-0.4527791142463684,0.0487530343234539,10.012496948242188,1.7765010595321655,-2.7485995292663574,0.3415914475917816
3995682824.0,-0.6797419190406799,0.0138663882389664,10.229037284851074,1.6777580976486206,-2.8387105464935303,0.4693809151649475
3995691157.0,-0.7175918817520142,-0.1816072613000869,10.132611274719238,1.7001830339431765,-3.238099813461304,0.5763330459594727
3995699490.0,-0.5511338114738464,-0.1512497812509536,9.954326629638672,1.7393345832824707,-3.2244606018066406,0.4706359505653381
3995707823.0,-0.5114709734916687,0.0029740736354142,9.998647689819336,1.719330072402954,-3.028102397918701,0.4697394967079162
3995716156.0,-0.6485906839370728,0.003888061735779,10.139941215515137,1.7126448154449463,-2.8686792850494385,0.3664116263389587
3995724489.0,-0.6492257714271545,-0.1811200529336929,10.132318496704102,1.688259840011597,-3.255377054214477,0.5402810573577881
3995732822.0,-0.4142057597637176,-0.1819605529308319,9.927610397338867,1.7002471685409546,-3.4218435287475586,0.4635407626628876
3995741155.0,-0.3174649775028229,0.0357372276484966,9.872169494628906,1.778191328048706,-3.04142165184021,0.3911037743091583
3995749488.0,-0.5469642877578735,0.0801130011677742,10.034316062927246,1.7144887447357178,-2.667581796646118,0.4294227063655853
3995757821.0,-0.7823617458343506,-0.1428977400064468,10.192813873291016,1.673070788383484,-2.78192400932312,0.5053433179855347
3995766154.0,-0.7207604050636292,-0.2955496311187744,10.022601127624512,1.7352365255355835,-3.138986110687256,0.5488874316215515
3995774487.0,-0.5134676694869995,-0.0741859450936317,9.95521354675293,1.7906912565231323,-3.137603044509888,0.3879275918006897
3995782820.0,-0.5155720710754395,0.1713996082544326,10.07399845123291,1.8840810060501096,-3.0297672748565674,0.419202595949173
3995791153.0,-0.6529088616371155,0.0544144697487354,10.172636032104492,1.838756084442139,-3.0547022819519043,0.4792038798332214
3995799486.0,-0.5747923851013184,-0.1888699680566787,10.04311180114746,1.6913591623306274,-3.3662867546081543,0.5579292178153992
3995807819.0,-0.3897424638271332,-0.1210267841815948,9.855745315551758,1.8117971420288088,-3.374688148498535,0.5071618556976318
3995816152.0,-0.4288264811038971,0.0993340462446212,9.97684097290039,1.7426518201828003,-2.8029916286468506,0.3587402105331421
3995824485.0,-0.6550359725952148,0.1242991462349891,10.173077583312988,1.7912548780441284,-2.687227725982666,0.5368230938911438
3995832818.0,-0.7632390260696411,-0.0621353313326835,10.156853675842283,1.7119019031524658,-3.0621438026428223,0.4921519458293915
3995841151.0,-0.5822792649269104,-0.0721924006938934,10.049141883850098,1.681190013885498,-3.309986114501953,0.5303170084953308
3995849484.0,-0.5110349655151367,0.0798111036419868,9.98222827911377,1.7782939672470093,-3.089064359664917,0.3973536491394043
3995857817.0,-0.6184125542640686,0.1024795249104499,10.129030227661133,1.8242204189300537,-2.934046983718872,0.4433055818080902
3995866150.0,-0.6508293151855469,-0.096505083143711,10.168865203857422,1.6849300861358645,-3.157787084579468,0.5081864595413208
3995874483.0,-0.4330292046070099,-0.1272414475679397,9.98868465423584,1.6163606643676758,-3.5102643966674805,0.5222741961479187
3995882816.0,-0.3077921271324157,0.0996167659759521,9.933032989501951,1.6880550384521484,-3.103663921356201,0.4307033717632293
3995891149.0,-0.5048673748970032,0.1896090060472488,10.063121795654297,1.6233534812927246,-2.7020840644836426,0.4506824612617492
3995899482.0,-0.7539198994636536,-0.0582570843398571,10.18908977508545,1.5654395818710327,-2.7369961738586426,0.6060327887535095
3995907815.0,-0.7472323775291443,-0.253269612789154,10.05006504058838,1.6579837799072266,-3.2928247451782227,0.5612078309059143
3995916148.0,-0.5378708243370056,-0.0975445508956909,9.982093811035156,1.6827527284622192,-3.305094242095948,0.4648214876651764
3995924481.0,-0.4761040806770324,0.1725663989782333,10.081398963928224,1.7969156503677368,-2.9875807762146,0.3634404242038727
3995932814.0,-0.6164700388908386,0.1259398907423019,10.25388526916504,1.6879781484603882,-2.9151434898376465,0.3724566102027893
3995941147.0,-0.6067281365394592,-0.1607467234134674,10.109563827514648,1.6341110467910769,-3.269669532775879,0.4498627185821533
3995949480.0,-0.4147937297821045,-0.1609218120574951,9.89853858947754,1.6875425577163696,-3.376737356185913,0.6044190526008606
3995957813.0,-0.4164073169231415,0.0591364167630672,9.947702407836914,1.6973530054092407,-2.986684083938598,0.3717650175094604
3995966146.0,-0.6148054003715515,0.0897027850151062,10.171138763427734,1.736209750175476,-2.7231900691986084,0.3852124512195587
3995974479.0,-0.7466680407524109,-0.0838807374238967,10.182504653930664,1.5437957048416138,-2.9446001052856445,0.5049334168434143
3995982812.0,-0.6127045750617981,-0.1612943410873413,10.018020629882812,1.632279872894287,-3.3147635459899902,0.4973900020122528
3995991145.0,-0.5006923079490662,-0.0282214675098657,9.980996131896973,1.6225337982177734,-3.1117067337036133,0.4134905934333801
3995999478.0,-0.6195842623710632,0.0179080311208963,10.066240310668944,1.6704834699630735,-2.810432195663452,0.3294503092765808
3996007811.0,-0.7008184790611267,-0.1370985954999923,10.192317008972168,1.5852395296096802,-3.1178293228149414,0.3955862820148468
3996016144.0,-0.4767190217971802,-0.2138603180646896,10.000094413757324,1.5718557834625244,-3.4248533248901367,0.4157061576843261
3996024477.0,-0.2812755703926086,-0.0394207909703254,9.905651092529297,1.7219550609588623,-3.22908353805542,0.4547422528266907
3996032810.0,-0.4171094298362732,0.0774270445108413,10.010173797607422,1.737067699432373,-2.694310188293457,0.4928562641143799
3996041143.0,-0.6926319003105164,-0.1068442687392234,10.15564250946045,1.617167353630066,-2.726660966873169,0.576947808265686
3996049476.0,-0.7531383633613586,-0.3639589548110962,10.059337615966797,1.6655911207199097,-3.186858892440796,0.5122078657150269
3996057809.0,-0.5304903388023376,-0.1978100836277008,9.950300216674805,1.7708401679992676,-3.267672061920166,0.3966363966464996
3996066142.0,-0.5140792727470398,0.0876630842685699,10.06546115875244,1.7782169580459597,-2.9867606163024902,0.3590347170829773
3996074475.0,-0.6533159613609314,0.0848648101091384,10.212339401245115,1.7420756816864014,-2.8643505573272705,0.3968414068222046
3996082808.0,-0.625449538230896,-0.1952895075082779,10.119820594787598,1.6804218292236328,-3.2121405601501465,0.583953320980072
3996091141.0,-0.4166876375675201,-0.2728385031223297,9.87093734741211,1.7129775285720823,-3.3696420192718506,0.6333631873130798
3996099474.0,-0.3494324088096618,-0.0525000095367431,9.895893096923828,1.8474266529083248,-2.963682174682617,0.341796338558197
3996107807.0,-0.5416123270988464,0.0803111270070076,10.15770149230957,1.880981206893921,-2.6883294582366943,0.3799359500408172
3996116140.0,-0.7222083210945129,-0.0878743603825569,10.194011688232422,1.813820958137512,-3.071057081222534,0.4617222249507904
3996124473.0,-0.6067258715629578,-0.1763166189193725,10.057635307312012,1.808659315109253,-3.3767240047454834,0.6035609245300293
3996132806.0,-0.4955793619155884,-0.0205931067466735,9.973666191101074,1.81402587890625,-3.015115976333618,0.5423302054405212
3996141139.0,-0.5912312865257263,0.0678139552474021,10.06504726409912,1.79833722114563,-2.8330113887786865,0.5420100688934326
3996149472.0,-0.6986621618270874,-0.1051359474658966,10.17703628540039,1.7722488641738892,-3.052870988845825,0.5327247977256775
3996157805.0,-0.54471755027771,-0.2058052718639373,10.012295722961426,1.731035590171814,-3.4675142765045166,0.4484796226024627
3996166138.0,-0.3417922258377075,-0.0261823795735836,9.90172290802002,1.7896281480789185,-3.324394702911377,0.5379629135131836
3996174471.0,-0.4205754995346069,0.1736358404159546,9.992101669311523,1.703372359275818,-2.843116044998169,0.3548596203327179
3996182804.0,-0.6972172260284424,0.0080882841721177,10.196813583374023,1.6457146406173706,-2.7001376152038574,0.5630777478218079
3996191137.0,-0.8018503785133362,-0.2268533557653427,10.093643188476562,1.666718363761902,-3.1647286415100098,0.5799319744110107
3996199470.0,-0.5642691850662231,-0.1646268367767334,9.974360466003418,1.747223734855652,-3.399533987045288,0.4097508788108825
3996207803.0,-0.4693676829338074,0.1433225125074386,9.994690895080566,1.8830816745758057,-3.150973320007324,0.3136718869209289
3996216136.0,-0.5537778735160828,0.1945994794368744,10.182938575744627,1.827076435089112,-2.8703057765960693,0.3882734179496765
3996224469.0,-0.6354597210884094,-0.0664014965295791,10.168379783630373,1.6477636098861694,-3.265827417373657,0.4520143866539001
3996232802.0,-0.4668678939342499,-0.170584425330162,9.942782402038574,1.6442800760269165,-3.2943360805511475,0.5189700126647949
3996241135.0,-0.405914694070816,0.0223006233572959,9.902582168579102,1.7099294662475586,-3.002667188644409,0.4219944775104522
3996249468.0,-0.5669021606445312,0.1613056361675262,10.084062576293944,1.7547032833099363,-2.6825661659240723,0.4555748105049133
3996257801.0,-0.7490694522857666,-0.000108019914478,10.221778869628906,1.6614160537719729,-2.8464460372924805,0.5117723941802979
3996266134.0,-0.6391887068748474,-0.1061633229255676,10.055051803588867,1.638798475265503,-3.2695157527923584,0.5683797597885132
3996274467.0,-0.4757314324378967,-0.0029050717130303,9.995606422424316,1.6950733661651611,-3.1336328983306885,0.5325711965560913
3996282800.0,-0.5058051347732544,0.134901687502861,10.064552307128906,1.7217119932174685,-2.91104507446289,0.4436129629611969
3996291133.0,-0.6580614447593689,-0.0100852809846401,10.19632053375244,1.652092695236206,-3.0458016395568848,0.4231728017330169
3996299466.0,-0.5583866834640503,-0.1811758428812027,10.08202075958252,1.4885200262069702,-3.417976140975952,0.4860556423664093
3996307799.0,-0.3211947679519653,-0.0686044842004776,9.916309356689451,1.6927422285079956,-3.344488859176636,0.4894880354404449
3996316132.0,-0.3873261511325836,0.1540749222040176,9.954949378967283,1.612262487411499,-2.8934993743896484,0.4519631862640381
3996324465.0,-0.6927765011787415,0.053697969764471,10.122264862060549,1.5902342796325684,-2.656977653503418,0.5263981223106384
3996332798.0,-0.8176850080490112,-0.2437144070863723,10.115376472473145,1.6126466989517212,-2.966935634613037,0.4638226330280304
3996341131.0,-0.5992435812950134,-0.2480176836252212,9.991836547851562,1.7143094539642334,-3.3211026191711426,0.4546782672405243
3996349464.0,-0.4490027725696563,0.040541835129261,9.977827072143556,1.754523754119873,-3.1708500385284424,0.4851848483085632
3996357797.0,-0.5323584675788879,0.1668892502784729,10.149477005004885,1.789691925048828,-2.898481130599976,0.4183060228824615
3996366130.0,-0.6202965378761292,-0.069360427558422,10.196331977844238,1.6804733276367188,-3.05696964263916,0.4811121821403503
3996374463.0,-0.5033887624740601,-0.2579708099365234,9.969549179077148,1.651477575302124,-3.248153686523437,0.5121821761131287
3996382796.0,-0.3462470769882202,-0.1173491477966308,9.8626070022583,1.749298334121704,-3.204686164855957,0.3365197777748108
3996391129.0,-0.5048525929450989,0.0676584169268608,10.047418594360352,1.7298318147659302,-2.774393320083618,0.3689730763435364
3996399462.0,-0.7644696235656738,0.0036828101146966,10.244466781616213,1.6216756105422974,-2.768027782440185,0.48553067445755
3996407795.0,-0.7281272411346436,-0.1597012430429458,10.090461730957031,1.6607245206832886,-3.2038159370422363,0.4495042562484741
3996416128.0,-0.5476953387260437,-0.1292531937360763,9.98254108428955,1.686133861541748,-3.262933254241944,0.4711994528770447
3996424461.0,-0.5187740921974182,0.0175604596734046,9.98214340209961,1.652912139892578,-2.936505079269409,0.434750348329544
3996432794.0,-0.6701264977455139,-0.0147617366164922,10.156469345092772,1.6541931629180908,-2.952770948410034,0.4263489842414856
3996441127.0,-0.6558745503425598,-0.2265976965427398,10.10590362548828,1.6023751497268677,-3.3771471977233887,0.5105429291725159
3996449460.0,-0.3790105879306793,-0.1811048686504364,9.925883293151855,1.673301100730896,-3.451274871826172,0.5321613550186157
3996457793.0,-0.2845599055290222,0.0666625946760177,9.926250457763672,1.7706353664398191,-3.0055489540100098,0.3584199845790863
3996466126.0,-0.5441285967826843,0.0719180181622505,10.111726760864258,1.6874146461486816,-2.619171142578125,0.4215591251850128
3996474459.0,-0.8117368221282959,-0.2252543121576309,10.170780181884766,1.6519389152526855,-2.942755699157715,0.5015779733657837
3996482792.0,-0.7039732933044434,-0.3385368585586548,10.005370140075684,1.7270138263702393,-3.3240740299224854,0.5277043581008911
3996491125.0,-0.497581273317337,-0.0832217633724212,9.973620414733888,1.8693265914916992,-3.202739715576172,0.3976609706878662
3996499458.0,-0.5171753764152527,0.1768828332424163,10.081316947937012,1.8795212507247925,-2.89652156829834,0.3413096666336059
3996507791.0,-0.6734004020690918,0.0522439666092395,10.18908977508545,1.7520391941070557,-2.955101490020752,0.4986323118209839
3996516124.0,-0.5922592878341675,-0.2045810520648956,10.030319213867188,1.7235817909240725,-3.42053771018982,0.6143573522567749
3996524457.0,-0.3591682910919189,-0.151645228266716,9.841362953186035,1.737797737121582,-3.3240487575531006,0.5991169214248657
3996532790.0,-0.4019065797328949,0.0534361377358436,9.939678192138672,1.8596961498260496,-2.8547708988189697,0.3933066129684448
3996541123.0,-0.6358380317687988,0.0899041891098022,10.172420501708984,1.8314948081970213,-2.600472450256348,0.5327504277229309
3996549456.0,-0.7403542995452881,-0.1002994999289512,10.191105842590332,1.7502590417861938,-3.04627537727356,0.4982352554798126
3996557789.0,-0.5631468296051025,-0.1083629578351974,10.025157928466797,1.646303653717041,-3.319540739059448,0.5392820835113525
3996566122.0,-0.4718773663043976,0.0543259046971797,9.93539810180664,1.8006550073623655,-3.1070706844329834,0.496916115283966
3996574455.0,-0.6183149218559265,0.0852481797337532,10.121087074279783,1.7926636934280396,-2.801826238632202,0.5717353224754333
3996582788.0,-0.6959888935089111,-0.1030970513820648,10.156723022460938,1.7659224271774292,-3.082173585891724,0.3274780511856079
3996591121.0,-0.4817838370800018,-0.1874730437994003,9.97154712677002,1.696840524673462,-3.458395481109619,0.5109527707099915
3996599454.0,-0.2974761724472046,0.0369925312697887,9.90678882598877,1.8104652166366573,-3.2646493911743164,0.4469940066337585
3996607787.0,-0.4475715160369873,0.1895174384117126,10.04762363433838,1.806277751922608,-2.6923635005950928,0.439245730638504
3996616120.0,-0.7593297958374023,-0.0190330203622579,10.227405548095703,1.715769648551941,-2.759921073913574,0.4934839010238647
3996624453.0,-0.7541565895080566,-0.2578552365303039,10.085290908813477,1.6316137313842771,-3.2407381534576416,0.5266414284706116
3996632786.0,-0.5085747241973877,-0.125310406088829,9.950775146484377,1.772940158843994,-3.385624885559082,0.5050614476203918
3996641119.0,-0.4485214650630951,0.138990968465805,10.007271766662598,1.8494244813919067,-2.968625545501709,0.4309850931167602
3996649452.0,-0.6124818325042725,0.1694393008947372,10.198603630065918,1.8025635480880733,-2.839799404144287,0.4816629588603973
3996657785.0,-0.6254605054855347,-0.1017336249351501,10.14845848083496,1.646803379058838,-3.1896896362304688,0.5506420731544495
3996666118.0,-0.4351779818534851,-0.2005415111780166,9.892549514770508,1.657176852226257,-3.367887496948242,0.4678568243980407
3996674451.0,-0.3682432770729065,0.0187888480722904,9.883692741394045,1.6921274662017822,-2.9602243900299072,0.4320865273475647
3996682784.0,-0.5670940279960632,0.137971743941307,10.105463981628418,1.7731196880340576,-2.672217845916748,0.4929971396923065
3996691117.0,-0.7787659764289856,-0.0375814922153949,10.212343215942385,1.6635804176330566,-2.823047161102295,0.4004144966602325
3996699450.0,-0.6599984765052795,-0.1609531641006469,10.05829620361328,1.6877729892730713,-3.2215912342071533,0.5265005230903625
3996707783.0,-0.5115060210227966,-0.0283172950148582,9.961098670959473,1.602605938911438,-3.1810190677642822,0.4216615855693817
3996716116.0,-0.5461105108261108,0.0925081670284271,10.077357292175291,1.683009147644043,-2.922597169876098,0.3267608284950256
3996724449.0,-0.6776785254478455,-0.0381736159324646,10.18581485748291,1.6271188259124756,-3.034121513366699,0.4972491860389709
3996732782.0,-0.5622483491897583,-0.2297514230012893,10.037701606750488,1.5779904127120972,-3.3575005531311035,0.5242977142333984
3996741115.0,-0.3361832499504089,-0.1146895065903663,9.877493858337402,1.7226340770721436,-3.4586002826690674,0.4664608240127563
3996749448.0,-0.3743050992488861,0.1001889482140541,9.96464729309082,1.7536786794662476,-2.90633225440979,0.4012213945388794
3996757781.0,-0.6871516704559326,0.037212960422039,10.157029151916504,1.770174264907837,-2.583899974822998,0.4292689859867096
3996766114.0,-0.8495122790336609,-0.2591694295406341,10.17249584197998,1.5837795734405518,-2.981100082397461,0.4557797610759735
3996774447.0,-0.5909674167633057,-0.2713640928268432,9.96828269958496,1.7044992446899414,-3.368207693099976,0.4777566790580749
3996782780.0,-0.4482448697090149,0.0126755014061927,9.949366569519045,1.6665390729904177,-3.1547133922576904,0.3848026692867279
3996791113.0,-0.5568562150001526,0.1268834918737411,10.136242866516112,1.7204313278198242,-2.908893346786499,0.5061885118484497
3996799446.0,-0.6496432423591614,-0.0714005455374717,10.18999195098877,1.6705349683761597,-3.0928549766540527,0.4670499861240387
3996807779.0,-0.50345379114151,-0.2510483562946319,9.950493812561035,1.693536400794983,-3.3300938606262207,0.4503494501113891
3996816112.0,-0.3351021111011505,-0.1125944033265113,9.83922290802002,1.6991972923278809,-3.065012216567993,0.4569579660892486
3996824445.0,-0.4845169484615326,0.1055410578846931,10.023845672607422,1.7736194133758545,-2.6422367095947266,0.4076634049415588
3996832778.0,-0.7307704091072083,0.0119446767494082,10.222311973571776,1.6650021076202393,-2.747779607772827,0.4460462927818298
3996841111.0,-0.742927610874176,-0.179866075515747,10.09880542755127,1.6732240915298462,-3.219209671020508,0.608568549156189
3996849444.0,-0.5477762818336487,-0.1267899870872497,9.965852737426758,1.6979418992996216,-3.3569886684417725,0.5046260356903076
3996857777.0,-0.4915790259838104,0.0423330031335353,9.994742393493652,1.7084952592849731,-2.959968328475952,0.3704330623149872
3996866110.0,-0.6497319936752319,0.0225878283381462,10.16470432281494,1.7974278926849363,-2.960634469985962,0.357497900724411
3996874443.0,-0.6114259362220764,-0.1936090290546417,10.102097511291504,1.6906418800354004,-3.245105743408203,0.575090765953064
3996882776.0,-0.3678096234798431,-0.1665658205747604,9.950541496276855,1.5816020965576172,-3.4883384704589844,0.5128993988037109
3996891109.0,-0.3053483664989471,0.0751959159970283,9.923714637756348,1.7258615493774414,-3.024721145629883,0.4167436361312866
3996899442.0,-0.5611208081245422,0.0917240008711814,10.083578109741213,1.7318426370620728,-2.551177978515625,0.4961093664169311
3996907775.0,-0.7957363128662109,-0.1563339978456497,10.180871963500977,1.6849429607391355,-2.947865724563598,0.4919855296611786
3996916108.0,-0.6672385334968567,-0.3061972558498382,10.022275924682615,1.7270909547805786,-3.379580497741699,0.4479417502880096
3996924441.0,-0.5008199214935303,-0.0343606062233448,9.936540603637695,1.7448925971984863,-3.31113862991333,0.4760148823261261
3996932774.0,-0.5116708874702454,0.1830407083034515,10.089823722839355,1.8010649681091309,-2.916372776031494,0.3859809339046478
3996941107.0,-0.6505411267280579,0.0610475949943065,10.217859268188477,1.711799383163452,-2.9719557762146,0.5246564149856567
3996949440.0,-0.5835427045822144,-0.2069754600524902,10.042166709899902,1.6056536436080933,-3.289571523666382,0.6391006708145142
3996957773.0,-0.353716641664505,-0.14885313808918,9.84749984741211,1.7923814058303833,-3.3523521423339844,0.3473546206951141
3996966106.0,-0.3845811784267425,0.1156511828303337,9.930426597595217,1.8565199375152588,-2.878643035888672,0.3414633870124817
3996974439.0,-0.6405390501022339,0.1168217435479164,10.18594741821289,1.744765043258667,-2.699650764465332,0.3561659157276153
3996982772.0,-0.7795884609222412,-0.0679322332143783,10.206522941589355,1.63856840133667,-3.071185350418091,0.4630797803401947
3996991105.0,-0.6120904684066772,-0.1468249559402465,10.019803047180176,1.558677315711975,-3.3786582946777344,0.4994775354862213
3996999438.0,-0.4984527826309204,0.0317317396402359,9.980207443237305,1.7324955463409424,-3.1398825645446777,0.3257361948490143
3997007771.0,-0.6123174428939819,0.1024830117821693,10.110673904418944,1.7201240062713623,-2.884406328201294,0.4156422317028045
3997016104.0,-0.6772293448448181,-0.0892493575811386,10.17054557800293,1.65977680683136,-3.087860107421875,0.4705334901809692
3997024437.0,-0.4874695539474487,-0.1804773360490799,10.013646125793455,1.5461262464523315,-3.516129493713379,0.4560357928276062
3997032770.0,-0.2830896973609924,-0.0109806712716817,9.872941970825195,1.6749404668807983,-3.266724109649658,0.4119793176651001
3997041103.0,-0.4673114418983459,0.1428043693304062,10.005871772766112,1.7345701456069946,-2.7600488662719727,0.3603922724723816
3997049436.0,-0.7599076628684998,-0.0639177709817886,10.205574989318848,1.6171032190322876,-2.632694959640503,0.4508617520332336
3997057769.0,-0.7916854619979858,-0.3026091158390045,10.086048126220703,1.6831881999969482,-3.3039417266845703,0.5757055282592773
3997066102.0,-0.5194370746612549,-0.1412543058395385,9.951220512390137,1.7979143857955933,-3.4758899211883545,0.4111596643924713
3997074435.0,-0.4339285492897033,0.143932357430458,9.983864784240724,1.7727869749069214,-3.080457925796509,0.34666308760643
3997082768.0,-0.5756745934486389,0.1387542486190796,10.184309005737305,1.807827353477478,-2.914707899093628,0.4875157475471496
3997091101.0,-0.6414053440093994,-0.1405199021100998,10.147860527038574,1.53646981716156,-3.2467706203460693,0.4927153885364532
3997099434.0,-0.4448622167110443,-0.264348953962326,9.868941307067873,1.625658631324768,-3.417950391769409,0.5004509091377258
3997107767.0,-0.3629307150840759,-0.0420832149684429,9.864591598510742,1.731291890144348,-3.1021785736083984,0.3754534721374511
3997116100.0,-0.5625721216201782,0.1318990886211395,10.08876609802246,1.7194708585739136,-2.682527780532837,0.4196252524852752
3997124433.0,-0.7656360864639282,-0.0079858265817165,10.263965606689451,1.6771433353424072,-2.946777105331421,0.5166391730308533
3997132766.0,-0.6688154935836792,-0.1695270836353302,10.090340614318848,1.663209080696106,-3.2629334926605225,0.5389235615730286
3997141099.0,-0.4735780954360962,-0.0652524083852768,9.941956520080566,1.7509890794754028,-3.2484612464904785,0.3843415975570678
3997149432.0,-0.5143051147460938,0.0376804396510124,10.001150131225586,1.7235051393508911,-2.902592897415161,0.4108011424541473
3997157765.0,-0.6533989310264587,-0.0540700890123844,10.179838180541992,1.6475461721420288,-2.948557138442993,0.5344794988632202
3997166098.0,-0.5760169625282288,-0.2105649709701538,10.089111328125,1.551505208015442,-3.3223838806152344,0.5591586828231812
3997174431.0,-0.3472809195518493,-0.0829148292541503,9.889595985412598,1.6988641023635864,-3.427530288696289,0.347431480884552
3997182764.0,-0.3701280951499939,0.1188143640756607,9.94200611114502,1.7707630395889282,-2.875312805175781,0.4181523621082306
3997191097.0,-0.6767656207084656,0.0273786950856447,10.130481719970703,1.7723768949508667,-2.6122806072235107,0.4610562324523926
3997199430.0,-0.8480876684188843,-0.2899181246757507,10.154163360595703,1.5988022089004517,-3.0335707664489746,0.4646550416946411
3997207763.0,-0.6342375874519348,-0.2866124808788299,9.978877067565918,1.68496835231781,-3.367887496948242,0.4625802636146545
3997216096.0,-0.4349269866943359,0.006274040788412,9.948084831237791,1.801833152770996,-3.1965408325195312,0.415437251329422
3997224429.0,-0.5215703248977661,0.1932197362184524,10.149332046508787,1.768253207206726,-2.737175941467285,0.4026045799255371
3997232762.0,-0.6707857251167297,-0.0111939059570431,10.21239948272705,1.695227026939392,-3.09290623664856,0.5455319881439209
3997241095.0,-0.5538196563720703,-0.2834140360355377,9.961674690246582,1.7317655086517334,-3.383819580078125,0.5643455982208252
3997249428.0,-0.3605704605579376,-0.1204294636845588,9.86182689666748,1.824463486671448,-3.2231926918029785,0.5797397494316101
3997257761.0,-0.4529648423194885,0.0925750210881233,10.02085304260254,1.896119475364685,-2.7942185401916504,0.470507949590683
3997266094.0,-0.7098552584648132,0.0609075874090194,10.239595413208008,1.83869206905365,-2.6856651306152344,0.4573677778244018
3997274427.0,-0.7665752172470093,-0.119639977812767,10.167834281921388,1.6491855382919312,-3.1022427082061768,0.5469536185264587
3997282760.0,-0.5562624335289001,-0.1232279315590858,10.001662254333496,1.647430658340454,-3.372485399246216,0.4534231722354889
3997291093.0,-0.4858673810958862,0.0454584956169128,9.971531867980955,1.826679229736328,-3.0686240196228027,0.4098021686077118
3997299426.0,-0.6357232928276062,0.0612437091767787,10.142888069152832,1.7534483671188354,-2.9818687438964844,0.4538586437702179
3997307759.0,-0.6363013386726379,-0.1566056311130523,10.128335952758787,1.6890026330947876,-3.284935712814331,0.4796264469623565
3997316092.0,-0.4062958657741546,-0.1488552242517471,9.92949390411377,1.7399108409881592,-3.288560152053833,0.5750779509544373
3997324425.0,-0.3019033670425415,0.0869875624775886,9.89272689819336,1.7146170139312744,-3.0192654132843018,0.3987112045288086
3997332758.0,-0.5523213148117065,0.1203245818614959,10.046689987182615,1.792048692703247,-2.6264450550079346,0.4427420496940613
3997341091.0,-0.8207889199256897,-0.1327108293771743,10.19259262084961,1.6323695182800293,-2.848341226577759,0.4634127020835876
3997349424.0,-0.7122600674629211,-0.3057886064052582,10.027067184448242,1.6259784698486328,-3.4030556678771973,0.577690601348877
3997357757.0,-0.4939244985580444,-0.0826029554009437,9.968524932861328,1.794507622718811,-3.334678649902344,0.3312176764011383
3997366090.0,-0.4540102779865265,0.2041971832513809,10.079285621643066,1.8320070505142207,-2.950644969940185,0.4174864590167999
3997374423.0,-0.6201653480529785,0.1048117205500602,10.178152084350586,1.776193618774414,-2.9136834144592285,0.3549108803272247
3997382756.0,-0.5966050624847412,-0.2033586502075195,10.060077667236328,1.6804218292236328,-3.375277280807495,0.6024980545043945
3997391089.0,-0.4029712378978729,-0.1986790895462036,9.893881797790527,1.7174344062805176,-3.250100612640381,0.5513463616371155
3997399422.0,-0.411025196313858,0.0457967109978199,9.910569190979004,1.8664326667785645,-2.900030851364136,0.3766317069530487
3997407755.0,-0.6311725378036499,0.1162357702851295,10.189169883728027,1.7728379964828491,-2.6634063720703125,0.4608001112937927
3997416088.0,-0.763278603553772,-0.0508907958865165,10.206304550170898,1.6656683683395386,-3.1549439430236816,0.5403835773468018
3997424421.0,-0.6170965433120728,-0.1315218061208725,10.019545555114746,1.5510443449020386,-3.3076300621032715,0.4841602742671966
3997432754.0,-0.4974055588245392,0.0067043495364487,9.932312965393066,1.6737622022628784,-3.186910390853882,0.5109527707099915
3997441087.0,-0.57323157787323,0.0574091263115406,10.080387115478516,1.7005035877227783,-2.780668973922729,0.4630029499530792
3997449420.0,-0.7066476941108704,-0.1052476614713668,10.153853416442873,1.6615699529647827,-3.0141427516937256,0.5386418700218201
3997457753.0,-0.4971471428871155,-0.1950962543487548,9.986686706542969,1.5499428510665894,-3.3549904823303223,0.4846468567848205
3997466086.0,-0.3070141971111297,-0.0041410978883504,9.864295959472656,1.6830729246139526,-3.282003164291382,0.4305624663829803
3997474419.0,-0.4300393462181091,0.1549415737390518,10.005253791809082,1.764372706413269,-2.751916646957397,0.1922988593578338
3997482752.0,-0.7432470917701721,-0.0495161190629005,10.181882858276367,1.665642499923706,-2.7271859645843506,0.4345454573631286
3997491085.0,-0.7866190075874329,-0.3258229494094848,10.085533142089844,1.6259149312973022,-3.1641652584075928,0.6063145399093628
3997499418.0,-0.5578048825263977,-0.202860027551651,9.956782341003418,1.7401797771453855,-3.3590633869171143,0.4373886585235595
3997507751.0,-0.4543246328830719,0.1169437915086746,10.014758110046388,1.8002455234527588,-2.9772837162017822,0.3797822892665863
3997516084.0,-0.5839536786079407,0.171752467751503,10.195181846618652,1.7286152839660645,-2.8472015857696533,0.5182144045829773
3997524417.0,-0.6838099360466003,-0.0930351912975311,10.160977363586426,1.550954818725586,-3.153599262237549,0.5294590592384338
3997532750.0,-0.4650321900844574,-0.2543625235557556,9.928077697753906,1.6156047582626345,-3.439453363418579,0.5534338355064392
3997541083.0,-0.3436663746833801,-0.0773386731743812,9.86753749847412,1.8486818075180047,-3.042804956436157,0.4481979310512543
3997549416.0,-0.5234147906303406,0.1169400364160537,10.101278305053713,1.836822509765625,-2.705516815185547,0.521121621131897
3997557749.0,-0.7751262784004211,-0.0245925206691026,10.252668380737305,1.744483232498169,-2.904283046722412,0.4572141468524933
3997566082.0,-0.6794300079345703,-0.1667068302631378,10.083608627319336,1.5751856565475464,-3.245450973510742,0.5970549583435059
3997574415.0,-0.4931306838989258,-0.0456971377134323,9.977901458740234,1.6936898231506348,-3.290109634399414,0.4187926948070526
3997582748.0,-0.524589478969574,0.0585143864154815,10.026262283325195,1.750938057899475,-2.884432077407837,0.3599056303501129
3997591081.0,-0.6516193151473999,-0.037852369248867,10.15281105041504,1.6600713729858398,-3.0137455463409424,0.467651903629303
3997599414.0,-0.5790681838989258,-0.2293148636817932,10.081396102905272,1.681254267692566,-3.325060606002808,0.4897569715976715
3997607747.0,-0.3763981163501739,-0.1113996878266334,9.91342830657959,1.677937150001526,-3.357423782348633,0.4836479425430298
3997616080.0,-0.3670849800109863,0.1319979727268219,9.952018737792969,1.69550883769989,-2.8879923820495605,0.4590071141719818
3997624413.0,-0.6506520509719849,0.0561414621770381,10.150571823120115,1.7088665962219238,-2.738161563873291,0.4991573691368103
3997632746.0,-0.8427982926368713,-0.2319949120283126,10.174619674682615,1.710262656211853,-2.900543212890625,0.5257578492164612
3997641079.0,-0.619462788105011,-0.293845921754837,10.000750541687012,1.7230182886123655,-3.3959991931915283,0.5546506643295288
3997649412.0,-0.4054771661758423,-0.0209038015455007,9.955958366394045,1.8199169635772705,-3.2288663387298584,0.4332903623580932
3997657745.0,-0.482136458158493,0.1928406655788421,10.110214233398438,1.85019326210022,-2.8455240726470947,0.446865975856781
3997666078.0,-0.6237132549285889,-0.0066221798770129,10.217467308044434,1.7398086786270142,-3.0599024295806885,0.4707256555557251
3997674411.0,-0.557320773601532,-0.2248013466596603,10.013794898986816,1.6124927997589111,-3.3635714054107666,0.5710949301719666
3997682744.0,-0.4024560749530792,-0.1362681984901428,9.871237754821776,1.762797236442566,-3.224204540252685,0.4377728700637817
3997691077.0,-0.4770891666412353,0.0809919387102127,9.974926948547363,1.8073149919509888,-2.7922463417053223,0.3974561095237732
3997699410.0,-0.7132447361946106,0.0638144463300705,10.21617603302002,1.7666395902633667,-2.701802492141724,0.4022715985774994
3997707743.0,-0.7336633801460266,-0.1365763843059539,10.162032127380373,1.702629327774048,-3.1145501136779785,0.5852852463722229
3997716076.0,-0.5264121890068054,-0.1065029948949813,9.955292701721191,1.7241196632385254,-3.2970001697540283,0.5170745849609375
3997724409.0,-0.4482371211051941,0.0667319893836975,9.977648735046388,1.680959939956665,-3.03022837638855,0.4305753111839294
3997732742.0,-0.5847479104995728,0.0658257082104682,10.154539108276367,1.7174474000930786,-2.8931026458740234,0.4886299669742584
3997741075.0,-0.6356326341629028,-0.1480896323919296,10.159445762634276,1.7025781869888306,-3.2974612712860107,0.5638205409049988
3997749408.0,-0.4351718127727508,-0.1933432817459106,9.939281463623049,1.6951500177383425,-3.466540575027466,0.5023207068443298
3997757741.0,-0.3469732105731964,0.0421751104295253,9.872584342956545,1.6805627346038818,-3.081238508224488,0.4503878951072693
3997766074.0,-0.557715892791748,0.131651222705841,10.05103588104248,1.654487371444702,-2.721179485321045,0.4011060893535614
3997774407.0,-0.8329992294311523,-0.0881942585110664,10.228179931640623,1.6522204875946045,-2.8185007572174072,0.5671759843826294
3997782740.0,-0.7271392345428467,-0.3081254959106445,10.11373805999756,1.69233238697052,-3.320744276046753,0.6058278679847717
3997791073.0,-0.5013219118118286,-0.1159665584564209,9.973027229309082,1.843738079071045,-3.4502243995666504,0.4474550485610962
3997799406.0,-0.4473531246185303,0.1927595883607864,10.060107231140137,1.897246241569519,-2.9153223037719727,0.451041042804718
3997807739.0,-0.6232614517211914,0.0932349935173988,10.193203926086426,1.775886058807373,-2.771037340164185,0.4726850688457489
3997816072.0,-0.6021660566329956,-0.1817662566900253,10.088542938232422,1.5867377519607544,-3.2919158935546875,0.523285984992981
3997824405.0,-0.3705137073993683,-0.1980726420879364,9.874841690063477,1.7551130056381226,-3.2843210697174072,0.4457132816314697
3997832738.0,-0.4060319364070892,0.0344549268484115,9.90065574645996,1.8132574558258057,-2.882152557373047,0.4704054296016693
3997841071.0,-0.6528941988945007,0.1011719480156898,10.17633819580078,1.8049328327178955,-2.570888042449951,0.3531434535980224
3997849404.0,-0.7847967743873596,-0.0685899257659912,10.241183280944824,1.7167683839797974,-3.034044027328491,0.5378732681274414
3997857737.0,-0.6018518805503845,-0.1676123887300491,10.060150146484377,1.704857587814331,-3.327916145324707,0.465436190366745
3997866070.0,-0.4720006287097931,-0.0018674654420465,9.95071029663086,1.6279128789901731,-3.11898159980774,0.3702538013458252
3997874403.0,-0.5519406199455261,0.0842836126685142,10.06418800354004,1.767202854156494,-2.897059679031372,0.4637713432312011
3997882736.0,-0.6665883660316467,-0.08655896037817,10.195748329162598,1.7454053163528442,-3.044802665710449,0.4436898231506347
3997891069.0,-0.5135200023651123,-0.2099964916706085,9.999713897705078,1.6687418222427368,-3.441951036453247,0.5249636769294739
3997899402.0,-0.322562575340271,-0.0150040369480848,9.899701118469238,1.7511937618255615,-3.313546657562256,0.5009118914604187
3997907735.0,-0.4261731207370758,0.1604917049407959,9.986547470092772,1.7674332857131958,-2.7098195552825928,0.370074450969696
3997916068.0,-0.7367120385169983,-0.0058551076799631,10.131036758422852,1.644024133682251,-2.575062990188598,0.4198941886425018
3997924401.0,-0.792606770992279,-0.2766249179840088,10.109249114990234,1.6365318298339844,-3.22829008102417,0.4542043805122375
3997932734.0,-0.5523802638053894,-0.2158195376396179,9.985219955444336,1.7244524955749512,-3.4132115840911865,0.460236519575119
3997941067.0,-0.4665838479995727,0.0972181856632232,9.99497890472412,1.7509124279022217,-3.0191118717193604,0.344511479139328
3997949400.0,-0.5728171467781067,0.17481230199337,10.200429916381836,1.7854145765304563,-2.8186028003692627,0.336314857006073
3997957733.0,-0.6416577100753784,-0.0883615463972091,10.134970664978027,1.6982877254486084,-3.151498317718506,0.5177533030509949
3997966066.0,-0.4466017782688141,-0.21961610019207,9.896089553833008,1.6480839252471924,-3.410407304763794,0.502845823764801
3997974399.0,-0.3762687742710113,0.0048158601857721,9.870969772338867,1.7188432216644287,-3.0452380180358887,0.4086751043796539
3997982732.0,-0.5342563390731812,0.116711214184761,10.113749504089355,1.7058569192886353,-2.5670204162597656,0.4392072558403015
3997991065.0,-0.7421255111694336,-0.0030884048901498,10.234384536743164,1.6724560260772705,-2.8753902912139893,0.4828283786773681
3997999398.0,-0.6621504426002502,-0.1650378257036209,10.149160385131836,1.6343162059783936,-3.2114999294281006,0.5866172313690186
3998007731.0,-0.5171431303024292,-0.0442275330424308,10.020380973815918,1.6835724115371704,-3.2241532802581787,0.4709177017211914
3998016064.0,-0.5354835391044617,0.073893629014492,10.06291961669922,1.648224949836731,-2.823342084884644,0.3730969429016113
3998024397.0,-0.654951810836792,-0.0129703283309936,10.17575454711914,1.6957648992538452,-3.0443928241729736,0.4825722277164459
3998032730.0,-0.5652397274971008,-0.2144829332828521,10.086458206176758,1.6830343008041382,-3.422406911849976,0.5283191204071045
3998041063.0,-0.3573636710643768,-0.0990319997072219,9.912612915039062,1.7101600170135498,-3.354478597640991,0.4103144407272339
3998049396.0,-0.372539758682251,0.1219590976834297,9.958344459533691,1.743842840194702,-2.828925848007202,0.3662579655647278
3998057729.0,-0.6822834610939026,0.0290825013071298,10.153945922851562,1.6416162252426147,-2.6402511596679688,0.3624158203601837
3998066062.0,-0.8058567643165588,-0.2517649829387665,10.168253898620604,1.6901553869247437,-2.966961145401001,0.5187652111053467
3998074395.0,-0.6087964177131653,-0.2997595071792602,9.960113525390623,1.717165231704712,-3.3957040309906006,0.4813298285007477
3998082728.0,-0.4460389614105224,0.0270759761333465,9.975238800048828,1.746596097946167,-3.26924729347229,0.3465733826160431
3998091061.0,-0.5271199941635132,0.1676110923290252,10.143357276916504,1.7811113595962524,-2.753235578536988,0.2585757076740265
3998099394.0,-0.6556768417358398,-0.0152739435434341,10.185324668884276,1.7040382623672483,-3.102383613586426,0.4942779541015625
3998107727.0,-0.5260035991668701,-0.2455762028694152,9.956093788146973,1.747402906417847,-3.290468215942383,0.5525758266448975
3998116060.0,-0.374580055475235,-0.0931759104132652,9.830549240112305,1.8153575658798216,-3.193877458572388,0.4656155407428741
3998124393.0,-0.5309795141220093,0.0991216301918029,9.992697715759276,1.7508611679077148,-2.7803614139556885,0.4624650180339813
3998132726.0,-0.7614275217056274,0.0409246124327182,10.216525077819824,1.7495547533035278,-2.7523136138916016,0.4697138369083404
3998141059.0,-0.7477031350135803,-0.1467829793691635,10.152071952819824,1.701015830039978,-3.1050474643707275,0.5085450410842896
3998149392.0,-0.5215951800346375,-0.1301641166210174,9.942859649658203,1.6579581499099731,-3.2963852882385254,0.4867985248565674
3998157725.0,-0.4546257555484772,0.0635938048362732,9.94848918914795,1.726156234741211,-3.0035767555236816,0.3731353878974914
3998166058.0,-0.5898247957229614,0.0424091033637523,10.147296905517578,1.7386301755905151,-2.8728668689727783,0.4225195944309234
3998174391.0,-0.6314011216163635,-0.1717116385698318,10.119715690612791,1.68467378616333,-3.274920701980591,0.6639466285705566
3998182724.0,-0.4083724319934845,-0.1877061873674392,9.92852783203125,1.7043455839157104,-3.318234205245972,0.498401790857315
3998191057.0,-0.3372392952442169,0.0458560511469841,9.88917350769043,1.767817497253418,-3.120479822158813,0.4183060526847839
3998199390.0,-0.6232110261917114,0.1362720280885696,10.09255599975586,1.708059787750244,-2.657797336578369,0.4185366332530975
3998207723.0,-0.8582653403282166,-0.1270058900117874,10.207916259765623,1.6971479654312134,-2.888427734375,0.5438671112060547
3998216056.0,-0.6839257478713989,-0.2843414843082428,10.078181266784668,1.6285529136657717,-3.439415216445923,0.6106433868408203
3998224389.0,-0.4508428871631622,-0.0764745473861694,9.976106643676758,1.7272189855575562,-3.277968645095825,0.4279626011848449
3998232722.0,-0.4103034734725952,0.1657170951366424,10.094449996948242,1.7418831586837769,-2.866463184356689,0.426899641752243
3998241055.0,-0.5934948921203613,0.0709015280008316,10.24598503112793,1.6640671491622925,-2.7728431224823,0.5249252319335938
3998249388.0,-0.595045268535614,-0.188897505402565,10.061767578125,1.6551018953323364,-3.269272327423096,0.444650262594223
3998257721.0,-0.3915295004844665,-0.156226247549057,9.882080078125,1.7478641271591189,-3.294899702072144,0.4153860509395599
3998266054.0,-0.3957357108592987,0.0689936578273773,9.92225456237793,1.7675617933273315,-2.912454128265381,0.3623133897781372
3998274387.0,-0.6705414056777954,0.1520308405160904,10.235003471374512,1.7838008403778076,-2.622346878051758,0.2521465122699737
3998282720.0,-0.811610221862793,-0.0719477534294128,10.214226722717283,1.6950477361679075,-2.99096155166626,0.4791143536567688
3998291053.0,-0.6385561227798462,-0.1703879088163375,10.032968521118164,1.6166037321090698,-3.344681024551392,0.5472864508628845
3998299386.0,-0.4450203478336334,0.006313101388514,9.951661109924316,1.640323042869568,-3.1515755653381348,0.4557156562805176
3998307719.0,-0.537552535533905,0.102220818400383,10.104944229125977,1.7207642793655396,-2.749547004699707,0.3905658423900604
3998316052.0,-0.6543335318565369,-0.0619150325655937,10.203691482543944,1.6585474014282229,-3.0805859565734863,0.5365414619445801
3998324385.0,-0.511629581451416,-0.2215176820755005,10.01366901397705,1.7172038555145264,-3.4297845363616943,0.5790354013442993
3998332718.0,-0.3234884440898895,-0.0618677921593189,9.878125190734863,1.6935619115829468,-3.217211961746216,0.5133861303329468
3998341051.0,-0.443277895450592,0.1059196591377258,9.963912963867188,1.747223973274231,-2.670732259750366,0.3746337890625
3998349384.0,-0.7633216977119446,-0.0363374836742877,10.141799926757812,1.7149755954742432,-2.6599230766296387,0.45529305934906
3998357717.0,-0.8258433938026428,-0.2683903872966766,10.093292236328123,1.655345439910889,-3.287599802017212,0.589152991771698
3998366050.0,-0.5746508240699768,-0.2097740471363067,9.991430282592772,1.8247836828231807,-3.45191502571106,0.4700211882591247
3998374383.0,-0.4376436471939087,0.1064267680048942,9.979434967041016,1.8272937536239624,-2.961556196212769,0.3992490470409393
3998382716.0,-0.589403510093689,0.1589961349964141,10.16783046722412,1.8000916242599487,-2.819755792617798,0.3647723495960235
3998391049.0,-0.6493389010429382,-0.1113045960664749,10.148661613464355,1.6489421129226685,-3.0747711658477783,0.5343897938728333
3998399382.0,-0.4574286043643951,-0.2550179660320282,9.924899101257324,1.668933629989624,-3.465195655822754,0.5686999559402466
3998407715.0,-0.3614121079444885,-0.0673738494515419,9.838370323181152,1.8610918521881104,-3.083339214324951,0.4320224821567535
3998416048.0,-0.5386579036712646,0.1391379386186599,10.102548599243164,1.7974532842636108,-2.662663698196411,0.3768109977245331
3998424381.0,-0.7723270058631897,0.010019339621067,10.242720603942873,1.7405385971069336,-2.8787713050842285,0.4584692418575287
3998432714.0,-0.6800472736358643,-0.1625894010066986,10.113035202026367,1.681087851524353,-3.346666097640991,0.5692763924598694
3998441047.0,-0.492168515920639,-0.0791042298078537,9.977962493896484,1.6860826015472412,-3.287728071212769,0.4728131294250488
3998449380.0,-0.4916285276412964,0.0846663564443588,10.044696807861328,1.7755275964736938,-2.98279070854187,0.2981753349304199
3998457713.0,-0.6250329613685608,0.0132824229076504,10.206185340881348,1.6624152660369873,-2.921956777572632,0.4308314621448517
3998466046.0,-0.5676838159561157,-0.178061693906784,10.068936347961426,1.6630425453186035,-3.2901737689971924,0.4667297899723053
3998474379.0,-0.3547698557376861,-0.1333328783512115,9.903973579406738,1.7463016510009766,-3.480628490447998,0.4220457375049591
3998482712.0,-0.3586369752883911,0.1010303646326065,9.946792602539062,1.795813798904419,-2.79222059249878,0.4054221212863922
3998491045.0,-0.6677266359329224,0.094728872179985,10.207574844360352,1.732469916343689,-2.608207941055298,0.3918465673923492
3998499378.0,-0.8515393733978271,-0.1843156069517135,10.231247901916504,1.5724835395812988,-2.9630932807922363,0.4318048059940338
3998507711.0,-0.6418206095695496,-0.3073804974555969,10.002179145812988,1.6713287830352783,-3.510955810546875,0.4427164196968078
3998516044.0,-0.4280051589012146,-0.0226165819913148,9.939603805541992,1.7115943431854248,-3.282886981964112,0.3764523863792419
3998524377.0,-0.4910261034965515,0.1977009177207946,10.091104507446287,1.8163055181503296,-2.7844083309173584,0.3814216256141662
3998532710.0,-0.6615993976593018,0.0514145903289318,10.205032348632812,1.6983776092529297,-2.9948549270629883,0.3636965453624725
3998541043.0,-0.6063709259033203,-0.2224584519863128,10.049392700195312,1.6136451959609983,-3.3748669624328613,0.6259093284606934
3998549376.0,-0.3900178074836731,-0.1695256978273391,9.850961685180664,1.674299955368042,-3.3342432975769043,0.4884122014045715
3998557709.0,-0.423305481672287,0.0615340769290924,9.914569854736328,1.8259106874465945,-2.862710952758789,0.3092406690120697
3998566042.0,-0.7500668168067932,0.1217613667249679,10.252872467041016,1.748939871788025,-2.6654298305511475,0.3325240015983581
3998574375.0,-0.8494426608085632,-0.1152503490447998,10.215447425842283,1.6680502891540527,-3.0441367626190186,0.5435853004455566
3998582708.0,-0.5815238356590271,-0.1633971929550171,9.984827995300291,1.615131139755249,-3.390031099319458,0.6506783962249756
3998591041.0,-0.4223405122756958,-0.006147495470941,9.88501262664795,1.7430357933044434,-3.179827928543091,0.4425499141216278
3998599374.0,-0.5523964762687683,0.0807796344161033,10.04494285583496,1.71001935005188,-2.8858537673950195,0.4452906847000122
3998607707.0,-0.6864780187606812,-0.0998390838503837,10.225922584533691,1.7979532480239868,-3.037822961807251,0.4706488251686096
3998616040.0,-0.5204721093177795,-0.2152427285909652,10.01966667175293,1.515517234802246,-3.544049024581909,0.5992960929870605
3998624373.0,-0.2805932462215423,-0.0298602133989334,9.854084968566896,1.7427924871444702,-3.3740222454071045,0.443715363740921
3998632706.0,-0.4186173379421234,0.1613350212574005,9.986495018005373,1.7181774377822876,-2.737201452255249,0.3845977485179901
3998641039.0,-0.7654942274093628,-0.024274094030261,10.174420356750488,1.648442625999451,-2.568313837051392,0.5150381922721863
3998649372.0,-0.8563833832740784,-0.3098945319652557,10.13318157196045,1.7246960401535034,-3.197962760925293,0.5430858135223389
3998657705.0,-0.5498398542404175,-0.2428653538227081,9.973115921020508,1.7768720388412476,-3.541398286819458,0.4369915723800659
3998666038.0,-0.3769735097885132,0.0917946919798851,9.91230583190918,1.866240382194519,-3.16907000541687,0.5157554149627686
3998674371.0,-0.5276936292648315,0.2286136746406555,10.11690616607666,1.86940336227417,-2.783946990966797,0.4943290650844574
3998682704.0,-0.6742118000984192,-0.029750507324934,10.236236572265623,1.7241965532302856,-3.005125999450684,0.5562387108802795
3998691037.0,-0.5171529650688171,-0.2848353683948517,9.965603828430176,1.617462158203125,-3.3362669944763184,0.5603114366531372
3998699370.0,-0.2918375134468078,-0.1259021311998367,9.787591934204102,1.7629508972167969,-3.167801856994629,0.4474038481712341
3998707703.0,-0.4215705692768097,0.1143138855695724,9.95937442779541,1.880494475364685,-2.666813373565674,0.3761706352233886
3998716036.0,-0.7571361064910889,0.109513409435749,10.275815963745115,1.722634196281433,-2.637023687362671,0.4230703115463257
3998724369.0,-0.7912270426750183,-0.0938355848193168,10.25746250152588,1.5797580480575562,-3.2039952278137207,0.4617478549480438
3998732702.0,-0.5170601606369019,-0.1499861180782318,9.982430458068848,1.6366982460021973,-3.539233922958374,0.5513207316398621
3998741035.0,-0.3830277323722839,0.0423272922635078,9.890217781066896,1.6344701051712036,-3.0358636379241943,0.4857228398323059
3998749368.0,-0.5596647262573242,0.0756984427571296,10.14724826812744,1.7765523195266724,-2.8522605895996094,0.4759125411510467
3998757701.0,-0.6916447281837463,-0.1140683814883232,10.220854759216309,1.6302180290222168,-3.180916786193848,0.4814451932907104
3998766034.0,-0.484795868396759,-0.2255520224571228,10.000479698181152,1.623635172843933,-3.480398178100586,0.5080583691596985
3998774367.0,-0.263861209154129,0.0134350880980491,9.879322052001951,1.6921274662017822,-3.117341995239258,0.40188729763031
3998782700.0,-0.4469779729843139,0.1928289085626602,10.008499145507812,1.71192729473114,-2.564561128616333,0.3868773877620697
3998791033.0,-0.8158981204032898,-0.0214100126177072,10.28800106048584,1.5670915842056274,-2.6205925941467285,0.3976225852966308
3998799366.0,-0.8560048341751099,-0.3455557525157928,10.197178840637209,1.5610597133636477,-3.138934850692749,0.6153820753097534
3998807699.0,-0.5349845886230469,-0.2712886929512024,9.89087200164795,1.7116583585739136,-3.548135042190552,0.4748750925064087
3998816032.0,-0.3488820195198059,0.1086750254034996,9.958244323730469,1.8169457912445068,-3.06152868270874,0.3232004046440124
3998824365.0,-0.5721898674964905,0.2309084683656692,10.154871940612791,1.80805778503418,-2.5737311840057373,0.3849307298660278
3998832698.0,-0.7763382196426392,-0.0209009125828742,10.29781436920166,1.63134503364563,-3.0533833503723145,0.5018853545188904
3998841031.0,-0.5718166828155518,-0.3151814043521881,9.978376388549805,1.589260816574097,-3.3771214485168457,0.5623604655265808
3998849364.0,-0.3489001989364624,-0.1349745541810989,9.785451889038086,1.7319576740264893,-3.410496950149536,0.4826745986938476
3998857697.0,-0.4448707103729248,0.1343171745538711,9.926424980163574,1.841535568237305,-2.663304328918457,0.3530153930187225
3998866030.0,-0.7941381335258484,0.1118121296167373,10.22991943359375,1.804855704307556,-2.547476291656494,0.4430494606494903
3998874363.0,-0.8842047452926636,-0.1421907544136047,10.265177726745604,1.6842129230499268,-3.144851922988892,0.5915095210075378
3998882696.0,-0.5540768504142761,-0.2111658602952957,9.946615219116213,1.542463302612305,-3.4948441982269287,0.6170468330383301
3998891029.0,-0.3941052258014679,0.035706665366888,9.840147018432615,1.7205852270126345,-3.152228832244873,0.4031680822372436
3998899362.0,-0.5800772905349731,0.1002431437373161,10.053409576416016,1.7682530879974363,-2.760484457015991,0.3697414696216583
3998907695.0,-0.7248029112815857,-0.0957679226994514,10.255423545837402,1.649940848350525,-3.1425461769104004,0.4893087148666382
3998916028.0,-0.552010715007782,-0.2558788955211639,10.017924308776855,1.6314473152160645,-3.5454580783843994,0.5832360982894897
3998924361.0,-0.305624783039093,-0.0334464646875858,9.817203521728516,1.7404743432998655,-3.3576674461364746,0.4565609097480774
3998932694.0,-0.4504607319831848,0.1710600107908249,9.913491249084473,1.7554715871810913,-2.714840173721313,0.3901560306549072
3998941027.0,-0.7733657956123352,-0.0085186436772346,10.200299263000488,1.713028907775879,-2.7499570846557617,0.4265794456005096
3998949360.0,-0.8396438956260681,-0.3014166057109833,10.20989227294922,1.6235581636428833,-3.2635481357574463,0.5725293755531311
3998957693.0,-0.499931275844574,-0.2628383934497833,9.979154586791992,1.7515524625778198,-3.5849554538726807,0.3974816799163818
3998966026.0,-0.3150369822978973,0.0970190018415451,9.893882751464844,1.898808836936951,-3.208707809448242,0.285240113735199
3998974359.0,-0.4717333912849426,0.2665186524391174,10.119367599487305,1.8159210681915283,-2.7118942737579346,0.3044251501560211
3998982692.0,-0.6962358951568604,0.0195513144135475,10.280532836914062,1.616296887397766,-2.9381065368652344,0.466448038816452
3998991025.0,-0.5471509099006653,-0.3304851353168487,10.013949394226074,1.5440901517868042,-3.418193817138672,0.5337365865707397
3998999358.0,-0.2904441058635711,-0.1804535686969757,9.82094955444336,1.7488245964050293,-3.318733930587769,0.4069461524486542
3999007691.0,-0.3700535893440246,0.1485126763582229,9.94628620147705,1.8276779651641848,-2.7834858894348145,0.2552202343940735
3999016024.0,-0.6957889199256897,0.1471016108989715,10.253107070922852,1.7558172941207886,-2.5865769386291504,0.4435233175754547
3999024357.0,-0.8214699029922485,-0.0923558697104454,10.330753326416016,1.5906696319580078,-3.0329430103302,0.480804830789566
3999032690.0,-0.5821945071220398,-0.2198676168918609,10.033119201660156,1.6123390197753906,-3.445818901062012,0.457137256860733
3999041023.0,-0.3767490983009338,-0.0325612686574459,9.861557960510254,1.712311625480652,-3.1955676078796387,0.5346715450286865
3999049356.0,-0.5237199068069458,0.0997693166136741,10.072568893432615,1.8339282274246216,-2.7618422508239746,0.4798571467399597
3999057689.0,-0.7125579118728638,-0.0691923350095748,10.217313766479492,1.6884905099868774,-2.8662972450256348,0.4624137878417969
3999066022.0,-0.5779658555984497,-0.2569847106933594,10.098613739013672,1.6236350536346436,-3.439159154891968,0.5758848786354065
3999074355.0,-0.3346229791641235,-0.0744918212294578,9.862870216369627,1.7382843494415283,-3.299971342086792,0.4417174756526947
3999082688.0,-0.410396546125412,0.157162457704544,9.935250282287598,1.7658709287643433,-2.6258816719055176,0.438029021024704
3999091021.0,-0.7490605711936951,0.0741309449076652,10.169029235839844,1.672199845314026,-2.5696070194244385,0.4615172743797302
3999099354.0,-0.9078293442726136,-0.2561780214309692,10.217686653137209,1.6751455068588257,-3.1327621936798096,0.5600553750991821
3999107687.0,-0.6373347043991089,-0.3248323798179626,10.017583847045898,1.7136178016662598,-3.672197580337525,0.5683542490005493
3999116020.0,-0.3791797757148742,0.0413946993649005,9.861687660217283,1.9212980270385744,-3.275099992752075,0.4039620757102966
3999124353.0,-0.5364600419998169,0.2896291613578796,10.043291091918944,2.001086711883545,-2.797804832458496,0.4696114659309387
3999132686.0,-0.7398634552955627,0.0887881591916084,10.248225212097168,1.6491726636886597,-2.848930597305298,0.4392841458320617
3999141019.0,-0.6771107316017151,-0.2938902676105499,10.06248950958252,1.534010887145996,-3.471945285797119,0.5349276065826416
3999149352.0,-0.3635638356208801,-0.2341832667589187,9.851670265197754,1.714847445487976,-3.370974063873291,0.5550604462623596
3999157685.0,-0.338403970003128,0.1036544069647789,9.876376152038574,1.9040343761444087,-2.8723933696746826,0.3949971497058868
3999166018.0,-0.648501992225647,0.2051217406988144,10.154870986938477,1.8104654550552368,-2.5673532485961914,0.4958404302597046
3999174351.0,-0.8666859269142151,-0.0139752775430679,10.34429168701172,1.6939976215362549,-2.973672151565552,0.4679208993911743
3999182684.0,-0.654140830039978,-0.2269954830408096,10.103167533874512,1.4874697923660278,-3.610569477081299,0.5707876086235046
3999191017.0,-0.3646007180213928,-0.0443983860313892,9.880663871765137,1.5859308242797852,-3.3896212577819824,0.4020922482013702
3999199350.0,-0.4462587535381317,0.124165765941143,9.961477279663086,1.7453285455703735,-2.8759536743164062,0.3115971684455871
3999207683.0,-0.6758852601051331,0.0183697137981653,10.210968017578123,1.677040696144104,-2.828951358795166,0.4632334113121032
3999216016.0,-0.6617864966392517,-0.2148467600345611,10.149611473083496,1.5619815587997437,-3.339596748352051,0.6031127572059631
3999224349.0,-0.3751913607120514,-0.1504609435796737,9.92552661895752,1.6259146928787231,-3.513517141342163,0.5345178842544556
3999232682.0,-0.2970567047595978,0.1257272362709045,9.882820129394531,1.7407435178756714,-2.925901412963867,0.4695602059364319
3999241015.0,-0.6113937497138977,0.111366368830204,10.10839557647705,1.6962130069732666,-2.5212347507476807,0.3608148992061615
3999249348.0,-0.8531132340431213,-0.202277585864067,10.284356117248535,1.632331371307373,-3.051065444946289,0.4310747981071472
3999257681.0,-0.6543640494346619,-0.4001534581184387,10.096208572387695,1.6206125020980835,-3.45317006111145,0.5193541646003723
3999266014.0,-0.3484675884246826,-0.0911854356527328,9.920117378234863,1.8005268573760986,-3.4204351902008057,0.4062929451465606
3999274347.0,-0.3782672584056854,0.2400593906641006,9.975773811340332,1.8214921951293943,-2.772817611694336,0.3597903251647949
3999282680.0,-0.6464171409606934,0.1847939789295196,10.181604385375977,1.7377851009368896,-2.696846008300781,0.4808176159858703
3999291013.0,-0.7353241443634033,-0.2173903584480285,10.19548511505127,1.5455245971679688,-3.152113437652588,0.5209038853645325
3999299346.0,-0.4610381126403808,-0.334287017583847,9.92640781402588,1.5823577642440796,-3.4215750694274902,0.6397026777267456
3999307679.0,-0.2930144369602203,-0.0521228313446044,9.837546348571776,1.8524214029312127,-3.108633041381836,0.3299881815910339
3999316012.0,-0.5144042372703552,0.1839019656181335,10.043874740600586,1.7933295965194702,-2.5499355792999268,0.4003248810768127
3999324345.0,-0.8429791927337646,0.0726721286773681,10.30080795288086,1.6507093906402588,-2.540202140808105,0.4934326708316803
3999332678.0,-0.7900727987289429,-0.221503809094429,10.182686805725098,1.5449353456497192,-3.3467044830322266,0.4049738347530365
3999341011.0,-0.4991491138935089,-0.1866694539785385,9.927288055419922,1.613568663597107,-3.3439512252807617,0.5526015162467957
3999349344.0,-0.3941720426082611,0.071464791893959,9.878161430358888,1.757905125617981,-3.048004627227783,0.5245539546012878
3999357677.0,-0.6026492118835449,0.072328470647335,10.033315658569336,1.7978631258010864,-2.7147376537323,0.371739387512207
3999366010.0,-0.733587920665741,-0.1247769072651863,10.233152389526367,1.5593560934066772,-3.057724714279175,0.4744652807712555
3999374343.0,-0.5523257851600647,-0.2454795837402343,10.016508102416992,1.694817066192627,-3.4687435626983643,0.6071341633796692
3999382676.0,-0.3331573903560638,0.0032856257166713,9.83516788482666,1.7198423147201538,-3.1686220169067383,0.4197404980659485
3999391009.0,-0.4985147416591644,0.1647165715694427,9.944635391235352,1.8386664390563965,-2.690736770629883,0.436364084482193
3999399342.0,-0.7990870475769043,-0.0131905078887939,10.226469039916992,1.6198443174362185,-2.5909183025360107,0.4890782237052917
3999407675.0,-0.8366084694862366,-0.3168931007385254,10.203401565551758,1.585008978843689,-3.1913931369781494,0.4791911244392395
3999416008.0,-0.5396206378936768,-0.276561290025711,9.949347496032717,1.6627479791641235,-3.439338445663452,0.53410804271698
3999424341.0,-0.3464352488517761,0.1484731435775756,9.884048461914062,1.8710044622421265,-3.136385679244995,0.3936523199081421
3999432674.0,-0.5388734340667725,0.2421336621046066,10.066024780273438,1.811528205871582,-2.7068352699279785,0.3954709768295288
3999441007.0,-0.745440661907196,-0.0124703031033277,10.296748161315918,1.5980080366134644,-2.9551143646240234,0.4253883957862854
3999449340.0,-0.6059203743934631,-0.3282155990600586,10.074064254760742,1.5523762702941897,-3.4210755825042725,0.4650263786315918
3999457673.0,-0.3312840759754181,-0.2030239254236221,9.848480224609377,1.783250093460083,-3.3822317123413086,0.4590198695659637
3999466006.0,-0.3385367393493652,0.1267257928848266,9.8845853805542,1.9021133184432983,-2.8031580448150635,0.3610582947731018
3999474339.0,-0.6671733260154724,0.2021270841360092,10.162500381469728,1.7923816442489624,-2.594401836395264,0.4351602792739868
3999482672.0,-0.8485473394393921,-0.0536353066563606,10.385297775268556,1.526723861694336,-3.0564959049224854,0.4838657677173614
3999491005.0,-0.6452440619468689,-0.2606424391269684,10.087708473205566,1.587467908859253,-3.492539167404175,0.5974520444869995
3999499338.0,-0.3658877611160278,-0.0641247630119323,9.85432243347168,1.7312661409378052,-3.340160131454468,0.4697650372982025
3999507671.0,-0.4158332049846649,0.1183088943362236,9.944318771362305,1.7445086240768433,-2.774956464767456,0.3937163949012756
3999516004.0,-0.6666366457939148,0.0278629045933485,10.21298885345459,1.7179466485977173,-2.758717060089112,0.4025020599365234
3999524337.0,-0.6981285810470581,-0.1669424176216125,10.244693756103516,1.605640888214111,-3.2753686904907227,0.5627831220626831
3999532670.0,-0.4375606775283813,-0.1725858747959137,9.940447807312012,1.647430658340454,-3.4421815872192383,0.5968116521835327
3999541003.0,-0.2839168310165405,0.1040039509534835,9.860754013061523,1.7996176481246948,-2.999990224838257,0.3786936402320862
3999549336.0,-0.5395938158035278,0.1432608962059021,10.000364303588867,1.7374646663665771,-2.6578738689422607,0.4285261332988739
3999557669.0,-0.8207185864448547,-0.1039692312479019,10.288697242736816,1.6326000690460205,-2.771370410919189,0.4290640354156494
3999566002.0,-0.7538228631019592,-0.341235339641571,10.135025024414062,1.621636986732483,-3.435394048690796,0.5159987807273865
3999574335.0,-0.4928726255893707,-0.1605232506990432,9.902876853942873,1.868865728378296,-3.371255874633789,0.5272690057754517
3999582668.0,-0.3980351686477661,0.2122854888439178,9.89338493347168,1.888614296913147,-2.97784686088562,0.3968157172203064
3999591001.0,-0.5712975263595581,0.2035398930311203,10.141037940979004,1.6963669061660769,-2.857933759689331,0.4587125778198242
3999599334.0,-0.703366219997406,-0.0999939143657684,10.281257629394531,1.5542206764221191,-3.006202220916748,0.41630819439888
3999607667.0,-0.5512431263923645,-0.3292517364025116,9.96385669708252,1.546126365661621,-3.3067593574523926,0.5440462827682495
3999616000.0,-0.3924489319324493,-0.1208484321832656,9.780628204345703,1.7169989347457886,-3.2473981380462646,0.4728643596172333
3999624333.0,-0.4800746440887451,0.1614776253700256,9.961993217468262,1.7961342334747314,-2.7625977993011475,0.3740319013595581
3999632666.0,-0.7609906792640686,0.1266187131404876,10.259716987609863,1.755740523338318,-2.6456432342529297,0.4097125232219696
3999640999.0,-0.8145440816879272,-0.139509692788124,10.307766914367676,1.5390570163726809,-3.121389389038086,0.4827770888805389
3999649332.0,-0.5639788508415222,-0.2536620497703552,9.961599349975586,1.7340580224990845,-3.465644121170044,0.5994755029678345
3999657665.0,-0.4240258038043976,-0.0112784961238503,9.846976280212402,1.702808856964111,-3.194159030914306,0.4262977540493011
3999665998.0,-0.5464831590652466,0.107771061360836,9.992923736572266,1.7270655632019043,-2.87142014503479,0.3986343741416931
3999674331.0,-0.6556070446968079,-0.0512932799756526,10.23798370361328,1.736261010169983,-2.9408857822418213,0.3718674778938293
3999682664.0,-0.5596216320991516,-0.2668618261814117,10.117478370666504,1.6658474206924438,-3.383909225463867,0.6062121391296387
3999690997.0,-0.351679652929306,-0.1152360811829567,9.839667320251465,1.8150758743286133,-3.319950580596924,0.4314973950386047
3999699330.0,-0.4253722131252289,0.1699693351984024,9.921150207519531,1.8510897159576416,-2.9495177268981934,0.2949479222297668
3999707663.0,-0.6861881017684937,0.0713149458169937,10.15515422821045,1.6467136144638062,-2.718348979949951,0.3452030122280121
3999715996.0,-0.7753986120223999,-0.2629849016666412,10.291308403015137,1.639259934425354,-3.1388838291168213,0.5197640657424927
3999724329.0,-0.5780927538871765,-0.3830406665802002,10.014327049255373,1.8051246404647827,-3.408998489379883,0.4163209199905395
3999732662.0,-0.4082195460796356,0.0008431171299889,9.873369216918944,1.862039566040039,-3.166995048522949,0.3530537486076355
3999740995.0,-0.4971575736999511,0.3309322893619537,10.062430381774902,1.9058783054351809,-2.8158111572265625,0.3439223170280456
3999749328.0,-0.6627147793769836,0.1293972879648208,10.299302101135254,1.4746626615524292,-2.9938302040100098,0.4781921207904815
3999757661.0,-0.6044582724571228,-0.3082247376441955,10.13499355316162,1.461471438407898,-3.311241626739502,0.489513635635376
3999765994.0,-0.3175891935825348,-0.3366113901138305,9.802595138549805,1.715487718582153,-3.257989883422852,0.456061452627182
3999774327.0,-0.3938408195972442,0.0588897466659545,9.871759414672852,1.9069284200668333,-2.7832040786743164,0.3240200579166412
3999782660.0,-0.7011502981185913,0.2403178215026855,10.226076126098633,1.786720871925354,-2.6348466873168945,0.3979683518409729
3999790993.0,-0.7897371053695679,0.0112628787755966,10.345625877380373,1.5731236934661863,-3.054638385772705,0.6193009614944458
3999799326.0,-0.5898587703704834,-0.2451697140932083,10.056270599365234,1.5337803363800049,-3.415466070175171,0.647527813911438
3999807659.0,-0.3812058866024017,-0.0941374227404594,9.81284236907959,1.768688440322876,-3.1446213722229004,0.4185109734535217
3999815992.0,-0.553815484046936,0.1239462494850158,9.971014976501465,1.854727029800415,-2.7817702293396,0.3862627148628235
3999824325.0,-0.7481573820114136,0.029003694653511,10.212900161743164,1.608497142791748,-2.892372369766236,0.5026537775993347
3999832658.0,-0.6097297072410583,-0.2637364566326141,10.140673637390137,1.5382627248764038,-3.462186098098755,0.6081075072288513
3999840991.0,-0.2808273732662201,-0.1866677403450012,9.851686477661133,1.7374389171600342,-3.483241319656372,0.4561126232147217
3999849324.0,-0.3092904388904571,0.1654070615768432,9.871665954589844,1.8628976345062256,-2.724573135375977,0.3228418231010437
3999857657.0,-0.6929008364677429,0.1706496924161911,10.126052856445312,1.7645134925842283,-2.550191879272461,0.40667724609375
3999865990.0,-0.874002993106842,-0.1972683370113372,10.26391887664795,1.6670386791229248,-2.98300838470459,0.409891813993454
3999874323.0,-0.6189113259315491,-0.4023292958736419,10.010611534118652,1.7642699480056765,-3.561556816101074,0.6400613188743591
3999882656.0,-0.3543564677238464,-0.0516937710344791,9.85004997253418,1.968235969543457,-3.288047790527344,0.4187798798084259
3999890989.0,-0.5555290579795837,0.324436753988266,10.118803024291992,1.8516017198562624,-2.7263920307159424,0.3116483986377716
3999899322.0,-0.7809007167816162,0.1546956300735473,10.271921157836914,1.6856727600097656,-2.815093994140625,0.5024232268333435
3999907655.0,-0.6764811873435974,-0.1892413049936294,10.21424388885498,1.4480751752853394,-3.42960524559021,0.5231707096099854
3999915988.0,-0.3444740176200866,-0.3397395610809326,9.81192684173584,1.54817533493042,-3.69535231590271,0.5194565653800964
3999924321.0,-0.2425494194030761,0.0562138184905052,9.818419456481934,1.8913805484771729,-3.0189321041107178,0.3327032923698425
3999932654.0,-0.6075051426887512,0.1865549385547638,10.063517570495604,1.873181700706482,-2.429996490478516,0.4252602756023407
3999940987.0,-0.8320635557174683,-0.0012539020972326,10.333367347717283,1.621137619018555,-2.864286184310913,0.4741834998130798
3999949320.0,-0.679780125617981,-0.229829654097557,10.093913078308104,1.5667073726654053,-3.4437825679779053,0.475054383277893
3999957653.0,-0.4464339017868042,-0.0388260930776596,9.947150230407717,1.56880784034729,-3.343451499938965,0.4310747385025024
3999965986.0,-0.5217772722244263,0.1204321905970573,9.973626136779783,1.771288514137268,-2.759831666946411,0.3644265532493591
3999974319.0,-0.747900664806366,-0.0378762260079383,10.197925567626951,1.6852374076843262,-2.878822326660156,0.5152559876441956
3999982652.0,-0.6301220059394836,-0.2312257438898086,10.076220512390137,1.507653832435608,-3.5708930492401123,0.4829563796520233
3999990985.0,-0.3233333528041839,-0.0861247777938842,9.92534065246582,1.6212530136108398,-3.3836019039154053,0.4596730172634125
3999999318.0,-0.3414545357227325,0.1332835704088211,9.923680305480955,1.7660245895385742,-2.7718827724456787,0.398941695690155
4000007651.0,-0.6975529193878174,0.018131935968995,10.143318176269531,1.6838284730911257,-2.4312903881073,0.612769365310669
4000015984.0,-0.8498838543891907,-0.3008551001548767,10.171640396118164,1.6138378381729126,-3.1103880405426025,0.4845573306083679
4000024317.0,-0.5669021010398865,-0.243768498301506,10.022238731384276,1.7440091371536257,-3.5672686100006104,0.4117103815078735
4000032650.0,-0.3735139071941376,0.0381398200988769,9.978034019470217,1.837257742881775,-3.0752577781677246,0.3818057775497436
4000040983.0,-0.5417011380195618,0.1668895334005355,10.080827713012695,1.811976432800293,-2.733743190765381,0.4124916493892669
4000049316.0,-0.6799787282943726,-0.0377786569297313,10.157788276672363,1.7077522277832031,-2.9889891147613525,0.5181503295898438
4000057649.0,-0.520428478717804,-0.2477145940065384,9.975664138793944,1.6513495445251465,-3.5665388107299805,0.4801388382911682
4000065982.0,-0.3226572573184967,-0.1007473468780517,9.902692794799805,1.6713287830352783,-3.179046630859375,0.444304496049881
4000074315.0,-0.5063392519950867,0.0737070813775062,10.06265640258789,1.866650342941284,-2.7632126808166504,0.2978551089763641
4000082648.0,-0.7617350220680237,0.0128654744476079,10.22968292236328,1.8506284952163696,-2.810483455657959,0.4457901120185852
4000090981.0,-0.7600129246711731,-0.1012149006128311,10.099979400634766,1.7762447595596311,-3.2940800189971924,0.5272433757781982
4000099314.0,-0.5173951387405396,-0.0529515780508518,9.949820518493652,1.6392594575881958,-3.4105732440948486,0.3912317752838135
4000107647.0,-0.4727614223957062,-0.0097848437726497,10.03098201751709,1.6000957489013672,-3.0046651363372803,0.4531671106815338
4000115980.0,-0.5866236686706543,-0.0690077543258667,10.119114875793455,1.841176986694336,-2.966115951538086,0.4944571852684021
4000124313.0,-0.5734069347381592,-0.191078320145607,10.054685592651367,1.7767186164855957,-3.259180784225464,0.5971574187278748
4000132646.0,-0.3744443953037262,-0.0923889502882957,9.883180618286133,1.6155537366867063,-3.332027673721313,0.4959812462329864
4000140979.0,-0.4069856703281402,0.0744118019938469,10.000741958618164,1.801961660385132,-2.8888378143310547,0.4226605296134949
4000149312.0,-0.6477951407432556,0.0442458055913448,10.192132949829102,1.7276288270950315,-2.6417112350463867,0.5339799523353577
4000157645.0,-0.7961773872375488,-0.1758532077074051,10.13132381439209,1.7906397581100464,-3.144979953765869,0.5443793535232544
4000165978.0,-0.6113283038139343,-0.2039569020271301,9.932969093322754,1.718791961669922,-3.3590633869171143,0.5373866558074951
4000174311.0,-0.536462128162384,0.0014913339400663,9.99651336669922,1.736824631690979,-3.064525842666626,0.3501978516578674
4000182644.0,-0.623437225818634,0.1172723770141601,10.215738296508787,1.776052474975586,-2.980087995529175,0.4933429658412933
4000190977.0,-0.6320399045944214,-0.0293230935931205,10.198731422424316,1.703077793121338,-3.145812511444092,0.612321138381958
4000199310.0,-0.4342506527900696,-0.1266647726297378,9.922992706298828,1.6371208429336548,-3.3342301845550537,0.4256444871425628
4000207643.0,-0.3756512403488159,-0.0220229607075452,9.889958381652832,1.6541929244995115,-3.111246109008789,0.4534744620323181
4000215976.0,-0.5300604701042175,0.0735595598816871,10.15030288696289,1.7064714431762695,-2.734280824661255,0.3351878225803375
4000224309.0,-0.7436594367027283,-0.0558494366705417,10.23430061340332,1.7990285158157349,-2.856806516647339,0.4737992286682129
4000232642.0,-0.6231738924980164,-0.1278501152992248,10.027562141418455,1.6910005807876587,-3.2582714557647705,0.5356448292732239
4000240975.0,-0.5261969566345215,-0.0347211211919784,9.935304641723633,1.757021188735962,-3.213279962539673,0.4660637676715851
4000249308.0,-0.5994106531143188,0.1028047427535057,10.075376510620115,1.6922558546066284,-2.98455810546875,0.4758869111537933
4000257641.0,-0.6721598505973816,0.0052111484110355,10.224654197692873,1.6311143636703491,-3.0486443042755127,0.5281142592430115
4000265974.0,-0.5281554460525513,-0.1887837648391723,10.089162826538086,1.6307812929153442,-3.338828086853028,0.5168951749801636
4000274307.0,-0.3239758312702179,-0.1240897253155708,9.865728378295898,1.8030881881713867,-3.278019666671753,0.4906917810440063
4000282640.0,-0.4059377908706665,0.0887327194213867,9.987114906311035,1.8231444358825684,-2.7794647216796875,0.3488914966583252
4000290973.0,-0.6836235523223877,0.039910614490509,10.130475044250488,1.6433707475662231,-2.60755467414856,0.4075608849525451
4000299306.0,-0.8014283776283264,-0.238164946436882,10.16834831237793,1.6538344621658323,-3.0908572673797607,0.4787301123142242
4000307639.0,-0.5915666222572327,-0.2028954476118087,10.006656646728516,1.6373897790908811,-3.3546831607818604,0.4754001200199127
4000315972.0,-0.4624800682067871,0.0893503427505493,10.005806922912598,1.7494523525238037,-3.1728482246398926,0.394305557012558
4000324305.0,-0.5472013354301453,0.1261240541934967,10.123125076293944,1.7003626823425293,-2.782960891723633,0.4362232089042663
4000332638.0,-0.6186050772666931,-0.1580405384302139,10.186918258666992,1.6240578889846802,-3.182953119277954,0.5214418768882751
4000340971.0,-0.4576351940631866,-0.2365923523902893,9.98583984375,1.7390143871307373,-3.3972413539886475,0.5860409140586853
4000349304.0,-0.3232615888118744,-0.0032201632857322,9.842719078063965,1.8439303636550903,-3.104932308197021,0.3813319504261017
4000357637.0,-0.5190229415893555,0.1243245750665664,10.074457168579102,1.7518213987350464,-2.694386959075928,0.3939853608608246
4000365970.0,-0.748403012752533,-0.0292261391878128,10.215558052062988,1.6727120876312256,-2.817732572555542,0.5068289041519165
4000374303.0,-0.6701734066009521,-0.1520513743162155,10.12833023071289,1.61285138130188,-3.32786512374878,0.3964058458805084
4000382636.0,-0.4725529849529266,-0.066497266292572,9.917381286621094,1.712311625480652,-3.243645668029785,0.4349552989006042
4000390969.0,-0.5377162098884583,0.0568230114877224,10.019689559936523,1.680498719215393,-2.748497247695923,0.4371581375598907
4000399302.0,-0.7069576382637024,-0.075316734611988,10.167510032653809,1.6849557161331177,-3.057353973388672,0.4545758962631225
4000407635.0,-0.5777512192726135,-0.1855653375387191,10.085444450378418,1.6320109367370603,-3.379682779312134,0.585771918296814
4000415968.0,-0.3016647100448608,-0.0367448627948761,9.893177032470703,1.6373770236968994,-3.3675034046173096,0.3881709277629852
4000424301.0,-0.392183393239975,0.0949569642543792,9.944099426269531,1.680793285369873,-2.7247140407562256,0.430895447731018
4000432634.0,-0.672082781791687,-0.0425038114190101,10.125385284423828,1.760991454124451,-2.637933254241944,0.4207265973091125
4000440967.0,-0.7755240797996521,-0.2664879858493805,10.102635383605955,1.7170246839523315,-3.1532022953033447,0.4746830463409424
4000449300.0,-0.5816728472709656,-0.1511609405279159,9.97732639312744,1.7350313663482666,-3.3347811698913574,0.3985574841499328
4000457633.0,-0.5158807039260864,0.0643687322735786,10.06964874267578,1.89202094078064,-3.170337677001953,0.3963290154933929
4000465966.0,-0.618040919303894,0.0972284525632858,10.218080520629885,1.7805094718933103,-2.8156192302703857,0.356178730726242
4000474299.0,-0.6264095902442932,-0.1220020502805709,10.11857795715332,1.6534885168075562,-3.2821056842803955,0.3343298137187958
4000482632.0,-0.4306514263153076,-0.1799827665090561,9.893261909484863,1.676361918449402,-3.3681440353393555,0.4857099652290344
4000490965.0,-0.4038351774215698,-0.0128113497048616,9.89967441558838,1.7714037895202637,-3.017190456390381,0.3363661468029022
4000499298.0,-0.5936421155929565,0.0880023166537284,10.090662002563477,1.796403169631958,-2.7497265338897705,0.5136678814888
4000507631.0,-0.7209336161613464,-0.0447867736220359,10.181090354919434,1.7679716348648071,-3.0039994716644287,0.5099025964736938
4000515964.0,-0.6299178600311279,-0.1078377142548561,10.09143352508545,1.6309864521026611,-3.196106195449829,0.4285517930984497
4000524297.0,-0.5321944952011108,-0.0051976479589939,9.965755462646484,1.68718421459198,-3.169595241546631,0.4279626607894897
4000532630.0,-0.6084588170051575,0.0425936393439769,10.076041221618652,1.6919996738433838,-2.8164520263671875,0.4142334461212158
4000540963.0,-0.7164344787597656,-0.1253931373357772,10.173770904541016,1.6915898323059082,-3.021801233291626,0.4973004758358001
4000549296.0,-0.5071551203727722,-0.1730735003948211,9.998144149780272,1.7351337671279907,-3.505909919738769,0.5018596649169922
4000557629.0,-0.2920304536819458,-0.0010385761270299,9.86833381652832,1.6719177961349487,-3.368592023849488,0.385340541601181
4000565962.0,-0.4363508522510528,0.087826207280159,10.013920783996582,1.7092634439468384,-2.675368309020996,0.4018104672431946
4000574295.0,-0.7253736257553101,-0.080233447253704,10.19595718383789,1.7773205041885376,-2.619324207305908,0.4306776821613312
4000582628.0,-0.7457592487335205,-0.2562557160854339,10.0658597946167,1.7789853811264038,-3.170773267745972,0.542842447757721
4000590961.0,-0.5387224555015564,-0.1146362200379371,9.92166519165039,1.7418445348739624,-3.326993942260742,0.481829285621643
4000599294.0,-0.5269664525985718,0.1295292228460312,10.064807891845703,1.7187535762786863,-3.025809526443481,0.352336585521698
4000607627.0,-0.6730445623397827,0.0668189078569412,10.276491165161133,1.837795615196228,-3.072875738143921,0.4923568069934845
4000615960.0,-0.5476650595664978,-0.1637780666351318,10.106366157531738,1.7870795726776123,-3.3315279483795166,0.5666124224662781
4000624293.0,-0.3392937779426574,-0.1534763723611831,9.844240188598633,1.7361328601837158,-3.225254535675049,0.4162825345993042
4000632626.0,-0.402367502450943,0.0571149699389934,9.944774627685549,1.7905373573303225,-2.8698315620422363,0.3371601402759552
4000640959.0,-0.6205044388771057,0.0717277228832244,10.190288543701172,1.7478387355804443,-2.8709075450897217,0.3589067161083221
4000649292.0,-0.7016079425811768,-0.1039115265011787,10.148818969726562,1.7048068046569824,-3.1509993076324463,0.4806768000125885
4000657625.0,-0.5352451205253601,-0.1087898835539817,9.940593719482422,1.6312679052352903,-3.2542240619659424,0.5365157127380371
4000665958.0,-0.5197767019271851,0.0547988824546337,10.006909370422363,1.8285876512527464,-3.0195088386535645,0.3810758292675018
4000674291.0,-0.6708138585090637,0.0665584355592727,10.15116024017334,1.7344170808792114,-2.8634283542633057,0.4045768976211548
4000682624.0,-0.6979379057884216,-0.1663780510425567,10.147546768188477,1.60475754737854,-3.118776798248291,0.5417667031288147
4000690957.0,-0.4507244229316711,-0.1538310348987579,9.995453834533691,1.6805754899978638,-3.4862637519836426,0.4125940799713135
4000699290.0,-0.2773810625076294,0.0770214796066284,9.955729484558104,1.7461477518081665,-3.2030723094940186,0.3813703060150146
4000707623.0,-0.4450670778751373,0.0824089795351028,10.001875877380373,1.7103904485702517,-2.8010830879211426,0.5037038922309875
4000715956.0,-0.7120591402053833,-0.1527502685785293,10.151381492614746,1.611647605895996,-2.783921480178833,0.4945340454578399
4000724289.0,-0.6927277445793152,-0.303361177444458,10.075026512145996,1.806085228919983,-3.339468717575073,0.4338282644748688
4000732622.0,-0.4821167290210724,-0.0674435794353485,9.958879470825195,1.748786211013794,-3.3442840576171875,0.4118512570858001
4000740955.0,-0.5452781915664673,0.1385971903800964,10.0112886428833,1.727436661720276,-2.7925150394439697,0.3846873939037323
4000749288.0,-0.7313269972801208,0.0213320143520832,10.285632133483888,1.7777433395385742,-2.915130615234375,0.5193670392036438
4000757621.0,-0.6157013177871704,-0.1755799353122711,10.089682579040527,1.7925609350204468,-3.39976453781128,0.5463259816169739
4000765954.0,-0.3646897673606872,-0.1179370731115341,9.822938919067385,1.6704834699630735,-3.329684019088745,0.452757179737091
4000774287.0,-0.411429762840271,0.0444961301982402,9.975736618041992,1.7513093948364258,-2.762751579284668,0.4336874485015869
4000782620.0,-0.6741076707839966,0.008841841481626,10.23633098602295,1.7368627786636353,-2.764621019363404,0.403206467628479
4000790953.0,-0.6977468729019165,-0.1387109458446502,10.12378215789795,1.6016838550567627,-3.1390888690948486,0.5402042865753174
4000799286.0,-0.5260295271873474,-0.0891842618584632,9.984750747680664,1.5912845134735107,-3.14815616607666,0.3307310342788696
4000807619.0,-0.5488975644111633,0.0619429163634777,10.082208633422852,1.7897179126739502,-2.8574090003967285,0.3441272974014282
4000815952.0,-0.6840372681617737,0.0113149043172597,10.227510452270508,1.700273036956787,-2.9243648052215576,0.4871059358119964
4000824285.0,-0.6466803550720215,-0.1916055530309677,10.079730987548828,1.694227933883667,-3.3111135959625244,0.4817268848419189
4000832618.0,-0.4061388671398163,-0.1574712395668029,9.94084358215332,1.6161301136016846,-3.338674306869507,0.5423557758331299
4000840951.0,-0.3262354135513305,0.0957043692469596,9.986490249633787,1.7641165256500244,-3.063436985015869,0.3694469630718231
4000849284.0,-0.5286568999290466,0.0418108999729156,10.104493141174316,1.7077395915985107,-2.7801947593688965,0.3859424889087677
4000857617.0,-0.7141324281692505,-0.1883112788200378,10.106225967407228,1.5773757696151731,-2.8895034790039062,0.5269873142242432
4000865950.0,-0.6635546088218689,-0.1975065022706985,10.085485458374023,1.668690204620361,-3.309115171432495,0.4815219342708587
4000874283.0,-0.5508815050125122,0.012898251414299,9.996334075927734,1.68165123462677,-3.1837081909179688,0.489539235830307
4000882616.0,-0.5875467658042908,0.0914537757635116,10.104869842529297,1.7779353857040403,-2.874852180480957,0.5520124435424805
4000890949.0,-0.6668788194656372,-0.0626829415559768,10.18663215637207,1.6992613077163696,-3.075680494308472,0.4745934009552002
4000899282.0,-0.4975424408912658,-0.1840384602546692,10.02659511566162,1.6860953569412231,-3.40315842628479,0.5428552627563477
4000907615.0,-0.3221221268177032,-0.0650398880243301,9.799392700195312,1.806674242019653,-3.2507662773132324,0.3881068527698517
4000915948.0,-0.4593440592288971,0.0684381946921348,9.983798027038574,1.7290376424789429,-2.7985727787017822,0.4102888107299804
4000924281.0,-0.7042533755302429,0.0232478715479373,10.253976821899414,1.7077012062072754,-2.761688470840454,0.4459950923919678
4000932614.0,-0.6712239384651184,-0.1351965963840484,10.097000122070312,1.7518855333328247,-3.3446171283721924,0.4472757577896118
4000940947.0,-0.4949016869068146,-0.0662286356091499,9.8958158493042,1.6659241914749146,-3.077511787414551,0.4284749031066894
4000949280.0,-0.6161328554153442,0.0577714294195175,10.09205150604248,1.783519268035889,-2.6941440105438232,0.4592376351356506
4000957613.0,-0.752561092376709,-0.0077685629948973,10.211448669433594,1.6340088844299316,-2.9769508838653564,0.5030636787414551
4000965946.0,-0.5956103801727295,-0.1844213604927063,10.070225715637209,1.7004905939102173,-3.3911964893341064,0.5601192712783813
4000974279.0,-0.3312398195266723,-0.0708467289805412,9.875046730041504,1.7058182954788208,-3.336817502975464,0.522491991519928
4000982612.0,-0.3416085243225097,0.1141605228185653,10.010972023010254,1.650312423706055,-2.888542890548706,0.1986511945724487
4000990945.0,-0.5866597294807434,-0.0094945859163999,10.080232620239258,1.6979293823242188,-2.8220744132995605,0.5149614214897156
4000999278.0,-0.7107065320014954,-0.2492672801017761,10.057130813598633,1.6800761222839355,-2.8904895782470703,0.5765636563301086
4001007611.0,-0.5747790932655334,-0.1778590977191925,9.984862327575684,1.7683427333831787,-3.256183862686157,0.4212132692337036
4001015944.0,-0.5018234252929688,0.0755730122327804,9.997584342956545,1.7340198755264282,-3.1112844944000244,0.3949075043201446
4001024277.0,-0.6217266917228699,0.118620678782463,10.116008758544922,1.744188666343689,-2.7429516315460205,0.4527188241481781
4001032610.0,-0.7153757810592651,-0.0746023282408714,10.20738697052002,1.624224305152893,-3.1334023475646973,0.5758079886436462
4001040943.0,-0.4835247695446014,-0.1750873625278473,10.004432678222656,1.6144394874572754,-3.5662569999694824,0.4905638396739959
4001049276.0,-0.3479932248592376,-0.0514539927244186,9.868163108825684,1.773478388786316,-3.25576114654541,0.3758376538753509
4001057609.0,-0.5374345779418945,0.0759743675589561,10.072986602783203,1.7956345081329346,-2.613433122634888,0.375709593296051
4001065942.0,-0.7258450388908386,-0.0142818093299865,10.234601974487305,1.7633610963821411,-2.892449378967285,0.4432287514209747
4001074275.0,-0.6099562644958496,-0.1376965492963791,10.035621643066406,1.6213552951812744,-3.3436949253082275,0.4273222386837005
4001082608.0,-0.4775474965572357,-0.0414605140686035,9.947211265563965,1.6724560260772705,-3.0300748348236084,0.4349809885025024
4001090941.0,-0.626237690448761,0.0688385665416717,10.130395889282228,1.700260043144226,-2.7223832607269287,0.4523346126079559
4001099274.0,-0.7241824865341187,-0.0776981636881828,10.20107078552246,1.6694717407226562,-2.9810359477996826,0.4541019201278686
4001107607.0,-0.5493979454040527,-0.2275493443012237,9.986151695251465,1.6779886484146118,-3.4175918102264404,0.4948157668113708
4001115940.0,-0.3339462578296661,-0.01017911080271,9.913429260253906,1.7203160524368286,-3.337867498397827,0.6136786341667175
4001124273.0,-0.3847412765026092,0.1499046236276626,10.040186882019045,1.6960338354110718,-2.9030919075012207,0.3116100132465362
4001132606.0,-0.6170099973678589,-0.0794800966978073,10.093866348266602,1.701591968536377,-2.649280309677124,0.3840470612049103
4001140939.0,-0.7128254175186157,-0.2842718958854675,10.071797370910645,1.7654868364334106,-3.0507707595825195,0.5682005882263184
4001149272.0,-0.5562403798103333,-0.1249174699187278,10.00056266784668,1.6460602283477783,-3.2706048488616943,0.3877866864204407
4001157605.0,-0.5088444352149963,0.0859650373458862,10.009325981140137,1.645061492919922,-3.046838998794556,0.3851484656333923
4001165938.0,-0.6334858536720276,0.0675782710313797,10.179096221923828,1.7538065910339355,-2.8825106620788574,0.5209422707557678
4001174271.0,-0.6434027552604675,-0.1137241497635841,10.203959465026855,1.7257592678070068,-3.2490503787994385,0.5354655981063843
