SampleTimeFine,Acc_X,Acc_Y,Acc_Z,Gyr_X,Gyr_Y,Gyr_Z
4199196851.0,0.0,0.0,0.0,0.0,0.0,0.0
4199205184.0,0.0169165190309286,-0.1971741914749145,9.460931777954102,1.6340343952178955,-0.4512843787670135,0.0255373902618885
4199213517.0,-0.419893354177475,0.0603413842618465,9.508760452270508,1.628015160560608,-0.3343810439109802,-0.0789302662014961
4199221850.0,-0.575979471206665,-0.1424318104982376,9.60483741760254,1.3812988996505735,-0.9722011089324952,-0.2408378422260284
4199230183.0,-0.2325246781110763,-0.4459299147129059,9.605243682861328,1.4152119159698486,-1.3905583620071411,-0.2484452575445175
4199238516.0,-0.0047183469869196,-0.3406117260456085,9.513298034667969,1.4637253284454346,-0.965797483921051,0.0782770961523056
4199246849.0,-0.2812784016132355,-0.0971856787800788,9.45978546142578,1.5275050401687622,-0.4182420670986175,0.0788662359118461
4199255182.0,-0.490274965763092,-0.1309511810541153,9.520234107971191,1.5007636547088623,-0.907371461391449,-0.1332068145275116
4199263515.0,-0.1988476067781448,-0.3606850206851959,9.578615188598633,1.3378057479858398,-1.480797290802002,-0.2949351072311401
4199271848.0,0.1051911041140556,-0.3589040338993072,9.505208015441896,1.408091425895691,-1.043408751487732,-0.0486798547208309
4199280181.0,-0.1338082402944564,-0.137871041893959,9.406947135925291,1.570587992668152,-0.3592012226581573,-0.0923265069723129
4199288514.0,-0.5866547226905823,-0.208419531583786,9.510842323303224,1.5120339393615725,-0.4724673628807068,-0.0235266759991645
4199296847.0,-0.5298188328742981,-0.5136945247650146,9.70291805267334,1.420206904411316,-1.2075960636138916,-0.2940642535686493
4199305180.0,-0.1063410118222236,-0.5132262706756592,9.645397186279297,1.538544774055481,-1.406721115112305,-0.1348717510700225
4199313513.0,-0.0138335982337594,-0.1344949007034301,9.48730182647705,1.492029070854187,-0.7579379081726074,0.0409571565687656
4199321846.0,-0.3367272317409515,0.0114803127944469,9.414071083068848,1.4990730285644531,-0.4608384668827057,-0.1031613275408744
4199330179.0,-0.3855666518211365,-0.3097054660320282,9.494101524353027,1.3869339227676392,-1.0462517738342283,-0.2120986729860305
4199338512.0,-0.1075146496295929,-0.6438366770744324,9.588674545288086,1.408603549003601,-1.3813116550445557,-0.1899935901165008
4199346845.0,0.0555097870528698,-0.4557454884052276,9.528938293457031,1.4954359531402588,-0.9271969199180604,-0.0021131744142621
4199355178.0,-0.2954624891281128,-0.0767428502440452,9.4993257522583,1.5976622104644775,-0.331819623708725,0.1283017098903656
4199363511.0,-0.5861808657646179,-0.0733081549406051,9.505806922912598,1.5201537609100342,-0.7662369608879089,-0.1394054889678955
4199371844.0,-0.3902137577533722,-0.4268765747547149,9.623846054077148,1.3560175895690918,-1.4458082914352417,-0.1807212382555008
4199380177.0,-0.0396681912243366,-0.4904950559139251,9.591608047485352,1.4628289937973022,-1.189998984336853,-0.0852313712239265
4199388510.0,-0.1358875036239624,-0.2598089873790741,9.461607933044434,1.5737131834030151,-0.6517926454544067,0.1365751028060913
4199396843.0,-0.4005919396877289,-0.1296489238739013,9.465062141418455,1.581653356552124,-0.7806065678596497,-0.1540312021970749
4199405176.0,-0.2901686131954193,-0.3740254342556,9.556336402893066,1.5099334716796875,-1.2996532917022705,-0.2326668947935104
4199413509.0,0.0449362508952617,-0.4439922273159027,9.543190956115724,1.3714888095855713,-1.329135537147522,-0.1196825355291366
4199421842.0,-0.0098065473139286,-0.2338049709796905,9.394071578979492,1.441543459892273,-0.6838616132736206,-0.0603087171912193
4199430175.0,-0.401621013879776,-0.1545411348342895,9.413668632507324,1.6157714128494265,-0.4533847570419311,-0.1580782532691955
4199438508.0,-0.5837089419364929,-0.3907920122146606,9.585128784179688,1.624480366706848,-1.1773453950881958,-0.2961902022361755
4199446841.0,-0.2191386967897415,-0.5823710560798645,9.668992042541504,1.5409266948699951,-1.4782871007919312,-0.208563894033432
4199455174.0,0.0123381037265062,-0.3080642223358154,9.54407787322998,1.685135006904602,-1.038209080696106,-0.0008580769062973
4199463507.0,-0.185387372970581,0.0516721308231353,9.420872688293455,1.5920783281326294,-0.4466738104820251,0.029738126322627
4199471840.0,-0.424387127161026,-0.0709350854158401,9.471813201904297,1.4407750368118286,-0.9144153594970704,-0.2275696545839309
4199480173.0,-0.2109529823064804,-0.4841249883174896,9.567773818969728,1.3059163093566897,-1.4170949459075928,-0.2374823987483978
4199488506.0,0.0846977829933166,-0.4948310256004333,9.575286865234377,1.3962064981460571,-1.2362582683563232,-0.1298513859510421
4199496839.0,-0.0680092275142669,-0.1242019683122634,9.475263595581056,1.4815529584884644,-0.5020005702972412,0.0235907118767499
4199505172.0,-0.4637750685214996,0.0372025109827518,9.52883529663086,1.618025541305542,-0.5142697691917419,-0.0788534209132194
4199513505.0,-0.4761033058166504,-0.2496513575315475,9.631952285766602,1.3450289964675903,-1.1580579280853271,-0.299033373594284
4199521838.0,-0.1828757226467132,-0.4151057302951813,9.638733863830566,1.2382946014404297,-1.26289701461792,-0.0425836667418479
4199530171.0,-0.1453743875026703,-0.3038671016693115,9.58267879486084,1.3740755319595337,-0.8767880201339722,-0.0375632680952549
4199538504.0,-0.2852392792701721,-0.1036228314042091,9.434881210327148,1.5306553840637207,-0.7320675849914551,-0.0921215936541557
4199546837.0,-0.3728759586811065,-0.2384762167930603,9.49579620361328,1.486701250076294,-1.1237860918045044,-0.2319497019052505
4199555170.0,-0.0857291966676712,-0.4273033142089844,9.549867630004885,1.3634201288223269,-1.334744930267334,-0.1133557930588722
4199563503.0,0.0106782848015427,-0.2690687179565429,9.497028350830078,1.4598320722579956,-0.8703588247299194,0.0130120310932397
4199571836.0,-0.2910777926445007,-0.0651480928063392,9.407848358154297,1.4697961807250977,-0.4561255276203155,-0.0543662197887897
4199580169.0,-0.5688727498054504,-0.2210657596588134,9.55585479736328,1.3865242004394531,-0.7238198518753052,-0.1653014719486236
4199588502.0,-0.384479820728302,-0.5219579339027405,9.674592971801758,1.3792496919631958,-1.4549524784088137,-0.2139941155910492
4199596835.0,-0.0349013768136501,-0.4105073809623718,9.61800765991211,1.4732537269592283,-1.2124625444412231,-0.1105382293462753
4199605168.0,-0.0974717885255813,-0.0116877453401684,9.453819274902344,1.4998414516448977,-0.5085066556930542,-0.028931276872754
4199613501.0,-0.3814468383789062,0.0280677750706672,9.401731491088867,1.4627009630203247,-0.6014350652694702,-0.0553139448165893
4199621834.0,-0.3105031251907348,-0.3438886106014251,9.521373748779297,1.3039439916610718,-1.2220680713653564,-0.3463685214519501
4199630167.0,0.001134799211286,-0.5556478500366211,9.598694801330566,1.360320806503296,-1.2844641208648682,-0.1741127371788025
4199638500.0,-0.0043560811318457,-0.2433182597160339,9.521971702575684,1.5653371810913086,-0.6025364398956299,0.027125472202897
4199646833.0,-0.3769619762897491,-0.0351633764803409,9.483110427856444,1.570587992668152,-0.4000558853149414,-0.0488079227507114
4199655166.0,-0.5087202191352844,-0.2315600216388702,9.59631633758545,1.427302002906799,-0.9732512831687928,-0.2920663058757782
4199663499.0,-0.2292239069938659,-0.4901323318481445,9.650672912597656,1.410832166671753,-1.3375113010406494,-0.1693229079246521
4199671832.0,-0.053517572581768,-0.3661182522773742,9.541098594665527,1.4008938074111938,-0.8083212375640869,0.0848343521356582
4199680165.0,-0.2707155346870422,-0.1828248351812362,9.446277618408203,1.624838948249817,-0.4872210919857025,-0.0380755588412284
4199688498.0,-0.4094721674919128,-0.2538259029388428,9.46517562866211,1.5075513124465942,-0.9847263097763062,-0.2847918272018432
4199696831.0,-0.1607066541910171,-0.4836711287498474,9.56782341003418,1.4303244352340698,-1.3636378049850464,-0.2292858213186264
4199705164.0,0.0686029195785522,-0.3872048556804657,9.504054069519045,1.40719473361969,-0.8810656070709229,0.0252812504768371
4199713497.0,-0.1782202422618866,-0.1690574437379837,9.427390098571776,1.5120595693588257,-0.4506696462631225,0.0144976573064923
4199721830.0,-0.5158988237380981,-0.2205436080694198,9.479097366333008,1.4749187231063845,-0.5632954239845276,-0.2006747275590896
4199730163.0,-0.4735170602798462,-0.5450664758682251,9.660515785217283,1.4993549585342407,-1.234029769897461,-0.1687081605195999
4199738496.0,-0.0989308208227157,-0.5046824812889099,9.64324951171875,1.4906460046768188,-1.2615138292312622,-0.1128691211342811
4199746829.0,-0.0864426419138908,-0.1368000656366348,9.465112686157228,1.7060104608535769,-0.729659914970398,0.0036116067785769
4199755162.0,-0.3252002000808716,-0.0278355553746223,9.411040306091309,1.5827034711837769,-0.6495386362075806,-0.1747274994850158
4199763495.0,-0.33389812707901,-0.3246841728687286,9.518012046813965,1.5048874616622925,-1.161105990409851,-0.3761834502220154
4199771828.0,-0.0643934607505798,-0.5761345624923706,9.563485145568848,1.5953313112258911,-1.2615394592285156,-0.2570516467094421
4199780161.0,0.0067038917914032,-0.31787770986557,9.534584999084473,1.6120576858520508,-0.7371649146080017,-0.0136139672249555
4199788494.0,-0.3018785715103149,-0.0457209721207618,9.445486068725586,1.5614179372787476,-0.3660401999950409,-0.0461952686309814
4199796827.0,-0.5369064807891846,-0.1350743025541305,9.573719024658203,1.5541181564331057,-0.7340656518936157,-0.3001860678195953
4199805160.0,-0.3334599435329437,-0.3988162577152252,9.61894989013672,1.4403395652770996,-1.3247809410095217,-0.3104316890239715
4199813493.0,-0.1133602559566497,-0.3812578320503235,9.57241916656494,1.578323483467102,-1.0215342044830322,-0.0713228359818458
4199821826.0,-0.2564341723918915,-0.1719465404748916,9.502511024475098,1.5884922742843628,-0.5526655316352844,-0.1020086929202079
4199830159.0,-0.4326009154319763,-0.1546915769577026,9.49457550048828,1.7042686939239502,-0.8914393782615662,-0.1748043447732925
4199838492.0,-0.2429880648851394,-0.3767074942588806,9.590364456176758,1.5140318870544434,-1.2864620685577393,-0.2150955349206924
4199846825.0,0.0489159151911735,-0.3539766371250152,9.50568389892578,1.4736636877059937,-1.131035089492798,-0.0489616096019744
4199855158.0,-0.1108118444681167,-0.1149819493293762,9.436874389648438,1.500968337059021,-0.5484647750854492,-0.0117185115814208
4199863491.0,-0.4597561359405517,-0.1602952033281326,9.492151260375977,1.500097632408142,-0.404307872056961,-0.19688381254673
4199871824.0,-0.5170517563819885,-0.4478134214878082,9.627609252929688,1.5118545293807983,-1.0222511291503906,-0.2004441916942596
4199880157.0,-0.1728066205978393,-0.4837084114551544,9.62584114074707,1.6220982074737549,-1.293915867805481,-0.1499329060316085
4199888490.0,-0.1018937900662422,-0.1313853710889816,9.525050163269045,1.6013251543045044,-0.789981484413147,0.077483057975769
4199896823.0,-0.3390238583087921,0.062465850263834,9.443791389465332,1.6784753799438477,-0.6219521164894104,-0.0442229807376861
4199905156.0,-0.4126950204372406,-0.237924113869667,9.45195198059082,1.5295029878616333,-1.0691766738891602,-0.2942947745323181
4199913489.0,-0.1223499625921249,-0.5200955271720886,9.533496856689451,1.369951605796814,-1.382489800453186,-0.192657470703125
4199921822.0,0.0283634047955274,-0.3647046685218811,9.54372501373291,1.4981509447097778,-0.8595753908157349,0.0996906161308288
4199930155.0,-0.2489332258701324,-0.041021566838026,9.484606742858888,1.559983730316162,-0.3800255954265594,-0.0416871681809425
4199938488.0,-0.4860166907310486,-0.0640782564878463,9.552000045776367,1.5974574089050293,-0.6790973544120789,-0.2751609086990356
4199946821.0,-0.3478579521179199,-0.3675559461116791,9.652880668640137,1.5096005201339722,-1.2223496437072754,-0.2888389229774475
4199955154.0,-0.0839552506804466,-0.4079245924949646,9.583569526672363,1.483397126197815,-1.06968891620636,-0.1222183108329773
4199963487.0,-0.1832602769136428,-0.1822584569454193,9.46356964111328,1.5577811002731323,-0.6938000321388245,-0.0046233693137764
4199971820.0,-0.4001403450965881,-0.153594970703125,9.456146240234377,1.5756851434707642,-0.7815287113189697,-0.1224232167005539
4199980153.0,-0.2769125699996948,-0.3860520124435425,9.579251289367676,1.4070924520492554,-1.277010440826416,-0.3311536014080047
4199988486.0,0.0379433259367942,-0.4072632789611816,9.524405479431152,1.5657213926315308,-1.1338012218475342,-0.1262141317129135
4199996819.0,-0.0213012341409921,-0.1654738783836364,9.433313369750977,1.5635697841644287,-0.53322434425354,0.1205662041902542
4200005152.0,-0.4283408522605896,-0.1530565321445465,9.465850830078123,1.4873162508010864,-0.3579717576503753,-0.1266239881515503
4200013485.0,-0.5259779095649719,-0.4457579851150512,9.609649658203123,1.5238418579101562,-0.9619296789169312,-0.2538498640060425
4200021818.0,-0.2135477513074875,-0.5666114091873169,9.68734645843506,1.5246872901916504,-1.322731852531433,-0.1973192393779754
4200030151.0,-0.0547244548797607,-0.2557788491249084,9.549379348754885,1.5436160564422607,-0.9776055216789246,-0.014305549673736
4200038484.0,-0.2665578424930572,0.03220209851861,9.449785232543944,1.5878008604049685,-0.4805871248245239,-0.1532115489244461
4200046817.0,-0.3772709369659424,-0.1488566845655441,9.455232620239258,1.438930869102478,-0.8688220977783203,-0.3740575015544891
4200055150.0,-0.1815626621246338,-0.5603557229042053,9.543787002563477,1.4158780574798584,-1.2913031578063965,-0.2778247892856598
4200063483.0,-0.0007624494610354,-0.465442419052124,9.527457237243652,1.642154097557068,-1.1707370281219482,-0.0813123807311058
4200071816.0,-0.1760600805282592,-0.1198601871728897,9.498246192932127,1.5899523496627808,-0.530048131942749,-0.0625627636909484
4200080149.0,-0.4362742304801941,-0.0575810484588146,9.534189224243164,1.7553179264068604,-0.6042782068252563,-0.2830244600772857
4200088482.0,-0.4447304010391235,-0.3586274087429046,9.625168800354004,1.5135449171066284,-0.969972550868988,-0.382254034280777
4200096815.0,-0.2420497387647628,-0.4226325452327728,9.569697380065918,1.5805262327194214,-1.142228364944458,-0.1902241110801696
4200105148.0,-0.1770328283309936,-0.2193920612335205,9.463248252868652,1.441671371459961,-0.8399547338485718,-0.078802190721035
4200113481.0,-0.343739777803421,-0.1782148778438568,9.47256565093994,1.6326000690460205,-0.7041993141174316,-0.1382015943527221
4200121814.0,-0.3238398432731628,-0.3346733152866363,9.57895565032959,1.579348087310791,-0.9737635254859924,-0.3531306385993957
4200130147.0,-0.0688473358750343,-0.4512813687324524,9.578232765197754,1.532704472541809,-1.2381536960601809,-0.1736004650592804
4200138480.0,-0.000130936037749,-0.2005449533462524,9.404549598693848,1.6858264207839966,-0.7214377522468567,-0.0559542924165725
4200146813.0,-0.3369131982326507,-0.0845251455903053,9.406753540039062,1.5450506210327148,-0.3596622347831726,0.0333497300744056
4200155146.0,-0.5663479566574097,-0.3191428780555725,9.633957862854004,1.4789916276931765,-0.7871639132499695,-0.367884486913681
4200163479.0,-0.3745986521244049,-0.5745628476142883,9.679553985595703,1.5426942110061646,-1.354083776473999,-0.2613036334514618
4200171812.0,-0.0641187727451324,-0.3047751188278198,9.57615566253662,1.675299048423767,-1.1943020820617676,-0.0358471237123012
4200180145.0,-0.1971127241849899,0.0378025397658348,9.439337730407717,1.5842148065567017,-0.636347234249115,-0.0820039734244346
4200188478.0,-0.4128298461437225,-0.0543783269822597,9.457072257995604,1.6790130138397217,-0.75814288854599,-0.1362036913633346
4200196811.0,-0.2932348251342773,-0.4468492865562439,9.609691619873049,1.4740221500396729,-1.230213284492493,-0.2479842156171798
4200205144.0,-0.0010142334504052,-0.5113347172737122,9.556562423706056,1.4185162782669067,-1.2224777936935425,-0.0809025540947914
4200213477.0,-0.0559007339179515,-0.1636073589324951,9.438095092773438,1.575429081916809,-0.6311731338500977,0.0953874066472053
4200221810.0,-0.3989211916923523,0.0407926626503467,9.49096393585205,1.5892351865768433,-0.4707256555557251,0.0043031917884945
4200230143.0,-0.4804446399211883,-0.2312324345111847,9.596185684204102,1.4469995498657229,-0.9973031282424928,-0.3360203802585602
4200238476.0,-0.2381457239389419,-0.4704702496528625,9.631443977355955,1.4200531244277954,-1.3485509157180786,-0.1215011179447174
4200246809.0,-0.1144740954041481,-0.2915641963481903,9.49387550354004,1.431912541389465,-0.8603436946868896,-0.0499093383550643
4200255142.0,-0.3177936673164367,-0.076685607433319,9.43837547302246,1.45522141456604,-0.6236681938171387,-0.0272151250392198
4200263475.0,-0.4141075313091278,-0.1717745810747146,9.537567138671877,1.4347813129425049,-0.9501984119415284,-0.1881749629974365
4200271808.0,-0.150674507021904,-0.4049910306930542,9.599320411682127,1.404274821281433,-1.3257287740707395,-0.2392753809690475
4200280141.0,0.0856844186782836,-0.3754035234451294,9.491579055786133,1.421871781349182,-0.9463563561439514,0.0358855426311492
4200288474.0,-0.135832741856575,-0.1254549175500869,9.39340114593506,1.6221494674682615,-0.4352754652500152,-0.1116140261292457
4200296807.0,-0.4738973081111908,-0.1614181995391845,9.464591979980469,1.49323308467865,-0.5770246386528015,-0.2480866611003875
4200305140.0,-0.4752790629863739,-0.4705336987972259,9.69192123413086,1.4938220977783203,-1.1634880304336548,-0.2576919794082641
4200313473.0,-0.1270755976438522,-0.5413850545883179,9.667773246765137,1.5504041910171509,-1.2015509605407717,-0.1346668601036071
4200321806.0,-0.0472070500254631,-0.151879534125328,9.48926830291748,1.647866129875183,-0.8183107376098633,0.0448249094188213
4200330139.0,-0.3233871757984161,0.0730305239558219,9.403656959533691,1.539261817932129,-0.5884230136871338,-0.0402015410363674
4200338472.0,-0.4076111316680908,-0.2137778848409652,9.48757266998291,1.416569471359253,-1.0085220336914062,-0.4153988361358642
4200346805.0,-0.1562883555889129,-0.587589681148529,9.62198257446289,1.4144693613052368,-1.3048275709152222,-0.1807980686426162
4200355138.0,-0.0425737202167511,-0.3591513931751251,9.55185604095459,1.3226934671401978,-0.9891321063041688,0.1755855679512024
4200363471.0,-0.23654605448246,-0.1969533264636993,9.508241653442385,1.6940230131149292,-0.5444433689117432,-0.0506521426141262
4200371804.0,-0.4229187667369842,0.0497597493231296,9.42923069000244,1.6787056922912598,-0.6352201104164124,-0.1100771725177764
4200380137.0,-0.4162150621414184,-0.4071284234523773,9.614944458007812,1.3792240619659424,-0.9430007934570312,-0.2419392615556717
4200388470.0,-0.1605822145938873,-0.5814608335494995,9.681798934936523,1.3565810918807983,-1.0623632669448853,-0.0470661595463752
4200396803.0,-0.1622340679168701,-0.2642384469509125,9.491256713867188,1.6417443752288818,-0.7029187083244324,0.1050695851445198
4200405136.0,-0.3250098824501037,-0.0733281597495079,9.412419319152832,1.6883366107940674,-0.6660853624343872,-0.188456729054451
4200413469.0,-0.372825562953949,-0.2229486852884292,9.515941619873049,1.4785560369491575,-0.9967394471168518,-0.3691651225090027
4200421802.0,-0.1203688755631446,-0.4955530762672424,9.62024211883545,1.3398805856704712,-1.27055561542511,-0.2433992624282837
4200430135.0,-0.0160291716456413,-0.3632606863975525,9.48385238647461,1.5893632173538208,-0.8161078691482544,-0.0225021056830883
4200438468.0,-0.2935025990009308,-0.1022498905658721,9.392333984375,1.587570309638977,-0.403206467628479,0.109731376171112
4200446801.0,-0.5425782799720764,-0.1761973053216934,9.497668266296388,1.6012483835220337,-0.7283536195755005,-0.2637625932693481
4200455134.0,-0.4256701171398163,-0.4932748079299927,9.687726974487305,1.5336779356002808,-1.2873841524124146,-0.2379690557718277
4200463467.0,-0.0882565751671791,-0.5348532795906067,9.707881927490234,1.66331148147583,-1.29191792011261,-0.0907640382647514
4200471800.0,-0.0704184845089912,-0.0959110334515571,9.488451957702637,1.6435372829437256,-0.8339354395866394,0.163111463189125
4200480133.0,-0.3264236152172088,0.074276402592659,9.33580493927002,1.5990453958511353,-0.6902651786804199,-0.2206025570631027
4200488466.0,-0.38247150182724,-0.2343751043081283,9.515924453735352,1.3583996295928955,-0.9682052731513976,-0.3644008934497833
4200496799.0,-0.1543577015399933,-0.615979790687561,9.677462577819824,1.4980226755142212,-1.300985336303711,-0.2087688148021698
4200505132.0,-0.0096294786781072,-0.4461487531661987,9.581090927124023,1.5085246562957764,-0.843720018863678,0.0950800329446792
4200513465.0,-0.2375077754259109,0.010047803632915,9.414222717285156,1.6928961277008057,-0.5410623550415039,-0.0437619276344776
4200521798.0,-0.500679612159729,0.0225876197218894,9.432948112487791,1.5803214311599731,-0.7291219830513,-0.2328205853700637
4200530131.0,-0.4108975231647491,-0.3567205369472503,9.64060878753662,1.3587071895599363,-1.1709163188934326,-0.2546439468860626
4200538464.0,-0.1073656380176544,-0.5788161158561707,9.666998863220217,1.3210798501968384,-1.264946222305298,-0.101035363972187
4200546797.0,-0.0871674492955207,-0.2747291624546051,9.489731788635254,1.5650551319122314,-0.675946831703186,-0.0348737798631191
4200555130.0,-0.2947866320610046,-0.0042276615276932,9.368840217590332,1.618998885154724,-0.5699551105499268,-0.199163481593132
4200563463.0,-0.3482425510883331,-0.1754283607006073,9.505149841308594,1.5340365171432495,-0.932524561882019,-0.2604583203792572
4200571796.0,-0.118169292807579,-0.5069670677185059,9.643014907836914,1.590362310409546,-1.220300555229187,-0.2901196181774139
4200580129.0,-0.0018140733009204,-0.385989099740982,9.526225090026855,1.5837794542312622,-0.9037599563598632,-0.0053917970508337
4200588462.0,-0.277380108833313,-0.1141951382160186,9.43154525756836,1.5321409702301023,-0.4657820463180542,-0.0816197469830513
4200596795.0,-0.4273772537708282,-0.1345106959342956,9.438860893249512,1.613466501235962,-0.7633683085441589,-0.1788514107465744
4200605128.0,-0.3619066774845123,-0.4535220563411712,9.692615509033203,1.4115235805511477,-1.1229407787322998,-0.3014923334121704
4200613461.0,-0.0920667499303817,-0.5468353033065796,9.687304496765137,1.6101619005203247,-1.1551377773284912,-0.0949647724628448
4200621794.0,-0.1432714611291885,-0.1587496548891067,9.52667999267578,1.6966612339019775,-0.7243321537971497,0.0432112105190753
4200630127.0,-0.327218234539032,0.1296143680810928,9.329343795776367,1.6244806051254272,-0.711909294128418,-0.0950672402977943
4200638460.0,-0.380087673664093,-0.1496648490428924,9.439863204956056,1.349460482597351,-1.007010817527771,-0.1525199860334396
4200646793.0,-0.1550276428461074,-0.5943519473075867,9.64874267578125,1.289881706237793,-1.2104135751724243,-0.246037557721138
4200655126.0,-0.0372633673250675,-0.4995825588703155,9.605009078979492,1.4697448015213013,-0.9989678859710692,-0.1088220700621604
4200663459.0,-0.2209034711122512,-0.0371018834412097,9.42995834350586,1.6479942798614502,-0.4275400042533874,-0.0263954680413007
4200671792.0,-0.5071723461151123,0.046872578561306,9.424571990966797,1.5503015518188477,-0.5921627283096313,-0.1244211569428443
4200680125.0,-0.4244416952133178,-0.3139754831790924,9.61984157562256,1.466056227684021,-1.0000181198120115,-0.3253648281097412
4200688458.0,-0.1760458946228027,-0.5510708689689636,9.678414344787598,1.2730273008346558,-1.1750657558441162,-0.1560803204774856
4200696791.0,-0.1283577680587768,-0.3275144100189209,9.527130126953123,1.4908767938613892,-0.7646746635437012,-0.0363337956368923
4200705124.0,-0.3185305595397949,-0.0326500162482261,9.339170455932615,1.559266448020935,-0.7536348700523376,-0.1108199805021286
4200713457.0,-0.3801411092281341,-0.1606868952512741,9.453446388244627,1.5008916854858398,-0.9691274166107178,-0.2241117656230926
4200721790.0,-0.1996830999851226,-0.4907622635364532,9.662467002868652,1.3326572179794312,-1.3172247409820557,-0.2321289926767349
4200730123.0,-0.0606823787093162,-0.4772806763648987,9.648111343383787,1.5059632062911987,-0.9826260209083556,-0.070272646844387
4200738456.0,-0.2166292369365692,-0.0991054102778434,9.40932846069336,1.5928469896316528,-0.6041246056556702,-0.0354373008012771
4200746789.0,-0.4481019675731659,-0.0755813419818878,9.385531425476074,1.518872857093811,-0.802353024482727,-0.151059940457344
4200755122.0,-0.3881742656230926,-0.3844443261623382,9.633615493774414,1.4633924961090088,-1.1979392766952517,-0.2359455227851867
4200763455.0,-0.1908777505159378,-0.6443032026290894,9.756503105163574,1.3040462732315063,-1.38090181350708,-0.0793144777417182
4200771788.0,-0.0643584579229354,-0.219381183385849,9.507399559020996,1.6830601692199707,-0.9494044184684752,0.0245128218084573
4200780121.0,-0.2554851174354553,0.0740712434053421,9.316492080688477,1.6907187700271606,-0.6614235639572144,-0.0406625978648662
4200788454.0,-0.3474111557006836,-0.060017067939043,9.389220237731934,1.4479470252990725,-0.8917466402053833,-0.1755215227603912
4200796787.0,-0.2150954753160476,-0.5193706750869751,9.6643648147583,1.2458252906799316,-1.2975788116455078,-0.266605794429779
4200805120.0,-0.0463835857808589,-0.5645955204963684,9.685144424438477,1.4651600122451782,-1.061825394630432,-0.0623322464525699
4200813453.0,-0.1770585477352142,-0.1163831055164337,9.430865287780762,1.6120574474334717,-0.6438009142875671,0.0146257281303405
4200821786.0,-0.427914023399353,0.0524689629673957,9.359892845153809,1.5239956378936768,-0.7149829268455505,-0.1046725735068321
4200830119.0,-0.4016562104225158,-0.218451589345932,9.557822227478027,1.3214383125305176,-1.056215763092041,-0.288301020860672
4200838452.0,-0.1452683806419372,-0.5470141172409058,9.71079158782959,1.4117799997329712,-1.1467622518539429,-0.2877119183540344
4200846785.0,-0.1350201666355133,-0.4157414138317108,9.623433113098145,1.528734564781189,-0.907653272151947,-0.1063375025987625
4200855118.0,-0.2750360667705536,-0.0444116778671741,9.37509059906006,1.548508644104004,-0.7531993389129639,-0.1364854425191879
4200863451.0,-0.3698323369026184,-0.1017480641603469,9.423397064208984,1.5386725664138794,-1.008726954460144,-0.2319496721029281
4200871784.0,-0.1772521883249282,-0.4309929609298706,9.635753631591797,1.3648544549942017,-1.1622073650360107,-0.2221650630235672
4200880117.0,-0.0367958731949329,-0.50314861536026,9.62013053894043,1.383937120437622,-1.044407606124878,0.0558134168386459
4200888450.0,-0.1921190768480301,-0.150326058268547,9.427398681640623,1.5673861503601074,-0.6856802701950073,0.0945421382784843
4200896783.0,-0.3959248065948486,-0.0184170939028263,9.359527587890623,1.5028895139694214,-0.7351925373077393,-0.2012382298707962
4200905116.0,-0.4030767381191253,-0.343664139509201,9.556845664978027,1.4860098361968994,-1.1524741649627686,-0.2828451991081238
4200913449.0,-0.1743971705436706,-0.5905598998069763,9.709880828857422,1.370361566543579,-1.193149447441101,-0.0937609076499939
4200921782.0,-0.1258651465177536,-0.3971627056598663,9.598856925964355,1.5567049980163574,-0.8928481340408325,-0.0003714063786901
4200930115.0,-0.29376220703125,0.0254267994314432,9.37315845489502,1.693485140800476,-0.5689305067062378,-0.0240645725280046
4200938448.0,-0.4207247197628021,0.0244659297168254,9.341710090637209,1.4965884685516355,-0.9361874461174012,-0.1374075561761856
4200946781.0,-0.2707851231098175,-0.415448784828186,9.599773406982422,1.3108596801757812,-1.2560579776763916,-0.3044635951519012
4200955114.0,-0.1045904755592346,-0.6346696615219116,9.689334869384766,1.4462565183639526,-1.067588448524475,-0.1571049094200134
4200963447.0,-0.1779628247022628,-0.2591587007045746,9.512027740478516,1.657189965248108,-0.7858319878578186,0.0521249733865261
4200971780.0,-0.3437946438789367,0.0580572299659252,9.34518814086914,1.615182399749756,-0.6944403052330017,-0.0816197544336319
4200980113.0,-0.4049972891807556,-0.1200067847967147,9.505034446716309,1.481117606163025,-0.9417202472686768,-0.2122523784637451
4200988446.0,-0.2524802088737488,-0.5192242860794067,9.733166694641112,1.423741579055786,-1.2135385274887085,-0.1790819317102432
4200996779.0,-0.1577899605035781,-0.5092209577560425,9.686277389526367,1.5193849802017212,-0.9082422852516174,-0.0631262734532356
4201005112.0,-0.2798272669315338,-0.1158752366900444,9.446020126342772,1.717203974723816,-0.7336301207542419,-0.0492945946753025
4201013445.0,-0.3705787062644958,-0.0171059370040893,9.350419998168944,1.5522994995117188,-0.8503541350364685,-0.1515466123819351
4201021778.0,-0.3021242320537567,-0.3085702657699585,9.559063911437988,1.3027654886245728,-1.2319294214248655,-0.1130996495485305
4201030111.0,-0.0979242026805877,-0.5492213368415833,9.68574333190918,1.2582992315292358,-1.1377969980239868,-0.0472966842353343
4201038444.0,-0.1175696551799774,-0.2933599352836609,9.500925064086914,1.5903877019882202,-0.9292972087860109,-0.0430703312158584
4201046777.0,-0.3070477247238159,-0.002376934280619,9.339465141296388,1.512981653213501,-0.7642903923988342,-0.0113855265080928
4201055110.0,-0.383148729801178,-0.1651794761419296,9.454693794250488,1.412625074386597,-0.8953840136528015,-0.3546162843704223
4201063443.0,-0.2828614115715027,-0.5064117908477783,9.671865463256836,1.5016603469848633,-1.1887952089309692,-0.2393778562545776
4201071776.0,-0.1528897285461425,-0.5351580381393433,9.687334060668944,1.5479706525802612,-1.003143072128296,-0.2181180119514465
4201080109.0,-0.2397927641868591,-0.0891070887446403,9.439163208007812,1.6120061874389648,-0.8356771469116211,0.0538155063986778
4201088442.0,-0.3306100964546203,0.1048231497406959,9.346016883850098,1.570997953414917,-0.9766324162483216,-0.173395574092865
4201096775.0,-0.3159137070178985,-0.2058779150247573,9.549681663513184,1.364291071891785,-1.2354642152786257,-0.3178342282772064
4201105108.0,-0.1317452788352966,-0.5613390207290649,9.707985877990724,1.217956781387329,-1.2552895545959473,-0.2798739075660705
4201113441.0,-0.09273062646389,-0.4409322142601013,9.570388793945312,1.4701801538467407,-0.9400039315223694,0.0413413755595684
4201121774.0,-0.2392470687627792,-0.0105875022709369,9.376359939575195,1.5716382265090942,-0.7182360291481018,0.0322739370167255
4201130107.0,-0.3597450852394104,-0.0037767011672258,9.408942222595217,1.3824257850646973,-0.8717420101165771,-0.1288267821073532
4201138440.0,-0.3330937325954437,-0.3249004483222961,9.66076946258545,1.3877536058425903,-1.1485037803649902,-0.2341269105672836
4201146773.0,-0.2125395685434341,-0.565832793712616,9.746249198913574,1.2938262224197388,-0.9762225151062012,-0.0716558247804641
4201155106.0,-0.2493467181921005,-0.2766607403755188,9.480329513549805,1.448638677597046,-0.9400295615196228,-0.0967065319418907
4201163439.0,-0.3127017617225647,-0.0091801909729838,9.32573413848877,1.470846176147461,-0.977042019367218,-0.1046469509601593
4201171772.0,-0.2958701848983764,-0.1529492437839508,9.468254089355469,1.2349134683609009,-1.045816421508789,-0.2813851833343506
4201180105.0,-0.1941925883293151,-0.4837526381015777,9.677123069763184,1.3103729486465454,-1.0825728178024292,-0.1024185121059417
4201188438.0,-0.1761888265609741,-0.4985603094100952,9.643019676208496,1.3738452196121216,-0.8633661866188049,-0.0568764060735702
4201196771.0,-0.2160335034132003,-0.1319500654935836,9.382028579711914,1.5175665616989136,-0.9416689276695251,0.0377553775906562
4201205104.0,-0.2820509374141693,-0.035184808075428,9.30357265472412,1.351714253425598,-0.9659510850906372,-0.0384341552853584
4201213437.0,-0.2959448099136352,-0.3264957070350647,9.59706687927246,1.3983066082000732,-0.9912067651748656,-0.0934023112058639
4201221770.0,-0.2945394814014435,-0.607974112033844,9.7726469039917,1.426072597503662,-0.940798044204712,-0.0826443284749984
4201230103.0,-0.3185950219631195,-0.4043524861335754,9.600482940673828,1.664233684539795,-0.9849313497543336,-0.01717434450984
4201238436.0,-0.277727335691452,-0.0073143364861607,9.304388046264648,1.6325231790542605,-1.0154634714126587,-0.0060577662661671
4201246769.0,-0.2236311137676239,-0.0209924783557653,9.34909725189209,1.3524571657180786,-1.0407191514968872,-0.1822580695152282
4201255102.0,-0.2115595936775207,-0.3773983716964721,9.635295867919922,1.376585841178894,-0.8995334506034851,-0.1290829330682754
4201263435.0,-0.2363573461771011,-0.5998548865318298,9.709335327148438,1.399510622024536,-0.9513766169548036,-0.0371278338134288
4201271768.0,-0.2374029010534286,-0.3081750869750976,9.452611923217772,1.536623477935791,-1.033572793006897,0.033836405724287
4201280101.0,-0.2076826840639114,0.0143291465938091,9.321094512939451,1.512392520904541,-1.102859377861023,-0.0415590927004814
4201288434.0,-0.2356146425008773,-0.1139447912573814,9.482101440429688,1.3181596994400024,-0.8649543523788452,-0.1222695559263229
4201296767.0,-0.3224143981933594,-0.4540338516235351,9.721672058105469,1.3305569887161257,-0.8389302492141724,-0.2597923576831817
4201305100.0,-0.3708779513835907,-0.523858368396759,9.709717750549316,1.5779649019241333,-0.9823697805404664,-0.0741147771477699
4201313433.0,-0.334955096244812,-0.2131824791431427,9.422892570495604,1.524636149406433,-1.1890767812728882,-0.0108220148831605
4201321766.0,-0.2182066738605499,-0.0389679372310638,9.348760604858398,1.4550167322158811,-1.1803935766220093,-0.0951184630393982
4201330099.0,-0.1830933988094329,-0.2681127488613128,9.528694152832031,1.3756380081176758,-1.0416923761367798,-0.1191446036100387
4201338432.0,-0.2145950198173523,-0.5247964262962341,9.714265823364258,1.560624122619629,-0.9624676704406738,-0.0431215614080429
4201346765.0,-0.2292873263359069,-0.3931538462638855,9.547674179077148,1.5448715686798096,-1.0139011144638062,-0.0301095359027385
4201355098.0,-0.219394639134407,-0.0499165616929531,9.351301193237305,1.4642376899719238,-1.056804895401001,-0.0263442397117614
4201363431.0,-0.1589807271957397,-0.0823400467634201,9.391803741455078,1.5166445970535278,-1.0185117721557615,-0.1869455128908157
4201371764.0,-0.2582176327705383,-0.4534258544445038,9.708732604980469,1.4231524467468262,-0.8188998699188232,-0.2750328183174133
4201380097.0,-0.3595007658004761,-0.5885508060455322,9.751131057739258,1.5938457250595093,-0.9060907959938048,-0.1253176629543304
4201388430.0,-0.3554304838180542,-0.2207543402910232,9.513579368591309,1.7288070917129517,-1.0706878900527954,-0.0464258007705211
4201396763.0,-0.2376703023910522,0.1150575578212738,9.30617618560791,1.5124436616897583,-1.198502779006958,0.0030737081542611
4201405096.0,-0.1632391661405563,-0.1071849539875984,9.433319091796877,1.3993055820465088,-1.0786793231964111,-0.2166067659854889
4201413429.0,-0.1981561332941055,-0.5404894351959229,9.710763931274414,1.4447451829910278,-1.0033992528915403,-0.2168885171413421
4201421762.0,-0.2255964875221252,-0.5578792691230774,9.607982635498049,1.554911971092224,-0.9747112393379213,-0.033029556274414
4201430095.0,-0.2604979872703552,-0.1305687725543975,9.399669647216797,1.579937219619751,-0.987159788608551,-0.0388439856469631
4201438428.0,-0.2170890420675277,0.0853766053915023,9.353090286254885,1.4746116399765017,-1.0187678337097168,0.0145232733339071
4201446761.0,-0.2651988863945007,-0.2294344902038574,9.631816864013672,1.2814288139343262,-0.8624696731567383,-0.213251307606697
4201455094.0,-0.292536973953247,-0.5501036643981934,9.722137451171877,1.363215088844299,-0.863827109336853,-0.1797991096973419
4201463427.0,-0.3140670359134674,-0.3902591168880462,9.565167427062988,1.402994155883789,-0.8949742913246155,0.0078635700047016
4201471760.0,-0.304240882396698,-0.0181199479848146,9.345134735107422,1.603195071220398,-0.9818832278251648,-0.0203248932957649
4201480093.0,-0.2416895925998687,-0.0879100635647773,9.459606170654297,1.4214363098144531,-1.1397182941436768,-0.2222931236028671
4201488426.0,-0.1693614572286605,-0.4583984911441803,9.721226692199709,1.4148534536361694,-1.1038070917129517,-0.1781085729598999
4201496759.0,-0.1413247883319854,-0.5226225852966309,9.653669357299805,1.514262080192566,-0.9049124717712402,-0.1445026844739914
4201505092.0,-0.2283909022808075,-0.163663625717163,9.358502388000488,1.5452556610107422,-0.7644184827804565,-0.065918244421482
4201513425.0,-0.3377231657505035,0.0065017631277441,9.30445957183838,1.4367023706436155,-0.9246353507041932,-0.0402015373110771
4201521758.0,-0.3442798554897308,-0.3381880819797516,9.60178279876709,1.3614476919174194,-0.9830358624458312,-0.2166323810815811
4201530091.0,-0.2454223483800888,-0.6696671843528748,9.805994987487791,1.5026845932006836,-1.145788550376892,-0.0938121229410171
4201538424.0,-0.2407513558864593,-0.3841198682785034,9.601273536682127,1.5520689487457275,-0.7928757667541504,-0.0714509040117263
4201546757.0,-0.3460011184215545,0.0971256718039512,9.313037872314451,1.7500669956207275,-0.8830122947692871,-0.0503703914582729
4201555090.0,-0.3397426605224609,0.0378393232822418,9.39756965637207,1.4991754293441772,-1.05119526386261,-0.2929627895355224
4201563423.0,-0.1559261828660965,-0.473263680934906,9.654213905334473,1.375714898109436,-1.1958646774291992,-0.3144788146018982
4201571756.0,-0.0396641679108142,-0.6389873623847961,9.686535835266112,1.3878560066223145,-0.9479187726974488,-0.1404812633991241
4201580089.0,-0.1757353395223617,-0.1877128183841705,9.395008087158203,1.6389780044555664,-0.6805830597877502,-0.0365387052297592
4201588422.0,-0.4460942149162292,0.1062769442796707,9.344209671020508,1.5395950078964231,-0.6409066319465637,-0.1825398653745651
4201596755.0,-0.4420341849327087,-0.1594179719686508,9.603989601135254,1.3957197666168213,-1.1168959140777588,-0.27580127120018
4201605088.0,-0.171009287238121,-0.55738365650177,9.764037132263184,1.29346764087677,-1.324396729469299,-0.1553887575864792
4201613421.0,-0.1092188730835914,-0.453918844461441,9.61884880065918,1.460702896118164,-0.9229447841644288,-0.0674038529396057
4201621754.0,-0.3352580964565277,-0.0625851228833198,9.375176429748535,1.599557638168335,-0.7195678353309631,0.065393142402172
4201630087.0,-0.420581191778183,-0.0821321830153465,9.442526817321776,1.409192681312561,-1.0189470052719116,-0.2168373018503189
4201638420.0,-0.1209150329232215,-0.4889291822910309,9.62102222442627,1.3563761711120603,-1.498266100883484,-0.2668875157833099
4201646753.0,0.1224026381969451,-0.5020511150360107,9.662065505981444,1.3305058479309082,-1.0571892261505127,0.0188264623284339
4201655086.0,-0.1561394482851028,-0.1617043316364288,9.395461082458496,1.614388346672058,-0.3186026513576507,0.0723602101206779
4201663419.0,-0.5780712962150574,-0.0055363005958497,9.357006072998049,1.421666979789734,-0.5595557689666748,-0.1004974469542503
4201671752.0,-0.5173139572143555,-0.3885239958763122,9.597865104675291,1.429094910621643,-1.4046974182128906,-0.1473458856344223
4201680085.0,-0.0377605594694614,-0.6450443863868713,9.72209930419922,1.3775590658187866,-1.5431679487228394,-0.1821044087409973
4201688418.0,-0.040774829685688,-0.2949975132942199,9.59574031829834,1.6126465797424316,-0.7361658811569214,0.0426989309489727
4201696751.0,-0.4639634191989898,0.108523391187191,9.398929595947266,1.650197148323059,-0.4073559939861297,-0.0395099595189094
4201705084.0,-0.5621658563613892,-0.0431378185749053,9.383872985839844,1.52174174785614,-1.1471463441848757,-0.166069895029068
4201713417.0,-0.0905379503965377,-0.4943455159664154,9.533766746520996,1.4046846628189087,-1.838628053665161,-0.1843840628862381
4201721750.0,0.2227916419506073,-0.544319748878479,9.604758262634276,1.370976448059082,-1.0540131330490112,-0.1176590174436569
4201730083.0,-0.2378605902194976,-0.142935499548912,9.496569633483888,1.6878498792648315,-0.1747274994850158,0.0029200226999819
4201738416.0,-0.7022517919540405,0.0461644493043422,9.414436340332031,1.5629295110702517,-0.5690074563026428,-0.0288032051175832
4201746749.0,-0.4976520240306854,-0.2579973042011261,9.55087184906006,1.283452391624451,-1.5932692289352417,-0.2023652642965316
4201755082.0,-0.0065010641701519,-0.4724084734916687,9.625222206115724,1.1230050325393677,-1.5146081447601318,-0.0315695442259311
4201763415.0,-0.080447182059288,-0.3063459396362304,9.625944137573242,1.5901062488555908,-0.5923420190811157,0.0435185879468917
4201771748.0,-0.5303904414176941,-0.0847254246473312,9.442747116088867,1.538800835609436,-0.4303319454193115,-0.1841791421175003
4201780081.0,-0.4826384782791137,-0.2712787985801697,9.441643714904783,1.4727158546447754,-1.381183624267578,-0.2765440642833709
4201788414.0,0.0472322031855583,-0.4720817506313324,9.517844200134276,1.310321807861328,-1.650491714477539,-0.181233525276184
4201796747.0,0.1866391450166702,-0.317192792892456,9.57577419281006,1.426533579826355,-0.772409975528717,0.001716153579764
4201805080.0,-0.3611112833023071,-0.0856266841292381,9.54617691040039,1.59694504737854,-0.253158301115036,-0.0030096725095063
4201813413.0,-0.6791975498199463,-0.2485397011041641,9.52001953125,1.5753268003463743,-0.7817337512969971,-0.1949371546506881
4201821746.0,-0.371946781873703,-0.523726224899292,9.573776245117188,1.3776615858078003,-1.6620436906814575,-0.2088968902826309
4201830079.0,0.0612865425646305,-0.3909468650817871,9.59715461730957,1.4353448152542114,-1.3738322257995603,0.0315823517739772
4201838412.0,-0.1404174566268921,-0.0482459254562854,9.58008861541748,1.5582419633865356,-0.5838124752044678,0.0943884551525116
4201846745.0,-0.4714435636997223,-0.0655620321631431,9.483198165893556,1.503401756286621,-0.7510733008384705,-0.1825142204761505
4201855078.0,-0.3533356785774231,-0.3987810909748077,9.48751163482666,1.3251780271530151,-1.4559259414672852,-0.2138148248195648
4201863411.0,0.0440292619168758,-0.4587496221065521,9.542754173278809,1.4230244159698486,-1.5420153141021729,0.0009477267158217
4201871744.0,0.0365009382367134,-0.1808811128139495,9.50401210784912,1.5196157693862915,-0.6651888489723206,0.0194668192416429
4201880077.0,-0.3943291008472442,-0.10504662245512,9.529581069946287,1.5198205709457395,-0.421879231929779,-0.0579265877604484
4201888410.0,-0.5267188549041748,-0.3133334517478943,9.557852745056152,1.417824625968933,-0.9695627689361572,-0.2231640070676803
4201896743.0,-0.2441943883895874,-0.3995320498943329,9.557417869567873,1.5123671293258667,-1.4084373712539673,-0.1377917975187301
4201905076.0,-0.070126473903656,-0.2190701216459274,9.50343132019043,1.3516887426376345,-0.9481492638587952,0.0423403307795524
4201913409.0,-0.3106050491333008,-0.1813531816005706,9.527715682983398,1.4854975938796997,-0.6731548309326172,-0.1173516139388084
4201921742.0,-0.4429944455623626,-0.3799364864826202,9.625161170959473,1.4693349599838257,-1.179778814315796,-0.2029799968004226
4201930075.0,-0.1495282053947448,-0.403688371181488,9.539937019348145,1.4915168285369873,-1.460459589958191,-0.2240861356258392
4201938408.0,0.0770188271999359,-0.1776358485221862,9.410675048828123,1.439673662185669,-1.0545251369476318,-0.0353604517877101
4201946741.0,-0.1808453351259231,-0.1675338894128799,9.458182334899902,1.3756636381149292,-0.4716476798057556,-0.1207583174109458
4201955074.0,-0.5079448223114014,-0.4323965013027191,9.635866165161133,1.482347011566162,-0.7062484622001648,-0.2194499522447586
4201963407.0,-0.3819340169429779,-0.512043297290802,9.697467803955078,1.4504059553146362,-1.1802397966384888,-0.2722921371459961
4201971740.0,-0.1325967013835907,-0.2323411256074905,9.502729415893556,1.656754493713379,-1.1167166233062744,-0.0594634488224983
4201980073.0,-0.2324214577674865,-0.0447036772966384,9.430334091186523,1.6036814451217651,-0.834985613822937,-0.1280839741230011
4201988406.0,-0.4086245596408844,-0.2424910068511963,9.493183135986328,1.659571886062622,-0.9208701252937316,-0.3195503652095794
4201996739.0,-0.2361964583396911,-0.499070405960083,9.579256057739258,1.5099079608917236,-1.2471187114715576,-0.1298001408576965
4202005072.0,-0.0092300930991768,-0.3735980093479156,9.47478199005127,1.600454330444336,-1.0469690561294556,-0.0597195848822593
4202013405.0,-0.2385877668857574,-0.1446406841278076,9.44416046142578,1.688080668449402,-0.5138856172561646,-0.0713740736246109
4202021738.0,-0.4729530215263366,-0.1570567339658737,9.547860145568848,1.7451233863830566,-0.6095547080039978,-0.1957567930221557
4202030071.0,-0.3824565708637237,-0.3677101731300354,9.617555618286133,1.5451273918151855,-1.1811363697052002,-0.2931164801120758
4202038404.0,-0.104010671377182,-0.3455027341842651,9.602784156799316,1.3414430618286133,-1.123068928718567,0.0067877718247473
4202046737.0,-0.2469304502010345,-0.2010020464658737,9.469655990600586,1.5449994802474976,-0.625512421131134,-0.0811074674129486
4202055070.0,-0.4761937856674194,-0.1936353743076324,9.49520778656006,1.5269159078598022,-0.8163385391235352,-0.1125873699784278
4202063403.0,-0.2521911859512329,-0.3522064983844757,9.545726776123049,1.468156814575195,-1.3350011110305786,-0.3110208511352539
4202071736.0,0.0627193003892898,-0.3418223261833191,9.587278366088867,1.4236904382705688,-1.3170711994171145,-0.0722705572843551
4202080069.0,-0.0881587862968444,-0.1417550444602966,9.470514297485352,1.5312446355819702,-0.4839425384998321,-0.0245000161230564
4202088402.0,-0.4947693049907684,-0.1255037784576416,9.473575592041016,1.5589333772659302,-0.4829435348510742,-0.1959104537963867
4202096735.0,-0.514506459236145,-0.4380901753902435,9.572220802307127,1.452250361442566,-1.125630497932434,-0.3252111375331878
4202105068.0,-0.1342334002256393,-0.4915674030780792,9.69036102294922,1.398972749710083,-1.4350248575210571,-0.1065168008208274
4202113401.0,-0.0450807996094226,-0.1778250783681869,9.601882934570312,1.516132116317749,-0.7972814440727234,-0.0061089945957064
4202121734.0,-0.33142751455307,0.0500458516180515,9.462005615234377,1.6200491189956665,-0.6157021522521973,-0.0621273219585418
4202130067.0,-0.4331727623939514,-0.2185839265584945,9.4811429977417,1.5101642608642578,-1.1135149002075195,-0.3040538132190704
4202138400.0,-0.0966919586062431,-0.4706150591373443,9.557355880737305,1.3967441320419312,-1.5302071571350098,-0.1635340750217437
4202146733.0,0.0821117609739303,-0.2946649193763733,9.545648574829102,1.4394686222076416,-0.9177964329719543,0.124408334493637
4202155066.0,-0.2288194596767425,-0.0608206093311309,9.503824234008787,1.5648504495620728,-0.2184509932994842,-0.0380499474704265
4202163399.0,-0.5270054340362549,-0.1656614243984222,9.591119766235352,1.6531425714492798,-0.6754857301712036,-0.2911441922187805
4202171732.0,-0.3534213602542877,-0.314420610666275,9.602120399475098,1.4162110090255735,-1.2451976537704468,-0.3108671605587005
4202180065.0,-0.1121329814195633,-0.2830426692962646,9.520503044128418,1.3505873680114746,-1.0831363201141355,-0.160921424627304
4202188398.0,-0.2602705061435699,-0.2092135101556778,9.521435737609863,1.4906458854675293,-0.6821454763412476,-0.0330807827413082
4202196731.0,-0.441680908203125,-0.310798168182373,9.540626525878906,1.4301964044570925,-0.8309385776519775,-0.1597687900066375
4202205064.0,-0.1850721687078476,-0.4441283941268921,9.475302696228027,1.375996708869934,-1.3277522325515747,-0.1391749382019043
4202213397.0,0.0478689633309841,-0.3578275442123413,9.379433631896973,1.5270694494247437,-1.1882827281951904,0.0374480113387107
4202221730.0,-0.1524914652109146,-0.2077471762895584,9.410737991333008,1.5824731588363647,-0.4881177246570587,0.0754083171486854
4202230063.0,-0.4591023921966553,-0.2744514644145965,9.479008674621582,1.622841238975525,-0.5886279940605164,-0.1153793334960937
4202238396.0,-0.4201819896697998,-0.5055020451545715,9.57089138031006,1.5927956104278564,-1.1304715871810913,-0.1561315953731537
4202246729.0,-0.1876911222934723,-0.3542244136333465,9.536688804626465,1.652092456817627,-1.1228127479553225,-0.0656108558177948
4202255062.0,-0.226815178990364,-0.0471583195030689,9.516818046569824,1.6775532960891724,-0.7235637903213501,-0.0003457922139205
4202263395.0,-0.3516502976417541,-0.0410262010991573,9.514972686767578,1.6252743005752563,-0.8861628174781799,-0.0937096774578094
4202271728.0,-0.2074934542179107,-0.2854326367378235,9.496330261230469,1.393311858177185,-1.1148468255996704,-0.2333841025829315
4202280061.0,-0.0534910522401332,-0.4075759351253509,9.524518966674805,1.3630359172821045,-1.0227123498916626,0.0446968376636505
4202288394.0,-0.1810599118471145,-0.2374100089073181,9.53215789794922,1.4314770698547363,-0.6481041312217712,0.0817606300115585
4202296727.0,-0.4049653708934784,-0.047688003629446,9.459692001342772,1.5465363264083862,-0.6006665825843811,-0.0992935821413993
4202305060.0,-0.3851120471954345,-0.308123230934143,9.584696769714355,1.2644212245941162,-1.1328024864196775,-0.1778780668973922
4202313393.0,-0.2573462426662445,-0.4375050663948059,9.76885986328125,1.1634241342544556,-1.2713497877120972,-0.0523170717060565
4202321726.0,-0.2360223531723022,-0.2127040922641754,9.585538864135742,1.3674159049987793,-0.9716376662254332,0.0316848121583461
4202330059.0,-0.3545950353145599,-0.1497018486261367,9.446151733398438,1.2815569639205933,-0.9300656914711,-0.0594378225505352
4202338392.0,-0.3356823325157165,-0.4188259840011596,9.64491844177246,1.254662036895752,-1.3279060125350952,-0.2292858213186264
4202346725.0,0.0069142868742346,-0.4485887885093689,9.647953033447266,1.3408026695251465,-1.4359979629516602,-0.1261116862297058
4202355058.0,0.0185023415833711,-0.2389682531356811,9.518699645996094,1.423511028289795,-0.9536306858062744,0.055019374936819
4202363391.0,-0.2993107438087463,-0.1286009103059768,9.44344711303711,1.3947464227676392,-0.5259242653846741,-0.0595402941107749
4202371724.0,-0.5412458181381226,-0.4075133502483368,9.632892608642578,1.4023536443710327,-1.0132862329483032,-0.2291577309370041
4202380057.0,-0.3017629981040954,-0.5846267938613892,9.725176811218262,1.3918519020080566,-1.5506985187530518,-0.022809475660324
4202388390.0,-0.0623802281916141,-0.2760039865970611,9.560118675231934,1.4894678592681885,-1.121019959449768,0.0831694304943084
4202396723.0,-0.2841273844242096,-0.0199313126504421,9.504779815673828,1.5735080242156982,-0.7249468564987183,0.1343978941440582
4202405056.0,-0.4416225254535675,-0.1798739582300186,9.53101921081543,1.451481819152832,-0.9908225536346436,-0.2223187386989593
4202413389.0,-0.1700182259082794,-0.4320711493492126,9.458828926086426,1.4522758722305298,-1.541221261024475,-0.2022884041070938
4202421722.0,0.0360468700528144,-0.4019722044467926,9.455869674682615,1.2721565961837769,-1.0838791131973269,-0.1668383181095123
4202430055.0,-0.2424784898757934,-0.1536290049552917,9.455322265625,1.5730725526809692,-0.5980027318000793,-0.0734744295477867
4202438388.0,-0.4792699217796325,-0.163819670677185,9.458258628845217,1.597508430480957,-0.8172349333763123,-0.163559690117836
4202446721.0,-0.3293214738368988,-0.3663371205329895,9.486776351928713,1.4185675382614136,-1.3025223016738892,-0.1709622293710708
4202455054.0,-0.1698900908231735,-0.3500472903251648,9.572576522827148,1.2905219793319702,-1.2627946138381958,-0.0498068779706954
4202463387.0,-0.2890150547027588,-0.221150055527687,9.512004852294922,1.597072958946228,-0.916413187980652,-0.0555700808763504
4202471720.0,-0.4195640385150909,-0.1910158097743988,9.4337739944458,1.4930024147033691,-0.9281190037727356,-0.1149438843131065
4202480053.0,-0.2544514834880829,-0.381289392709732,9.469429969787598,1.4359595775604248,-1.4521604776382446,-0.1657625138759613
4202488386.0,0.0136698372662067,-0.3685129284858703,9.455296516418455,1.3901358842849731,-1.5524147748947144,0.0708233565092086
4202496719.0,-0.0289862770587205,-0.1648313403129577,9.363555908203123,1.5111373662948608,-0.9628262519836426,0.1888793557882309
4202505052.0,-0.3578638732433319,-0.1729915142059326,9.369401931762695,1.4951027631759644,-0.7054288387298584,0.1294287294149398
4202513385.0,-0.4866611063480377,-0.3959870338439941,9.571295738220217,1.2928016185760498,-1.1372334957122805,-0.0637410283088684
4202521718.0,-0.2731368839740753,-0.5145783424377441,9.635058403015137,1.3964369297027588,-1.554643154144287,0.0363465994596481
4202530051.0,-0.1110675260424614,-0.2076810896396637,9.505463600158691,1.4311186075210571,-1.2252440452575684,0.0918014198541641
4202538384.0,-0.3700934946537018,-0.0849398449063301,9.530261039733888,1.63421368598938,-1.0458931922912598,0.0922112464904785
4202546717.0,-0.3881047666072845,-0.2732234001159668,9.502185821533203,1.3231544494628906,-1.638350486755371,-0.0462208837270736
4202555050.0,-0.1031249612569809,-0.554965615272522,9.497526168823242,1.1898324489593506,-1.8167022466659544,-0.0064675938338041
4202563383.0,0.0141893504187464,-0.3508399128913879,9.48100757598877,1.3458231687545776,-1.1994249820709229,0.1677988618612289
4202571716.0,-0.3275094926357269,-0.2183338701725006,9.515565872192385,1.3850640058517456,-0.9944597482681274,0.1378813982009887
4202580049.0,-0.4013963341712951,-0.259558230638504,9.5861234664917,1.3505873680114746,-1.4084627628326416,-0.1068497896194458
4202588382.0,-0.2451240569353103,-0.4848641455173492,9.63286590576172,1.4169796705245972,-1.599903583526611,-0.0744990184903144
4202596715.0,-0.1508798748254776,-0.3384865820407867,9.648907661437988,1.4527368545532229,-1.3157391548156738,0.1594742238521576
4202605048.0,-0.3543777763843536,-0.2555995583534241,9.586671829223633,1.561879277229309,-1.0928441286087036,0.0973084867000579
4202613381.0,-0.3748997449874878,-0.2970907688140869,9.527295112609863,1.4495607614517212,-1.4839990139007568,-0.0655084028840065
4202621714.0,-0.1402328014373779,-0.4556121826171875,9.580960273742676,1.3396501541137695,-1.786759376525879,-0.0399710126221179
4202630047.0,0.0674087554216384,-0.2880602478981018,9.605877876281738,1.5837793350219729,-1.4707053899765017,0.2531967163085937
4202638380.0,-0.175456166267395,-0.1125275716185569,9.427348136901855,1.5278891324996948,-0.9495580792427064,0.1281736195087433
4202646713.0,-0.4439891278743744,-0.2356838583946228,9.502540588378906,1.5933079719543457,-0.9997621178627014,0.0762535780668258
4202655046.0,-0.4504317343235016,-0.4583859741687774,9.78456211090088,1.2854503393173218,-1.5455501079559326,-0.0785460472106933
4202663379.0,-0.1616160571575164,-0.3394209742546081,9.750213623046877,1.4578853845596311,-1.6084073781967163,0.1378814131021499
4202671712.0,-0.1537504196166992,0.0696503147482872,9.470707893371582,1.624992847442627,-1.1179461479187012,0.1663132309913635
4202680045.0,-0.3701742589473724,0.0244399234652519,9.49998664855957,1.367595076560974,-1.3475520610809326,-0.0185575131326913
4202688378.0,-0.2495691329240799,-0.3064059913158417,9.618992805480955,1.2363479137420654,-1.788193941116333,-0.1491645127534866
4202696711.0,0.0008725818479433,-0.367613822221756,9.581910133361816,1.0899882316589355,-1.7009518146514893,0.1401098817586898
4202705044.0,-0.1129135191440582,-0.0954649448394775,9.453838348388672,1.4676955938339231,-1.0273741483688354,0.1348589360713958
4202713377.0,-0.4413017928600311,-0.1447520852088928,9.463061332702637,1.4146229028701782,-0.8182594776153564,-0.0794937685132026
4202721710.0,-0.3220435380935669,-0.1205991357564926,9.553586959838867,1.260425329208374,-1.2901761531829834,-0.1532883942127227
4202730043.0,-0.3124234080314636,-0.4372782707214355,9.67995834350586,1.2233099937438965,-1.4990602731704712,-0.1465262174606323
4202738376.0,-0.1774439811706543,-0.0873848870396614,9.518521308898926,1.5105738639831543,-1.0756568908691406,-0.0542381405830383
4202746709.0,-0.3503099381923675,-0.1837034225463867,9.476839065551758,1.3356285095214844,-1.040181279182434,-0.0535209439694881
4202755042.0,-0.2432974129915237,-0.2801896631717682,9.471274375915527,1.3467708826065063,-1.2766518592834473,-0.192657470703125
4202763375.0,-0.0816928818821907,-0.3771571516990661,9.579774856567385,1.4611897468566897,-1.4526987075805664,-0.0560567565262317
4202771708.0,0.0203083716332912,-0.1015665382146835,9.37692928314209,1.493770956993103,-0.998788595199585,-0.0144592355936765
4202780041.0,-0.2774230241775512,-0.0609708316624164,9.327414512634276,1.4768654108047483,-0.5688281059265137,-0.0935816019773483
4202788374.0,-0.5294382572174072,-0.3248970210552215,9.65551471710205,1.4948469400405884,-0.9553726315498352,-0.1911718547344207
4202796707.0,-0.3493979871273041,-0.3641970753669739,9.67679214477539,1.5676167011260986,-1.4106656312942505,-0.2506225109100342
4202805040.0,-0.0926665440201759,-0.1544675827026367,9.476380348205566,1.641001582145691,-1.2043429613113403,-0.0663536787033081
4202813373.0,-0.2683124244213104,-0.0188698638230562,9.476844787597656,1.498355746269226,-0.8893133401870728,-0.0855131223797798
4202821706.0,-0.3811769783496856,-0.1001534238457679,9.541844367980955,1.3694393634796145,-1.1365675926208496,-0.1698095649480819
4202830039.0,-0.0923083052039146,-0.3727647364139557,9.508880615234377,1.1981315612792969,-1.55761456489563,-0.0606673210859298
4202838372.0,0.0880656018853187,-0.3575357794761657,9.418508529663086,1.2819411754608154,-1.0921012163162231,-0.0379731021821498
4202846705.0,-0.1868465691804886,-0.1431570053100586,9.416131019592283,1.3818367719650269,-0.5616048574447632,0.0101944655179977
4202855038.0,-0.4462515711784363,-0.1739428341388702,9.54131317138672,1.290701389312744,-0.7598079442977905,-0.0594122223556041
4202863371.0,-0.295514166355133,-0.4257882237434387,9.685145378112791,1.2090686559677124,-1.2828505039215088,-0.1368696391582489
4202871704.0,-0.0938953608274459,-0.3519985973834991,9.590654373168944,1.1341983079910278,-1.1338781118392944,-0.0568251796066761
4202880037.0,-0.1926474869251251,-0.2102721780538559,9.41397190093994,1.3880096673965454,-0.7965642213821411,-0.100394994020462
4202888370.0,-0.3885066509246826,-0.356876790523529,9.53211498260498,1.3144968748092651,-0.962698221206665,-0.2174520194530487
4202896703.0,-0.1742565035820007,-0.4830513894557953,9.60169792175293,1.4443098306655884,-1.4622269868850708,-0.181131049990654
4202905036.0,0.155480220913887,-0.4157193005084991,9.44644546508789,1.340674638748169,-1.2830041646957395,-0.0779825374484062
4202913369.0,-0.0286184735596179,-0.2111733704805374,9.357075691223145,1.4003045558929443,-0.5642175674438477,0.0979744419455528
4202921702.0,-0.4942185282707214,-0.2847618162631988,9.48048496246338,1.4368816614151,-0.5560722351074219,-0.0224252622574567
4202930035.0,-0.4426600933074951,-0.546489417552948,9.66873550415039,1.4749188423156738,-1.332516312599182,-0.1194263696670532
4202938368.0,-0.0997082442045211,-0.561175525188446,9.606040954589844,1.5832157135009766,-1.2487835884094238,-0.1384833604097366
4202946701.0,-0.1269003897905349,-0.2707536816596985,9.483060836791992,1.5743533372879028,-0.6716180443763733,0.0895473659038543
4202955034.0,-0.4312306046485901,-0.0938596054911613,9.453547477722168,1.462444543838501,-0.6544820666313171,-0.118581086397171
4202963367.0,-0.3259204924106598,-0.3630578815937042,9.535663604736328,1.5010966062545776,-1.2408943176269531,-0.2693721354007721
4202971700.0,0.0281107556074857,-0.5917770862579346,9.559510231018066,1.4939759969711304,-1.341225504875183,-0.2111253589391708
4202980033.0,0.0381637997925281,-0.3445889949798584,9.441843032836914,1.6290910243988037,-0.7426207661628723,-0.0279323253780603
4202988366.0,-0.3624274134635925,-0.1137945801019668,9.375481605529783,1.5785285234451294,-0.4817397594451904,0.0516639165580272
4202996699.0,-0.5738468170166016,-0.3054638206958771,9.596761703491213,1.600864052772522,-0.9759663939476012,-0.2249570041894912
4203005032.0,-0.321289598941803,-0.5005996227264404,9.718212127685549,1.5875446796417236,-1.295657515525818,-0.2975477576255798
4203013365.0,-0.0275172833353281,-0.3173719346523285,9.491133689880373,1.6210479736328125,-0.9850337505340576,-0.0199662949889898
4203021698.0,-0.2831669151782989,-0.1864598244428634,9.427926063537598,1.6396695375442505,-0.5684438943862915,-0.004725825972855
4203030031.0,-0.5423546433448792,-0.2997159659862518,9.615683555603027,1.6976089477539062,-0.8212819695472717,-0.1013427227735519
4203038364.0,-0.1943909078836441,-0.4370875060558319,9.584002494812012,1.5467411279678345,-1.6335605382919312,-0.2529789805412292
4203046697.0,0.201817899942398,-0.3721486926078796,9.443683624267578,1.6605963706970217,-1.234209060668945,-0.0136908087879419
4203055030.0,-0.0804980918765068,-0.1521409749984741,9.39940071105957,1.6460732221603394,-0.2964463233947754,-0.0094900745898485
4203063363.0,-0.5658961534500122,-0.1125855296850204,9.480778694152832,1.684827446937561,-0.4102247357368469,-0.0252684410661458
4203071696.0,-0.5016534328460693,-0.4353120326995849,9.655714988708496,1.4891092777252195,-1.2561607360839844,-0.3102524578571319
4203080029.0,-0.1129994988441467,-0.5064502954483032,9.69227123260498,1.619203805923462,-1.3201448917388916,-0.1366391330957412
4203088362.0,-0.0693615674972534,-0.0260865837335586,9.517005920410156,1.593538522720337,-0.660245418548584,0.0348097495734691
4203096695.0,-0.4112527072429657,0.0480313412845134,9.436595916748049,1.562750220298767,-0.5557648539543152,-0.1031357198953628
4203105028.0,-0.3722622096538543,-0.3444393873214721,9.563344955444336,1.468643307685852,-1.354570388793945,-0.2623794078826904
4203113361.0,0.0504998378455638,-0.410767912864685,9.531865119934082,1.4905436038970947,-1.4561052322387695,-0.135998785495758
4203121694.0,0.1126419454813003,-0.1996019184589386,9.405084609985352,1.6087275743484497,-0.686346173286438,0.1225384920835495
4203130027.0,-0.4361991286277771,-0.058671984821558,9.49708366394043,1.6986080408096311,-0.3206518292427063,0.0088112978264689
4203138360.0,-0.6009935140609741,-0.1454423516988754,9.61420726776123,1.5364185571670532,-1.12596333026886,-0.2616878151893616
4203146693.0,-0.1624371707439422,-0.331458568572998,9.581478118896484,1.4050432443618774,-1.6070241928100586,-0.1120494678616523
4203155026.0,0.003761101514101,-0.2517813444137573,9.519082069396973,1.5856233835220337,-0.8805277347564697,0.0300967246294021
4203163359.0,-0.3593015968799591,-0.0487680844962596,9.52478313446045,1.5025053024291992,-0.4450089037418365,-0.0167389009147882
4203171692.0,-0.5046845078468323,-0.1413329392671585,9.567577362060549,1.3733584880828855,-1.1516544818878174,-0.1908644586801529
4203180025.0,-0.0664646178483963,-0.433046817779541,9.665576934814451,1.4497655630111694,-1.6600456237792969,-0.1768534630537033
4203188358.0,0.2547325491905212,-0.1532780081033706,9.46889877319336,1.4975361824035645,-1.105907320976257,-0.1137912347912788
4203196691.0,-0.1363832503557205,0.0081113241612911,9.400330543518066,1.399074912071228,-0.2637881934642792,0.0445943772792816
4203205024.0,-0.6306232213973999,-0.2366732656955719,9.604530334472656,1.2361685037612915,-0.5766147971153259,-0.1284169554710388
4203213357.0,-0.4720230400562286,-0.5005853772163391,9.777311325073242,1.2726174592971802,-1.3597956895828247,-0.2794640958309173
4203221690.0,-0.0091760111972689,-0.3529084920883178,9.583252906799316,1.4906716346740725,-1.202703595161438,-0.0709642320871353
4203230023.0,-0.1037662923336029,-0.0373736061155796,9.410680770874023,1.375279426574707,-0.5942373871803284,-0.118145652115345
4203238356.0,-0.51805180311203,-0.0268589258193969,9.483625411987305,1.449176549911499,-0.7239223122596741,-0.1253688782453537
4203246689.0,-0.3563863635063171,-0.4033181667327881,9.613812446594238,1.2310712337493896,-1.3847696781158447,-0.382305234670639
4203255022.0,0.1105468049645423,-0.5488499999046326,9.49638557434082,1.4161856174468994,-1.4127916097640991,-0.1815409064292907
4203263355.0,0.0301707349717617,-0.2565438449382782,9.348872184753418,1.434986233711243,-0.4821494519710541,0.0795321986079216
4203271688.0,-0.4999766051769256,-0.0939168035984039,9.499503135681152,1.3082982301712036,-0.2964463233947754,-0.0580290481448173
4203280021.0,-0.5952410101890564,-0.3037569522857666,9.67551326751709,1.3621904850006104,-1.13244366645813,-0.2018785774707794
4203288354.0,-0.1578312069177627,-0.4524340033531189,9.623818397521973,1.433116436004639,-1.3508050441741943,-0.2593057155609131
4203296687.0,-0.0273453220725059,-0.2809993922710418,9.45736598968506,1.384244441986084,-0.8399547338485718,-0.0339004360139369
4203305020.0,-0.3961029946804046,-0.1453099995851516,9.389451026916504,1.4288387298583984,-0.5639102458953857,0.0411364622414112
4203313353.0,-0.5118181705474854,-0.3089839518070221,9.57448673248291,1.3412894010543823,-1.2702739238739014,-0.1599737107753753
4203321686.0,-0.022061537951231,-0.4703847467899322,9.581833839416504,1.4166977405548096,-1.7326620817184448,-0.2637625634670257
4203330019.0,0.236258402466774,-0.2848119139671325,9.38958740234375,1.401841402053833,-0.9184879660606384,-0.023782817646861
4203338352.0,-0.2675592303276062,-0.0950183644890785,9.37169075012207,1.3142406940460205,-0.2704222798347473,-0.0055454820394515
4203346685.0,-0.7069727182388306,-0.2660428285598755,9.600223541259766,1.3114742040634155,-0.7880859375,-0.0827723890542984
4203355018.0,-0.3663556277751922,-0.5870538353919983,9.707711219787598,1.3407771587371826,-1.657253980636597,-0.314094603061676
4203363351.0,0.0661869943141937,-0.4596138000488281,9.559910774230955,1.5236371755599976,-1.2866157293319702,-0.1437598913908004
4203371684.0,-0.1410683840513229,-0.0883233174681663,9.428972244262695,1.4587819576263428,-0.5495662093162537,0.0387287214398384
4203380017.0,-0.5114497542381287,-0.0604344084858894,9.437204360961914,1.3941570520401,-0.8041716814041138,-0.0439924448728561
4203388350.0,-0.2791080772876739,-0.4589383006095886,9.576163291931152,1.4192334413528442,-1.6647330522537231,-0.2724970281124115
4203396683.0,0.181298479437828,-0.5501611828804016,9.530291557312012,1.4266616106033323,-1.3419681787490845,-0.0779313072562217
4203405016.0,0.0121884448453783,-0.200229525566101,9.37252712249756,1.6047829389572144,-0.4443173110485077,0.1117549017071724
4203413349.0,-0.547721803188324,-0.1064271479845047,9.529939651489258,1.446026086807251,-0.3728792071342468,-0.0418664701282978
4203421682.0,-0.5845258235931396,-0.3021757006645202,9.689956665039062,1.4480494260787964,-1.3006267547607422,-0.1926318407058715
4203430015.0,-0.0649461671710014,-0.4190717041492462,9.649441719055176,1.4410312175750732,-1.570857048034668,-0.0987300649285316
4203438348.0,0.0651337876915931,-0.2248925417661667,9.47330379486084,1.4191311597824097,-0.8674644231796265,-0.0960149616003036
4203446681.0,-0.3854094743728637,-0.1071424335241317,9.48629379272461,1.3827333450317385,-0.383304238319397,-3.84213562938e-05
4203455014.0,-0.5009710788726807,-0.2719555795192718,9.589520454406738,1.3601927757263184,-1.20728862285614,-0.2050035446882248
4203463347.0,-0.0447560921311378,-0.4905422627925873,9.603721618652344,1.375586748123169,-1.6869150400161743,-0.1465006172657013
4203471680.0,0.2119725793600082,-0.278101772069931,9.46184539794922,1.470359444618225,-0.9367764592170716,-0.1409935355186462
4203480013.0,-0.2231329381465912,-0.0108222514390945,9.375309944152832,1.5280427932739258,-0.28661048412323,0.0262033604085445
4203488346.0,-0.6804571151733398,-0.2958630323410034,9.643112182617188,1.359552264213562,-0.679071843624115,-0.2227541953325271
4203496679.0,-0.4372390806674957,-0.5316136479377747,9.728645324707031,1.4049663543701172,-1.5056686401367188,-0.1393542438745498
4203505012.0,-0.0026456676423549,-0.3687896728515625,9.591975212097168,1.4733563661575315,-1.3725003004074097,0.1558113843202591
4203513345.0,-0.0763852074742317,-0.0921286195516586,9.425851821899414,1.5103689432144165,-0.4924464523792267,0.0068902289494872
4203521678.0,-0.4548921585083008,-0.0520155020058155,9.483076095581056,1.4543761014938354,-0.5108886957168579,-0.0662512183189392
4203530011.0,-0.3494073450565338,-0.3600151836872101,9.55639934539795,1.4367278814315796,-1.472703218460083,-0.1445539146661758
4203538344.0,0.1339857876300811,-0.5182310938835144,9.512990951538086,1.388957381248474,-1.4479854106903076,-0.1767254024744033
4203546677.0,0.0413792170584201,-0.216959998011589,9.412832260131836,1.4664660692214966,-0.5094799399375916,0.0328886769711971
4203555010.0,-0.4796195924282074,-0.0105432905256748,9.470234870910645,1.504913091659546,-0.3335869908332824,0.0054302182979881
4203563343.0,-0.5864112377166748,-0.2616750299930572,9.610604286193848,1.4683361053466797,-1.130702018737793,-0.2535937130451202
4203571676.0,-0.1960170269012451,-0.4494973123073578,9.644299507141112,1.381887912750244,-1.5718302726745603,-0.2507505416870117
4203580009.0,-0.0380566492676734,-0.2162781208753585,9.478839874267578,1.44284987449646,-0.9011984467506408,0.0724626630544662
4203588342.0,-0.3914608359336853,-0.137956902384758,9.431882858276367,1.4463335275650024,-0.5533828139305115,0.0943884626030922
4203596675.0,-0.4684762954711914,-0.2957424819469452,9.569106101989746,1.307043194770813,-1.1053181886672974,-0.1638926714658737
4203605008.0,-0.0240642987191677,-0.3953525125980377,9.579093933105469,1.4503803253173828,-1.522599697113037,-0.1609982699155807
4203613341.0,0.2171030938625335,-0.2743115127086639,9.411996841430664,1.302944898605347,-0.949045956134796,-0.0183525998145341
4203621674.0,-0.2188698351383209,-0.1167701482772827,9.332334518432615,1.4860354661941528,-0.1668127179145813,-0.0059553096070885
4203630007.0,-0.609100341796875,-0.2478960752487182,9.516871452331545,1.3180317878723145,-0.7267143130302429,-0.2034154683351516
4203638340.0,-0.377305120229721,-0.5582706332206726,9.7075834274292,1.2421622276306152,-1.5233681201934814,-0.3270553350448608
4203646673.0,-0.0122219594195485,-0.4442113041877746,9.622085571289062,1.41080641746521,-1.257799744606018,-0.0868450626730918
4203655006.0,-0.1741646528244018,-0.019509483128786,9.42552661895752,1.6635931730270386,-0.5675473809242249,0.0757669061422348
4203663339.0,-0.447635680437088,-0.0600137263536453,9.438787460327148,1.4531724452972412,-0.9020693898200988,-0.3202419877052307
4203671672.0,-0.2724916040897369,-0.5133603811264038,9.596868515014648,1.309476613998413,-1.5584341287612915,-0.3030804395675659
4203680005.0,0.1563845127820968,-0.4834441542625427,9.510598182678224,1.4713327884674072,-1.2696080207824707,-0.0127686951309442
4203688338.0,0.0250363033264875,-0.1878521293401718,9.371288299560549,1.6477892398834229,-0.5102738738059998,0.1969478279352188
4203696671.0,-0.4370745122432709,-0.1402099728584289,9.516148567199709,1.4686944484710691,-0.4214438199996948,-0.0712972208857536
4203705004.0,-0.5135596394538879,-0.3088496625423431,9.717921257019045,1.3774054050445557,-1.1268597841262815,-0.3070762455463409
4203713337.0,-0.1082662865519523,-0.4246623814105987,9.6199369430542,1.408219337463379,-1.4012395143508911,-0.0760870799422264
4203721670.0,-0.0488267503678798,-0.3106691837310791,9.484175682067873,1.4961274862289429,-0.8402365446090698,0.0346048325300216
4203730003.0,-0.3806885480880737,-0.1446949243545532,9.47336196899414,1.4251247644424438,-0.5412159562110901,-0.1347949057817459
4203738336.0,-0.4626049399375915,-0.2970304191112518,9.54896354675293,1.3736915588378906,-1.2161000967025757,-0.1781086027622223
4203746669.0,-0.0542659796774387,-0.526020884513855,9.644815444946287,1.4370098114013672,-1.6228795051574707,-0.2878912091255188
4203755002.0,0.1747569292783737,-0.2753988802433014,9.423888206481934,1.4493815898895264,-0.923380434513092,0.0014856257475912
4203763335.0,-0.2131117135286331,-0.0280534587800502,9.378305435180664,1.4530954360961914,-0.2704991102218628,0.1841407269239425
4203771668.0,-0.6387202739715576,-0.3129368722438812,9.612605094909668,1.2997941970825195,-0.7758423089981079,-0.0519840829074382
4203780001.0,-0.4194661974906921,-0.5906053781509399,9.760065078735352,1.454376459121704,-1.4778261184692385,-0.2269037216901779
4203788334.0,0.0195569954812526,-0.3832418024539947,9.521504402160645,1.567821741104126,-1.3472192287445068,-0.0510619804263114
4203796667.0,-0.1088662669062614,-0.0795825272798538,9.430071830749512,1.3596547842025757,-0.6619614958763123,0.0065828589722514
4203805000.0,-0.5342315435409546,-0.0554130747914314,9.528788566589355,1.4665942192077637,-0.7480252981185913,-0.1044164299964904
4203813333.0,-0.3866493105888366,-0.3941883444786072,9.564363479614258,1.4644169807434082,-1.5318464040756226,-0.3021326959133148
4203821666.0,0.1148170232772827,-0.575565755367279,9.485296249389648,1.546203374862671,-1.5446794033050537,-0.1517515480518341
4203829999.0,0.0143128391355276,-0.2588327825069427,9.45291805267334,1.4700264930725098,-0.5918553471565247,0.0550449937582016
4203838332.0,-0.4591052234172821,-0.0130396327003836,9.503009796142578,1.5365467071533203,-0.4214950203895569,0.0606545098125934
4203846665.0,-0.5681228041648865,-0.258847028017044,9.605594635009766,1.458705186843872,-1.2030879259109497,-0.2075137495994568
4203854998.0,-0.1606199294328689,-0.4869825839996338,9.705228805541992,1.362472414970398,-1.5688334703445437,-0.1896349936723709
4203863331.0,0.0711562260985374,-0.2022606879472732,9.45619773864746,1.4227172136306765,-0.9275042414665222,0.0401375070214271
4203871664.0,-0.2973436713218689,-0.0546691790223121,9.43238925933838,1.5342159271240234,-0.489065408706665,-0.0043416125699877
4203879997.0,-0.5335230827331543,-0.2666840851306915,9.607043266296388,1.3893417119979858,-1.1066503524780271,-0.1758801341056823
4203888330.0,-0.1136286705732345,-0.441081553697586,9.617077827453612,1.3965647220611572,-1.755740523338318,-0.243578553199768
4203896663.0,0.2495926469564438,-0.2741440236568451,9.430946350097656,1.3258440494537354,-1.194788932800293,0.0573758892714977
4203904996.0,-0.1233865395188331,-0.0949253812432289,9.410773277282717,1.526531457901001,-0.1968069821596145,0.0674166604876518
4203913329.0,-0.6300439834594727,-0.1778481900691986,9.537656784057615,1.4841911792755127,-0.5396279096603394,-0.2982649505138397
4203921662.0,-0.4571115672588348,-0.5146573781967163,9.672099113464355,1.3989216089248655,-1.4738816022872925,-0.1599737107753753
4203929995.0,-0.0125625673681497,-0.4752772748470306,9.66287326812744,1.5473815202713013,-1.311666488647461,-0.0468868538737297
4203938328.0,-0.0014904696727171,-0.0276254676282405,9.447153091430664,1.661620855331421,-0.6085813641548157,0.1236142888665199
4203946661.0,-0.4170036017894745,0.0176102984696626,9.412934303283691,1.5513771772384644,-0.5190852880477905,-0.0723474025726318
4203954994.0,-0.3811113834381103,-0.4237681031227112,9.603833198547363,1.408501148223877,-1.3402007818222046,-0.2798483073711395
4203963327.0,0.0451624318957328,-0.5067384243011475,9.576394081115724,1.4403141736984253,-1.5589462518692017,-0.1478069424629211
4203971660.0,0.1064486056566238,-0.2104652523994445,9.37403678894043,1.4392125606536863,-0.5346843600273132,0.10804083943367
4203979993.0,-0.4152082204818725,-0.040084533393383,9.503159523010254,1.5078076124191284,-0.2332304418087005,-0.0647399723529815
4203988326.0,-0.6341938376426697,-0.2670193314552307,9.672698974609377,1.5416951179504397,-1.0895910263061523,-0.2864311635494232
4203996659.0,-0.1839896887540817,-0.4380394518375397,9.556446075439451,1.334757685661316,-1.562122464179993,-0.2867641746997833
4204004992.0,0.0359788015484809,-0.2931092083454132,9.491650581359863,1.404479742050171,-0.8290175199508667,-0.0274968799203634
4204013325.0,-0.2995252907276153,-0.12428779900074,9.46688747406006,1.4589099884033203,-0.4944956302642822,-0.0080300625413656
4204021658.0,-0.4978840351104736,-0.2531432807445526,9.52646541595459,1.5078331232070925,-1.045278549194336,-0.1869454681873321
4204029991.0,-0.1085070073604583,-0.49483522772789,9.6129150390625,1.4205142259597778,-1.5469077825546265,-0.2382764369249344
4204038324.0,0.2111846208572387,-0.348610907793045,9.42353630065918,1.5511212348937988,-1.0649245977401731,-0.037512045353651
4204046657.0,-0.107886329293251,-0.1190376132726669,9.303767204284668,1.4434902667999268,-0.2884290814399719,0.0497940741479396
4204054990.0,-0.6433838605880737,-0.2848406136035919,9.555512428283691,1.521485447883606,-0.5682133436203003,-0.1041090562939643
4204063323.0,-0.5088911652565002,-0.6221417188644409,9.73055934906006,1.4438486099243164,-1.5439876317977903,-0.1761875003576278
4204071656.0,0.0004915867466479,-0.4768897294998169,9.541091918945312,1.5655676126480105,-1.3418145179748535,-0.118145652115345
4204079989.0,-0.0657011792063713,-0.0799456462264061,9.387334823608398,1.6486601829528809,-0.570390522480011,0.0433392822742462
4204088322.0,-0.4726469814777374,-0.0168188884854316,9.514076232910156,1.746762752532959,-0.589242696762085,-0.1655063778162002
4204096655.0,-0.3790445923805237,-0.3572082817554474,9.58658504486084,1.4417738914489746,-1.4400962591171265,-0.344447374343872
4204104988.0,0.0937109291553497,-0.5077763795852661,9.54383659362793,1.4942320585250854,-1.3908145427703855,-0.1946553736925125
4204113321.0,0.0868205651640892,-0.1993903666734695,9.44129753112793,1.610956072807312,-0.5870909690856934,0.0246152784675359
4204121654.0,-0.4254368543624878,0.0573085881769657,9.484885215759276,1.380889058113098,-0.3344322741031647,0.1092447191476821
4204129987.0,-0.5982825756072998,-0.1759560406208038,9.726312637329102,1.405632257461548,-0.9726108312606812,-0.3176805377006531
4204138320.0,-0.2185366451740265,-0.4003258645534515,9.765981674194336,1.3440557718276978,-1.5892223119735718,-0.1895069032907486
4204146653.0,-0.0027893946971744,-0.235461950302124,9.46717357635498,1.4646731615066528,-0.8984577059745789,-0.0894320979714393
4204154986.0,-0.3205117285251617,-0.1084728613495826,9.465042114257812,1.375996708869934,-0.5152174830436707,-0.0515486449003219
4204163319.0,-0.5282001495361328,-0.2863127589225769,9.668329238891602,1.3194917440414429,-1.1039351224899292,-0.1873553246259689
4204171652.0,-0.1236694306135177,-0.4878345429897308,9.62819766998291,1.309758186340332,-1.655383825302124,-0.192913606762886
4204179985.0,0.2389092743396759,-0.3491747975349426,9.458354949951172,1.4808357954025269,-0.9957917332649232,-0.0872036591172218
4204188318.0,-0.1483284831047058,-0.1257469952106475,9.405153274536133,1.469565510749817,-0.3284641206264496,-0.0439924448728561
4204196651.0,-0.615638017654419,-0.2496628314256668,9.543931007385254,1.4320406913757324,-0.629918098449707,-0.162330225110054
4204204984.0,-0.4522036612033844,-0.6296916007995605,9.716394424438477,1.4278911352157593,-1.4732924699783323,-0.1818226724863052
4204213317.0,-0.0199473910033702,-0.4836077690124511,9.609156608581545,1.6631066799163818,-1.260975956916809,-0.1896862238645553
4204221650.0,-0.069021537899971,-0.048162754625082,9.413629531860352,1.7243245840072632,-0.541907548904419,-0.0177122447639703
4204229983.0,-0.4566172659397125,-0.0143144614994525,9.450016975402832,1.5732775926589966,-0.6490775346755981,-0.1134326457977294
4204238316.0,-0.3905513882637024,-0.3568108379840851,9.575491905212402,1.5387239456176758,-1.3667882680892944,-0.2801300883293152
4204246649.0,0.0810742974281311,-0.5033209919929504,9.50913143157959,1.580680012702942,-1.5767738819122314,-0.1118701696395874
4204254982.0,0.1044529676437377,-0.1926117539405822,9.350003242492676,1.5121619701385498,-0.6297900080680847,0.0192106757313013
4204263315.0,-0.3688720762729645,-0.0017882197862491,9.456016540527344,1.5188473463058472,-0.2833575010299682,-0.0353860668838024
4204271648.0,-0.5603352189064026,-0.1798295378684997,9.592988967895508,1.4633667469024658,-1.044843077659607,-0.3385305106639862
4204279981.0,-0.1707908660173416,-0.4176689684391022,9.611916542053224,1.3632919788360596,-1.4581286907196045,-0.2038508802652359
4204288314.0,-0.0016745760804042,-0.2561331391334533,9.44791316986084,1.4674652814865112,-0.951325535774231,0.060423981398344
4204296647.0,-0.3299320340156555,-0.0788243263959884,9.384587287902832,1.457526683807373,-0.4342764914035797,0.0092467376962304
4204304980.0,-0.5212750434875488,-0.2491194158792495,9.568300247192385,1.3683892488479614,-1.027502179145813,-0.2166323661804199
4204313313.0,-0.1426382511854171,-0.4802068769931793,9.630512237548828,1.36101233959198,-1.6275924444198608,-0.1362036913633346
4204321646.0,0.2269212454557418,-0.2998213171958923,9.386004447937012,1.4874954223632812,-1.1253741979599,0.0459007062017917
4204329979.0,-0.084754042327404,-0.1063198745250701,9.33304500579834,1.4963068962097168,-0.2556941211223602,0.0170590821653604
4204338312.0,-0.6112533807754517,-0.2571946978569031,9.600780487060549,1.3242814540863037,-0.4794856309890747,-0.1782878637313842
4204346645.0,-0.4670445919036865,-0.6006560921669006,9.73031234741211,1.417414903640747,-1.4726775884628296,-0.2213710248470306
4204354978.0,0.0132303070276975,-0.5191946029663086,9.619378089904783,1.619152545928955,-1.4994957447052002,0.0057375882752239
4204363311.0,-0.0663140788674354,-0.1059478968381881,9.44374942779541,1.494488000869751,-0.539422869682312,0.1584496349096298
4204371644.0,-0.463765025138855,-0.052624799311161,9.448526382446287,1.614849328994751,-0.5738741159439087,-0.0973469018936157
4204379977.0,-0.3644799292087555,-0.4433692693710327,9.58566665649414,1.4484082460403442,-1.245863676071167,-0.2478561252355575
4204388310.0,0.0490065105259418,-0.5731163620948792,9.59231948852539,1.434601902961731,-1.385128140449524,-0.1834107190370559
4204396643.0,0.0928314253687858,-0.2205270826816558,9.42816162109375,1.65337336063385,-0.5661386847496033,-0.0462721213698387
4204404976.0,-0.4114815890789032,-0.0902259573340416,9.489190101623535,1.5668740272521973,-0.348827451467514,-0.0341053530573844
4204413309.0,-0.579703688621521,-0.2917236685752868,9.718297958374023,1.5218440294265747,-1.1423563957214355,-0.252082496881485
4204421642.0,-0.1854382157325744,-0.4640241265296936,9.632231712341309,1.4124456644058228,-1.5921167135238647,-0.2424515187740326
4204429975.0,0.0374738313257694,-0.2976811230182647,9.475353240966797,1.556372046470642,-0.9378266334533693,0.0290209278464317
4204438308.0,-0.3579354286193847,-0.1447735428810119,9.496665000915527,1.5361881256103516,-0.4082524478435516,-0.0400734692811965
4204446641.0,-0.552148699760437,-0.2843690514564514,9.585481643676758,1.5037859678268433,-1.112541437149048,-0.1588466763496399
4204454974.0,-0.0986258909106254,-0.4921396970748901,9.61542510986328,1.4583977460861206,-1.6943175792694092,-0.1710646599531173
4204463307.0,0.190618485212326,-0.3242658078670501,9.472942352294922,1.6159508228302002,-0.9547576904296876,0.086857870221138
4204471640.0,-0.1598803400993347,-0.0700334832072258,9.35567569732666,1.648173689842224,-0.3084082007408142,0.0149330981075763
4204479973.0,-0.6225906014442444,-0.2895828485488891,9.526800155639648,1.431400179862976,-0.5302530527114868,-0.1869711130857467
4204488306.0,-0.4891784489154815,-0.5883548259735107,9.744815826416016,1.5165164470672607,-1.455183029174805,-0.2159920483827591
4204496639.0,-0.0157689657062292,-0.3999298810958862,9.578104972839355,1.5945628881454468,-1.3284695148468018,-0.0572862327098846
4204504972.0,-0.0732247978448867,-0.0445393994450569,9.42849349975586,1.624224305152893,-0.6077361106872559,0.0836817026138305
4204513305.0,-0.4503286778926849,-0.0578879565000534,9.5234956741333,1.5697169303894043,-0.5377323627471924,-0.1403019726276397
4204521638.0,-0.396922618150711,-0.3365642130374908,9.581380844116213,1.5652602910995483,-1.4261109828948977,-0.3506717085838318
4204529971.0,0.0745452716946601,-0.4721615612506866,9.50330638885498,1.5476632118225098,-1.3646621704101562,-0.0872548893094062
4204538304.0,0.0587931424379348,-0.2323612123727798,9.420154571533203,1.6052953004837036,-0.6159326434135437,0.1059916988015174
4204546637.0,-0.4354221522808075,-0.0168163478374481,9.489713668823242,1.589337706565857,-0.3986983895301819,-0.0080556767061352
4204554970.0,-0.5535893440246582,-0.1748762279748916,9.61950969696045,1.47835111618042,-0.9976616501808168,-0.2754426598548889
4204563303.0,-0.289685308933258,-0.359619528055191,9.65951442718506,1.2945435047149658,-1.4793884754180908,-0.2043887823820114
4204571636.0,-0.0020468994043767,-0.1703459918498993,9.463518142700195,1.387292504310608,-0.9898748993873596,-0.0377425737679004
4204579969.0,-0.3163917064666748,-0.1567760109901428,9.476951599121094,1.4542993307113647,-0.5906514525413513,-0.0195820834487676
4204588302.0,-0.5042498707771301,-0.2521477937698364,9.627453804016112,1.3825284242630005,-0.9683334231376648,-0.1623814553022384
4204596635.0,-0.2144993990659713,-0.3771880567073822,9.627630233764648,1.3560175895690918,-1.500417709350586,-0.1529041677713394
4204604968.0,0.2254166305065155,-0.1838175356388092,9.387014389038086,1.3444911241531372,-1.285386323928833,-0.2395059019327163
4204613301.0,-0.0827369540929794,-0.0518938563764095,9.39842700958252,1.34797465801239,-0.4647830724716186,-0.0274712666869163
4204621634.0,-0.4992755651473999,-0.2224248647689819,9.532602310180664,1.4254578351974487,-0.539884090423584,-0.070503182709217
4204629967.0,-0.4610739946365356,-0.5112433433532715,9.69248104095459,1.303533911705017,-1.3518296480178833,-0.1501634418964386
4204638300.0,-0.1221609786152839,-0.399039477109909,9.654409408569336,1.51282799243927,-1.419476866722107,0.0184166356921196
4204646633.0,-0.1099214404821395,0.0170096829533576,9.45521640777588,1.497818112373352,-0.8019433617591858,-0.0187880415469408
4204654966.0,-0.3726702630519867,-0.0054647722281515,9.447925567626951,1.3481539487838743,-0.6398820281028748,-0.0571581646800041
4204663299.0,-0.4103602170944214,-0.3743329346179962,9.62307357788086,1.2913929224014282,-1.2348495721817017,-0.2081284672021865
4204671632.0,-0.0113482978194952,-0.4708311557769775,9.514244079589844,1.338062047958374,-1.580846667289734,-0.1857672482728958
4204679965.0,0.0862561389803886,-0.2587469816207886,9.357958793640137,1.376585841178894,-0.844001829624176,-0.0356165915727615
4204688298.0,-0.3245030045509338,-0.0900900438427925,9.516212463378906,1.3444654941558838,-0.3648363053798675,0.0379859060049057
4204696631.0,-0.4958780407905578,-0.2077051997184753,9.611042022705078,1.3726155757904053,-1.0903083086013794,-0.1149438843131065
4204704964.0,-0.2540000081062317,-0.4042631685733795,9.662015914916992,1.1915740966796875,-1.4569247961044312,-0.1069778427481651
4204713297.0,-0.1385434120893478,-0.2810995876789093,9.567800521850586,1.1580963134765625,-1.0760667324066162,0.1305301338434219
4204721630.0,-0.4065389931201935,-0.0809701830148696,9.475600242614746,1.2653943300247192,-0.7784293293952942,0.1644433885812759
4204729963.0,-0.4791552126407623,-0.3210738599300384,9.565007209777832,1.2644468545913696,-1.318351984024048,-0.2057975977659225
4204738296.0,-0.0133124692365527,-0.5504430532455444,9.57947826385498,1.2292526960372925,-1.7633479833602903,-0.2141734212636947
4204746629.0,0.2544034123420715,-0.2076772451400756,9.38565158843994,1.2789955139160156,-1.0945088863372805,-0.0184038262814283
4204754962.0,-0.143106922507286,-0.1736996620893478,9.353394508361816,1.352790117263794,-0.24562768638134,-0.0081581333652138
4204763295.0,-0.5808537602424622,-0.2906271517276764,9.55608367919922,1.4827824831008911,-0.5977209210395813,-0.2228822559118271
4204771628.0,-0.4203495681285858,-0.5965855717658997,9.722265243530272,1.27453875541687,-1.3650208711624146,-0.1325920820236206
4204779961.0,0.0184615571051836,-0.5062669515609741,9.559550285339355,1.505117893218994,-1.313075304031372,0.0302760247141122
4204788294.0,-0.1439900398254394,-0.1447323858737945,9.429458618164062,1.5702037811279297,-0.6348615884780884,0.0102456929162144
4204796627.0,-0.4508007764816284,-0.0633956491947174,9.362313270568848,1.4647499322891235,-0.716135561466217,-0.1174028441309928
4204804960.0,-0.3227595686912536,-0.4508832693099975,9.503931999206545,1.3577594757080078,-1.3843854665756226,-0.3033878207206726
4204813293.0,0.018723452463746,-0.6501068472862244,9.663657188415527,1.3545832633972168,-1.3615119457244873,-0.152340680360794
4204821626.0,0.0290308520197868,-0.2620743811130523,9.40029239654541,1.6374413967132568,-0.6511011123657227,0.044876143336296
4204829959.0,-0.393798291683197,-0.1007026508450508,9.379528999328612,1.6909236907958984,-0.4846341013908386,-0.0357446670532226
4204838292.0,-0.5293608903884888,-0.3286899626255035,9.686059951782228,1.4326298236846924,-1.112515926361084,-0.232257068157196
4204846625.0,-0.1516707986593246,-0.4442332983016968,9.67540168762207,1.4084755182266235,-1.3831558227539062,-0.1331299841403961
4204854958.0,-0.0161766819655895,-0.3266179859638214,9.458211898803713,1.6081384420394895,-0.9094718098640442,-0.0059040803462266
4204863291.0,-0.3248932659626007,-0.1830330193042755,9.41906452178955,1.6212273836135864,-0.5041009783744812,-0.0881001576781272
4204871624.0,-0.4595962464809418,-0.3591543436050415,9.586313247680664,1.4966142177581787,-1.1011431217193604,-0.0472710691392421
4204879957.0,-0.0763496607542038,-0.4903925955295563,9.570379257202148,1.4962811470031738,-1.5550274848937988,-0.1731394231319427
4204888290.0,0.1509761810302734,-0.3066637217998504,9.467782020568848,1.4948980808258057,-0.9339336156845092,-0.0210677087306976
4204896623.0,-0.172075942158699,-0.1187658011913299,9.403885841369627,1.623378872871399,-0.3982117176055908,0.0756900683045387
4204904956.0,-0.5644953846931458,-0.2993437647819519,9.500670433044434,1.688746452331543,-0.6886515021324158,-0.2403255403041839
4204913289.0,-0.4247203767299652,-0.5037655234336853,9.691972732543944,1.5313984155654907,-1.4008041620254517,-0.2084358632564544
4204921622.0,-0.0348241031169891,-0.40630903840065,9.61408233642578,1.6510167121887207,-1.3147913217544556,0.0246665086597204
4204929955.0,-0.1007199510931968,-0.0485099554061889,9.493807792663574,1.7358254194259644,-0.6176488399505615,0.0403680317103862
4204938288.0,-0.4277033805847168,0.0380440279841423,9.502163887023926,1.5502759218215942,-0.6961051821708679,-0.0418408475816249
4204946621.0,-0.3271332681179046,-0.3449091911315918,9.597695350646973,1.412394404411316,-1.4161726236343384,-0.2802581489086151
4204954954.0,0.092209979891777,-0.4902001023292541,9.521565437316896,1.5498660802841189,-1.4323863983154297,-0.1715769618749618
4204963287.0,0.0301388595253229,-0.1754806339740753,9.441426277160645,1.584368348121643,-0.5513079762458801,0.0684156194329261
4204971620.0,-0.443955510854721,-0.0014806304825469,9.51436710357666,1.5050925016403198,-0.366424411535263,0.0057888170704245
4204979953.0,-0.5380575060844421,-0.2455890029668808,9.631779670715332,1.5004308223724363,-1.1738364696502686,-0.2131744921207428
4204988286.0,-0.1934838145971298,-0.3668607175350189,9.69578742980957,1.4879565238952637,-1.38384747505188,-0.2236506789922714
4204996619.0,-0.0555266179144382,-0.2071582227945327,9.496101379394531,1.5311163663864136,-0.7090916037559509,0.0559158697724342
4205004952.0,-0.3763039112091064,-0.1433930397033691,9.467917442321776,1.5916173458099363,-0.4885531365871429,-0.2045937180519104
4205013285.0,-0.4473924338817596,-0.2611340284347534,9.599080085754396,1.4273532629013062,-1.0883616209030151,-0.2451922446489334
4205021618.0,-0.0502605959773063,-0.3761520385742187,9.650973320007324,1.4167745113372805,-1.538762450218201,-0.1348717510700225
4205029951.0,0.1577745527029037,-0.1937010288238525,9.461873054504396,1.4714351892471311,-0.8714345693588257,-0.0445047318935394
4205038284.0,-0.201731652021408,0.0517150536179542,9.36954402923584,1.5059120655059814,-0.3390171825885772,-0.045119471848011
4205046617.0,-0.5716337561607361,-0.2036915123462677,9.59467315673828,1.346284031867981,-0.782835066318512,-0.135998785495758
4205054950.0,-0.4366624653339386,-0.4867970943450928,9.737451553344728,1.3062490224838257,-1.4470632076263428,-0.1035455390810966
4205063283.0,-0.1218574345111846,-0.2588774859905243,9.654520988464355,1.3046098947525024,-1.1826220750808716,0.0306090135127306
4205071616.0,-0.1756094545125961,0.1147101446986198,9.41553020477295,1.4258418083190918,-0.6088374853134155,0.0700036957859993
4205079949.0,-0.4840186536312103,0.030428247526288,9.467008590698242,1.14165198802948,-0.8084493279457092,-0.1401226669549942
4205088282.0,-0.3032636940479278,-0.4438071846961975,9.68932056427002,0.9472144842147828,-1.4616634845733645,-0.1705779880285263
4205096615.0,0.0817201659083366,-0.4116004109382629,9.523335456848145,1.1791770458221436,-1.5280556678771973,-0.0980128720402717
4205104948.0,0.0308502111583948,-0.0957622602581977,9.298603057861328,1.3241790533065796,-0.6160351634025574,0.0916221216320991
4205113281.0,-0.4625670909881592,-0.0834952220320701,9.549511909484863,1.1579939126968384,-0.5320972800254822,-0.1530578583478927
4205121614.0,-0.4801631867885589,-0.1912169456481933,9.690228462219238,1.0281554460525513,-1.2157156467437744,-0.2166579961776733
4205129947.0,-0.1878904551267624,-0.3624567985534668,9.694433212280272,1.0037449598312378,-1.4479342699050903,-0.085718035697937
4205138280.0,-0.114960491657257,-0.2129973620176315,9.543301582336426,1.1941355466842651,-0.7477434277534485,-0.0580034330487251
4205146613.0,-0.379508376121521,-0.1184868440032005,9.448476791381836,1.2904707193374634,-0.6410602331161499,-0.0972444415092468
4205154946.0,-0.3462906777858734,-0.3322637677192688,9.528223037719728,1.162143349647522,-1.1552149057388306,-0.2271085977554321
4205163279.0,0.0166828222572803,-0.4492422640323639,9.61591625213623,1.0576629638671875,-1.475162386894226,-0.1378173828125
4205171612.0,0.1408609300851822,-0.2108944207429886,9.481708526611328,1.2159589529037476,-0.8468194007873535,-0.0234242174774408
4205179945.0,-0.2280040234327316,-0.1477848887443542,9.338200569152832,1.2230284214019775,-0.2763391435146332,-0.0720144286751747
4205188278.0,-0.5477359890937805,-0.4650565683841705,9.598852157592772,1.2364248037338257,-0.8587044477462769,-0.3162973821163177
4205196611.0,-0.2801135778427124,-0.5874013304710388,9.700145721435549,1.175975322723389,-1.3173787593841553,-0.1374844163656234
4205204944.0,-0.0386325046420097,-0.2908346056938171,9.529996871948242,1.2734885215759275,-0.9459465146064758,-0.0367692373692989
4205213277.0,-0.2946327626705169,-0.0594329722225666,9.496779441833496,1.322232365608215,-0.5764610767364502,-0.133847177028656
4205221610.0,-0.4541268348693847,-0.1615040451288223,9.530011177062988,1.0592511892318726,-1.2141788005828855,-0.2471645325422287
4205229943.0,-0.1402122676372528,-0.4741743505001068,9.529109954833984,1.046520709991455,-1.6565622091293335,-0.0951953008770942
4205238276.0,0.0799401700496673,-0.4960997402667999,9.553050994873049,1.0672938823699951,-1.2852070331573486,-0.0127430809661746
4205246609.0,-0.0473446659743785,-0.2237480878829956,9.34503936767578,1.528119683265686,-0.6260759234428406,0.0481547601521015
4205254942.0,-0.4693481028079986,-0.1959163695573806,9.461322784423828,1.1785621643066406,-0.5452630519866943,-0.1425560116767883
4205263275.0,-0.4029124975204468,-0.4713723361492157,9.738717079162598,1.2243348360061646,-1.1198159456253052,-0.2320521622896194
4205271608.0,-0.1471121311187744,-0.4895036816596985,9.662400245666504,1.3000506162643433,-1.2531381845474243,-0.0758821815252304
4205279941.0,-0.1350814402103424,-0.268081396818161,9.329174041748049,1.390033483505249,-0.6812233924865723,-0.0102072730660438
4205288274.0,-0.4131481945514679,-0.404207170009613,9.468368530273438,1.2563780546188354,-0.7863953113555908,-0.1118701696395874
4205296607.0,-0.3316126763820648,-0.5812958478927612,9.59994888305664,1.285860300064087,-1.44801127910614,-0.2522361874580383
4205304940.0,0.0648783445358276,-0.4526999890804291,9.474719047546388,1.3281493186950684,-1.398857355117798,-0.0855899602174758
4205313273.0,0.0377870015799999,-0.2475270926952362,9.371417045593262,1.5259679555892944,-0.7748177647590637,0.0378322266042232
4205321606.0,-0.3330649733543396,-0.3182585835456848,9.39045238494873,1.5531704425811768,-0.576742947101593,-0.0990374535322189
4205329939.0,-0.43243408203125,-0.5800867676734924,9.512670516967772,1.5134937763214111,-1.139641284942627,-0.2206794321537017
4205338272.0,-0.182729035615921,-0.6321298480033875,9.646344184875488,1.59046471118927,-1.1851577758789062,-0.018019612878561
4205346605.0,-0.114772118628025,-0.2287311404943466,9.48133373260498,1.6883622407913208,-0.9253526329994202,0.0511516258120536
4205354938.0,-0.3234336972236633,-0.0682286024093627,9.409565925598145,1.650043487548828,-0.7020477652549744,-0.0951184704899787
4205363271.0,-0.3292807638645172,-0.3601006269454956,9.558110237121582,1.5907719135284424,-1.106573224067688,-0.172960102558136
4205371604.0,-0.0396968200802803,-0.5189529061317444,9.488954544067385,1.5597530603408811,-1.289663791656494,-0.0031377435661852
4205379937.0,0.123525433242321,-0.3268602192401886,9.317797660827637,1.5332682132720947,-0.8695393204689026,-0.0014984329463914
4205388270.0,-0.2142490893602371,-0.1800370812416076,9.456095695495604,1.5439491271972656,-0.4429597556591034,-0.0217080619186162
4205396603.0,-0.4888979792594909,-0.2724300920963287,9.586722373962402,1.6406173706054688,-0.8016358613967896,-0.1552862823009491
4205404936.0,-0.2856915891170501,-0.3990896046161651,9.619325637817385,1.518001914024353,-1.1705832481384275,-0.258972704410553
4205413269.0,-0.0947768539190292,-0.2582926154136657,9.499098777770996,1.5578320026397705,-1.0645660161972046,-0.0868450626730918
4205421602.0,-0.2604545056819916,-0.109707273542881,9.459904670715332,1.6102644205093384,-0.6016655564308167,0.0268437173217535
4205429935.0,-0.4364206492900848,-0.2200093865394592,9.57376766204834,1.5175665616989136,-0.8469218611717224,-0.139994591474533
4205438268.0,-0.2201715856790542,-0.4069804847240448,9.678504943847656,1.5805518627166748,-1.4053890705108645,-0.1658137440681457
4205446601.0,0.1164687424898147,-0.2403824180364608,9.457232475280762,1.6166936159133911,-1.308772087097168,0.0134218586608767
4205454934.0,0.0015164026990532,-0.0758487433195114,9.395967483520508,1.507346510887146,-0.4701108336448669,0.0453371964395046
4205463267.0,-0.4325467944145202,-0.1176999807357788,9.608999252319336,1.3680050373077393,-0.4225451946258545,-0.2095372378826141
4205471600.0,-0.5010243058204651,-0.3876709640026092,9.761082649230955,1.4544018507003784,-1.078858733177185,-0.281000941991806
4205479933.0,-0.1910113096237182,-0.3480532169342041,9.651001930236816,1.366058349609375,-1.4110753536224363,-0.2284661531448364
4205488266.0,-0.098885603249073,-0.0254133082926273,9.578547477722168,1.435011863708496,-0.8789396286010742,-0.0026510732714086
4205496599.0,-0.3681496679782867,0.1188945546746254,9.572957038879396,1.3151116371154783,-0.6991533041000366,-0.1089501455426216
4205504932.0,-0.4128840267658233,-0.1754551380872726,9.619935035705566,1.2369369268417358,-1.1461985111236572,-0.2283636927604675
4205513265.0,-0.0985603705048561,-0.4108694791793823,9.693411827087402,1.1125543117523191,-1.3124094009399414,-0.2863799333572387
4205521598.0,0.0081828525289893,-0.1325636357069015,9.53199291229248,1.2084027528762815,-0.7258689403533936,-0.0230143889784812
4205529931.0,-0.3658178448677063,0.0302779842168092,9.565546989440918,1.1297413110733032,-0.3650156259536743,-0.1076438128948211
4205538264.0,-0.5749955773353577,-0.1276353299617767,9.759882926940918,1.1161658763885498,-0.8547598123550415,-0.1497280150651931
4205546597.0,-0.2922450006008148,-0.3132400214672088,9.749414443969728,1.160299301147461,-1.362587809562683,-0.2378665953874588
4205554930.0,-0.0435250848531723,-0.1964885592460632,9.55777072906494,0.9584590196609496,-1.0354427099227903,-0.1246004477143287
4205563263.0,-0.3481860756874084,-0.0288474150002002,9.602527618408203,1.0296921730041504,-0.4195739924907684,-0.0456061474978923
4205571596.0,-0.5665767192840576,-0.0927079990506172,9.676852226257324,0.9314616322517396,-1.118560791015625,-0.1699120104312896
4205579929.0,-0.1546121835708618,-0.2875725626945495,9.666028022766112,0.8556179404258728,-1.7283589839935305,-0.3286690711975097
4205588262.0,0.2200429141521453,-0.1367981284856796,9.595259666442873,0.8655306100845337,-1.1598509550094604,0.068287543952465
4205596595.0,-0.1043099090456962,0.1070852130651474,9.397397994995115,0.8194506168365479,-0.4159111380577087,-0.0399710126221179
4205604928.0,-0.6049874424934387,-0.0797613486647605,9.59502410888672,0.6328252553939819,-0.5213137269020081,-0.2222675383090973
4205613261.0,-0.4748700857162475,-0.3887784779071808,9.800217628479004,0.549988865852356,-1.3094382286071775,-0.2024164944887161
4205621594.0,-0.0386968739330768,-0.2110803872346878,9.63655948638916,0.6864102482795715,-1.365610122680664,-0.0378962568938732
4205629927.0,-0.0597619488835334,0.0690749511122703,9.480820655822754,0.6937103867530823,-0.5970805883407593,0.0611924044787883
4205638260.0,-0.4986389875411987,0.0301206223666667,9.605752944946287,0.4273222982883453,-0.6346054673194885,-0.1779036521911621
4205646593.0,-0.363199919462204,-0.2756562530994415,9.656781196594238,0.4324963986873626,-1.5425533056259155,-0.2202952206134796
4205654926.0,0.1162480041384697,-0.3757888972759247,9.537457466125488,0.3779636323451996,-1.4852797985076904,-0.1685288548469543
4205663259.0,0.0956693068146705,-0.1688143014907837,9.42803192138672,0.5133861303329468,-0.675460159778595,0.0606288872659206
4205671592.0,-0.3863679766654968,-0.0478382147848606,9.512587547302246,0.4812659025192261,-0.419394701719284,0.0644198060035705
4205679925.0,-0.4862717092037201,-0.2847976088523865,9.723560333251951,0.4038083851337433,-1.1724019050598145,-0.1553887724876403
4205688258.0,-0.1477419584989547,-0.3979984521865845,9.65719509124756,0.4245815277099609,-1.3821568489074707,-0.0628445222973823
4205696591.0,-0.0493331812322139,-0.1991494446992874,9.423678398132324,0.4779872000217438,-0.9290409684181212,0.0336058735847473
4205704924.0,-0.39364954829216,-0.2096927464008331,9.471487045288086,0.3702537715435028,-0.5208269953727722,-0.002574230544269
4205713257.0,-0.467846006155014,-0.4164313673973083,9.719197273254396,0.3470984995365143,-1.2681479454040527,-0.1348717510700225
4205721590.0,-0.0136976949870586,-0.4021041989326477,9.562119483947754,0.4544989764690399,-1.5894017219543457,-0.0843348652124404
4205729923.0,0.1970679759979248,-0.2283187508583068,9.243139266967772,0.4343661665916443,-1.059238314628601,0.012627818621695
4205738256.0,-0.2094495445489883,-0.2016815543174743,9.348550796508787,0.3296295702457428,-0.4890141189098358,0.0804543048143386
4205746589.0,-0.5522638559341431,-0.4800702631473541,9.663434028625488,0.3685632050037384,-0.8568857908248901,-0.0972700491547584
4205754922.0,-0.3051688969135284,-0.671122670173645,9.647446632385254,0.501270592212677,-1.4557466506958008,-0.0929156318306922
4205763255.0,-0.0493331588804721,-0.4137919545173645,9.430415153503418,0.6774452328681946,-1.1632574796676636,0.0560695566236972
4205771588.0,-0.2207152694463729,-0.1867392659187317,9.30647087097168,0.5684567093849182,-0.7662882208824158,0.1273027509450912
4205779921.0,-0.4486120045185089,-0.4101368486881256,9.543587684631348,0.6095676422119141,-1.044023513793945,-0.087869644165039
4205788254.0,-0.216316282749176,-0.6681828498840332,9.574130058288574,0.638793408870697,-1.3707842826843262,-0.1776475310325622
4205796587.0,0.0918210670351982,-0.5821412801742554,9.312478065490724,0.8124322891235352,-1.3263689279556274,0.0625499561429023
4205804920.0,-0.1462756395339965,-0.4398426115512848,9.236759185791016,0.7564651966094971,-0.6069421172142029,0.1206686571240425
4205813253.0,-0.4705497622489929,-0.4472315013408661,9.491100311279297,0.6592335104942322,-0.8405693769454956,-0.1250358819961547
4205821586.0,-0.341169148683548,-0.5970907211303711,9.565418243408203,0.9049253463745116,-1.3869980573654177,-0.0631518959999084
4205829919.0,-0.0840387493371963,-0.6658509969711304,9.44429874420166,0.902953028678894,-1.2029597759246826,-0.1493950337171554
4205838252.0,-0.1847865432500839,-0.4601853191852569,9.326605796813965,1.0110450983047483,-0.6808134913444519,-0.1323103159666061
4205846585.0,-0.4460369944572449,-0.4703780710697174,9.40025806427002,1.1385782957077026,-0.9320891499519348,-0.0540844611823558
4205854918.0,-0.2983387410640716,-0.7361271977424622,9.572816848754885,1.109352469444275,-1.4140722751617432,-0.3165278732776642
4205863251.0,0.0864318907260894,-0.6781940460205078,9.446319580078123,1.2294832468032837,-1.3556718826293943,-0.0823113396763801
4205871584.0,0.050549142062664,-0.3634574115276336,9.183270454406738,1.1941611766815186,-0.6743074655532837,-0.023962115868926
4205879917.0,-0.3970686495304107,-0.4811573624610901,9.287379264831545,1.2997686862945557,-0.6180842518806458,-0.0926851108670234
4205888250.0,-0.4815230965614319,-0.7869210839271545,9.590664863586426,1.250461459159851,-1.142228603363037,-0.3280031085014343
4205896583.0,-0.1410465538501739,-0.7721413969993591,9.548336029052734,1.5015065670013428,-1.3699902296066284,-0.1028027385473251
4205904916.0,-0.066565565764904,-0.5365172028541565,9.32790756225586,1.6601868867874146,-0.8195659518241882,0.0793016776442527
4205913249.0,-0.3619234263896942,-0.3374030292034149,9.4230375289917,1.6431787014007568,-0.6859107613563538,-0.2120218276977539
4205921582.0,-0.3432400822639465,-0.4480741024017334,9.478900909423828,1.6498384475708008,-1.263947367668152,-0.2178362756967544
4205929915.0,0.0181570835411548,-0.7258422374725342,9.46739387512207,1.5628525018692017,-1.445705771446228,-0.358612060546875
4205938248.0,0.0912887826561927,-0.595733106136322,9.39486598968506,1.799476981163025,-0.8934885859489441,-0.0671733394265174
4205946581.0,-0.1929047703742981,-0.2533670961856842,9.304377555847168,1.7508865594863892,-0.4688557386398315,0.0096565661951899
4205954914.0,-0.4504763782024383,-0.358163446187973,9.532791137695312,1.7055493593215942,-0.9259929656982422,-0.1390468776226043
4205963247.0,-0.2718551754951477,-0.533039391040802,9.739980697631836,1.797402024269104,-1.2441473007202148,-0.1915560513734817
4205971580.0,-0.0305854566395282,-0.3415924310684204,9.523720741271973,1.8049325942993164,-0.9991216063499452,-0.168375164270401
4205979913.0,-0.1966127157211303,-0.1941325515508651,9.38211727142334,1.7055749893188477,-0.574642539024353,0.1092190966010093
4205988246.0,-0.4508741796016693,-0.3348228931427002,9.619948387145996,1.7432023286819458,-0.8986113667488098,-0.154415413737297
4205996579.0,-0.1864639967679977,-0.4687890410423279,9.673035621643066,1.778447508811951,-1.5652730464935305,-0.1873297095298767
4206004912.0,0.207267165184021,-0.3334621787071228,9.493775367736816,1.8245021104812624,-1.244890213012695,-0.0278042554855346
4206013245.0,-0.0099764540791511,-0.1203406378626823,9.418210983276367,1.8416889905929563,-0.4118384122848511,0.05384112149477
4206021578.0,-0.4499117732048034,-0.140863299369812,9.511226654052734,1.6707652807235718,-0.504357099533081,-0.0240389592945575
4206029911.0,-0.4638526439666748,-0.4709832072257995,9.70746612548828,1.6017605066299438,-1.154779314994812,-0.213251307606697
4206038244.0,-0.1432347893714904,-0.5327047109603882,9.74041748046875,1.7616703510284424,-1.258568286895752,-0.0624090880155563
4206046577.0,-0.1015791669487953,-0.1401612609624862,9.479818344116213,1.7947380542755127,-0.7846791744232178,0.0743837282061576
4206054910.0,-0.4130937755107879,-0.0001923944801092,9.518462181091309,1.6758112907409668,-0.7075803875923157,-0.0111293848603963
4206063243.0,-0.3896035552024841,-0.2649587988853454,9.731671333312988,1.7024246454238892,-1.2885370254516602,-0.0797755420207977
4206071576.0,0.0470232516527175,-0.4307698309421539,9.595476150512695,1.753678560256958,-1.502902626991272,-0.1062862649559974
4206079909.0,0.134084090590477,-0.2131476700305938,9.342669486999512,1.8030115365982056,-0.6675965785980225,0.0270486325025558
4206088242.0,-0.3587850034236908,-0.0673820152878761,9.497312545776367,1.7119275331497192,-0.3562043607234955,0.0648808628320694
4206096575.0,-0.6109716892242432,-0.201850414276123,9.709197998046877,1.6359554529190063,-0.8496626019477844,-0.251057893037796
4206104908.0,-0.2197721451520919,-0.2853681743144989,9.659639358520508,1.5643380880355835,-1.4407110214233398,-0.2457045316696167
4206113241.0,-0.0370849967002868,-0.2332063317298889,9.524069786071776,1.716000199317932,-1.047276496887207,0.0151636283844709
4206121574.0,-0.3367237448692322,-0.0461548343300819,9.471342086791992,1.667947769165039,-0.4607616364955902,0.0119362324476242
4206129907.0,-0.5368959307670593,-0.1594410538673401,9.606430053710938,1.5096005201339722,-1.0089062452316284,-0.1657624989748001
4206138240.0,-0.1891474425792694,-0.3944747447967529,9.687604904174805,1.5201023817062378,-1.6444978713989258,-0.3441400527954101
4206146573.0,0.192633181810379,-0.2332618683576584,9.430575370788574,1.60460364818573,-1.1387192010879517,-0.0566202625632286
4206154906.0,-0.0834879800677299,-0.0266228821128606,9.299110412597656,1.311935544013977,-0.3920643329620361,-0.0034707291051745
4206163239.0,-0.6022835969924927,-0.1688858270645141,9.530892372131348,1.3086824417114258,-0.4577391743659973,-0.0740379467606544
4206171572.0,-0.5580830574035645,-0.4821407198905945,9.744535446166992,1.3762528896331787,-1.370425581932068,-0.2431943565607071
4206179905.0,-0.0954785421490669,-0.4124712646007538,9.5563325881958,1.4007400274276731,-1.3556716442108154,-0.1909669190645218
4206188238.0,-0.1218200698494911,-0.1129147782921791,9.411947250366213,1.4067851305007937,-0.6956698894500732,0.0262033641338348
4206196571.0,-0.434184730052948,-0.1178573966026306,9.47776699066162,1.38826584815979,-0.7360122203826904,-0.0648936629295349
4206204904.0,-0.3449229896068573,-0.4249425530433655,9.60949420928955,1.2710039615631104,-1.385538101196289,-0.3083057701587677
4206213237.0,0.0509826205670833,-0.4820900857448578,9.472967147827148,1.2563270330429075,-1.3849488496780396,-0.1667614579200744
4206221570.0,0.0735560655593872,-0.3267602324485779,9.328692436218262,1.5205633640289309,-0.7658783793449402,0.1350894719362259
4206229903.0,-0.3439802229404449,-0.2368449419736862,9.460636138916016,1.2774842977523804,-0.3237254917621612,-0.0610771402716636
4206238236.0,-0.5421354174613953,-0.3315414190292358,9.668941497802734,1.2601690292358398,-0.9547321796417236,-0.0405345298349857
4206246569.0,-0.2172328382730484,-0.4945584535598755,9.567577362060549,1.3311461210250854,-1.4047229290008545,-0.0574655383825302
4206254902.0,-0.0166804306209087,-0.3943076133728027,9.456816673278809,1.3811194896697998,-0.9315768480300904,-0.1179663613438606
4206263235.0,-0.3409545719623565,-0.2024469077587127,9.495134353637695,1.4344995021820068,-0.5408573150634766,-0.0442485883831977
4206271568.0,-0.4434794187545776,-0.3615772426128387,9.55788516998291,1.4155193567276,-1.2897919416427612,-0.1133814081549644
4206279901.0,-0.0361496470868587,-0.5673583149909973,9.598660469055176,1.4330909252166748,-1.4806180000305176,-0.2959084510803222
4206288234.0,0.2295122891664505,-0.3384104669094085,9.397746086120604,1.4438998699188232,-1.0208425521850586,-0.0137676503509283
4206296567.0,-0.1183366328477859,-0.1637357324361801,9.344009399414062,1.4740991592407229,-0.306512713432312,-0.0247305426746606
4206304900.0,-0.5409480333328247,-0.4139207303524017,9.57955265045166,1.410243034362793,-0.732682466506958,-0.1249590590596199
4206313233.0,-0.397329181432724,-0.6173463463783264,9.730656623840332,1.4245868921279907,-1.3331313133239746,-0.2379946559667587
4206321566.0,-0.0152812050655484,-0.4554476141929626,9.592716217041016,1.4813226461410522,-1.280494213104248,-0.0081325201317667
4206329899.0,-0.1180523410439491,-0.2013318091630935,9.486591339111328,1.5459469556808472,-0.7129849791526794,-0.0093876169994473
4206338232.0,-0.4295568168163299,-0.1962382495403289,9.568158149719238,1.4512256383895874,-0.6957466006278992,-0.1973192393779754
4206346565.0,-0.2557831406593323,-0.4709364473819732,9.52448558807373,1.4654161930084229,-1.372449278831482,-0.3597903847694397
4206354898.0,0.1252931505441665,-0.6178538203239441,9.565853118896484,1.4991499185562134,-1.341532826423645,-0.2085895091295242
4206363231.0,0.0119738588109612,-0.26964071393013,9.465264320373535,1.569998860359192,-0.562885582447052,0.0429294556379318
4206371564.0,-0.4139493405818939,-0.1145456284284591,9.438190460205078,1.473842978477478,-0.4346095025539398,-0.0297765471041202
4206379897.0,-0.5642327666282654,-0.4304204881191253,9.686277389526367,1.4072459936141968,-1.098069429397583,-0.2840490639209747
4206388230.0,-0.1989492774009704,-0.514064610004425,9.693648338317873,1.537494421005249,-1.4052609205245972,-0.1487290561199188
4206396563.0,0.0097064292058348,-0.2600058913230896,9.423993110656738,1.4408520460128784,-0.8139563202857971,-0.0664049088954925
4206404896.0,-0.3868972659111023,-0.2429177016019821,9.504511833190918,1.3559919595718384,-0.4895264804363251,0.0111678075045347
4206413229.0,-0.5479596853256226,-0.3981662392616272,9.68459129333496,1.4252784252166748,-1.1976830959320068,-0.20710389316082
4206421562.0,-0.0442601516842842,-0.463395893573761,9.559144973754885,1.494078278541565,-1.604411482810974,-0.2916308641433716
4206429895.0,0.268105149269104,-0.321233332157135,9.354671478271484,1.5325251817703247,-0.8952558636665344,-0.1219109371304512
4206438228.0,-0.2221029251813888,-0.1611320972442627,9.418462753295898,1.559753179550171,-0.2535681426525116,0.0841427594423294
4206446561.0,-0.6394712924957275,-0.3138095140457153,9.551383972167969,1.3921849727630615,-0.5722348093986511,-0.1752910017967224
4206454894.0,-0.4145984053611755,-0.6214065551757812,9.71168613433838,1.4937454462051392,-1.4470890760421753,-0.2697050869464874
4206463227.0,-0.0219838265329599,-0.4333407282829284,9.61150360107422,1.5457676649093628,-1.2942488193511963,-0.0891759544610977
4206471560.0,-0.1106044128537178,-0.0261650998145341,9.371089935302734,1.452788233757019,-0.5491563677787781,0.0014600114664062
4206479893.0,-0.4923092722892761,-0.1083434969186782,9.546215057373049,1.52947735786438,-0.6863462924957275,-0.1431707888841629
4206488226.0,-0.3234838545322418,-0.5075955390930176,9.637405395507812,1.444668531417847,-1.595805287361145,-0.2947814464569092
4206496559.0,0.1877853721380233,-0.4465066194534302,9.430524826049805,1.4537872076034546,-1.2698129415512085,-0.1216035857796669
4206504892.0,0.0619221627712249,-0.1823402792215347,9.35778522491455,1.425534725189209,-0.4131959974765777,0.1620612740516662
4206513225.0,-0.5330870747566223,-0.1334791630506515,9.609278678894045,1.526224136352539,-0.469342440366745,-0.0121795693412423
4206521558.0,-0.515012264251709,-0.3011603355407715,9.637506484985352,1.4284545183181765,-1.3841547966003418,-0.3091765642166137
4206529891.0,-0.0533740930259227,-0.4199080765247345,9.558640480041504,1.3710274696350098,-1.435818791389465,-0.1732162535190582
4206538224.0,-0.0105319805443286,-0.2451620399951934,9.498621940612791,1.5215110778808594,-0.7514832019805908,0.0571709722280502
4206546557.0,-0.3988067507743835,-0.1642149686813354,9.457903861999512,1.4628031253814695,-0.6123722791671753,-0.0304681304842233
4206554890.0,-0.4656817317008972,-0.3910247981548309,9.647154808044434,1.3746646642684937,-1.2844641208648682,-0.2536961734294891
4206563223.0,0.0067470422945916,-0.4793477058410644,9.569870948791504,1.5419002771377563,-1.58773672580719,-0.2143527269363403
4206571556.0,0.2644906640052795,-0.2047358304262161,9.334953308105469,1.431553840637207,-0.8427211046218872,0.0575551763176918
4206579889.0,-0.2278824299573898,-0.1613967418670654,9.431710243225098,1.3665449619293213,-0.0818502902984619,-0.0220154337584972
4206588222.0,-0.6551932692527771,-0.4150580167770386,9.70966911315918,1.3455668687820437,-0.8040435910224915,-0.2100239098072052
4206596555.0,-0.3459517061710357,-0.6360023021697998,9.66828155517578,1.4433621168136597,-1.5116112232208252,-0.2226004898548126
4206604888.0,0.0816806033253669,-0.3638280630111694,9.52457332611084,1.5868017673492432,-1.249731183052063,-0.0504984632134437
4206613221.0,-0.1674051433801651,-0.0650121867656707,9.486329078674316,1.5385959148406982,-0.4621960818767547,-0.0828748643398284
4206621554.0,-0.4666301012039184,-0.1651733517646789,9.49875259399414,1.3890342712402344,-0.7677226066589355,-0.2124316543340683
4206629887.0,-0.2654682993888855,-0.5770862698554993,9.63061237335205,1.392492413520813,-1.4711408615112305,-0.2805399000644684
4206638220.0,0.1536465436220169,-0.4840907752513885,9.46510887145996,1.361857533454895,-1.2072628736495972,0.0193643607199192
4206646553.0,-0.0646617040038108,-0.2393770366907119,9.361776351928713,1.4476395845413208,-0.4165002405643463,0.0043031913228333
4206654886.0,-0.5534798502922058,-0.2147426456212997,9.611082077026367,1.345874309539795,-0.4462383389472961,-0.092044748365879
4206663219.0,-0.4955427944660187,-0.4284194409847259,9.73100757598877,1.420053243637085,-1.306057095527649,-0.2581530511379242
4206671552.0,0.009525790810585,-0.4657433927059173,9.536691665649414,1.3948233127593994,-1.4743938446044922,-0.0383573211729526
4206679885.0,-0.06440419703722,-0.2786890566349029,9.432117462158203,1.3179547786712646,-0.5619890689849854,0.0250251069664955
4206688218.0,-0.5050407648086548,-0.2729024291038513,9.549932479858398,1.524764060974121,-0.4801516234874725,-0.0271382816135883
4206696551.0,-0.403009295463562,-0.4961303472518921,9.598359107971191,1.4339359998703003,-1.3402007818222046,-0.2249826192855835
4206704884.0,0.1154123544692993,-0.5169517397880554,9.546032905578612,1.4514049291610718,-1.462149977684021,-0.1866637170314788
4206713217.0,0.1259257942438125,-0.1973469406366348,9.342178344726562,1.4852157831192017,-0.7030723094940186,0.165160596370697
4206721550.0,-0.4134843945503235,-0.1830483973026275,9.374744415283203,1.455093502998352,-0.2405817061662674,0.0235394816845655
4206729883.0,-0.6563504338264465,-0.5096837282180786,9.682628631591797,1.4560155868530271,-1.0454065799713137,-0.3395807445049286
4206738216.0,-0.2358589321374893,-0.6500967741012573,9.71703052520752,1.6380559206008911,-1.6916792392730713,-0.2201927602291107
4206746549.0,0.051711056381464,-0.3424365222454071,9.452194213867188,1.6292701959609983,-1.050324559211731,-0.0138701079413294
4206754882.0,-0.2965497076511383,-0.1102038547396659,9.450021743774414,1.6199465990066528,-0.4354548454284668,-0.02329614572227
4206763215.0,-0.5123393535614014,-0.2344372123479843,9.561086654663086,1.5506857633590698,-1.0476605892181396,-0.265094518661499
4206771548.0,-0.0841201841831207,-0.5695213675498962,9.497430801391602,1.5015578269958496,-1.636480689048767,-0.3903225064277649
4206779881.0,0.2266464531421661,-0.4566051363945007,9.42080307006836,1.6068834066390991,-1.004859209060669,-0.0337723717093467
4206788214.0,-0.1562180966138839,-0.1967246383428573,9.409557342529297,1.5907206535339355,-0.3256465494632721,0.1141626387834549
4206796547.0,-0.5803816318511963,-0.17749784886837,9.569009780883787,1.4999949932098389,-0.6617820858955383,-0.0871268138289451
4206804880.0,-0.4189427196979522,-0.4673223495483398,9.73530387878418,1.416877031326294,-1.423395752906799,-0.2235482186079025
4206813213.0,0.0158438850194215,-0.3854996263980865,9.563809394836426,1.5282220840454102,-1.305775165557861,-0.1315931230783462
4206821546.0,-0.1224888488650322,-0.2000074088573455,9.383305549621582,1.5734567642211914,-0.5904977917671204,-0.0541356913745403
4206829879.0,-0.4912643432617187,-0.2295634001493454,9.548539161682127,1.5291186571121216,-0.67192542552948,-0.099729023873806
4206838212.0,-0.3817163109779358,-0.4584701359272003,9.64913845062256,1.5561414957046509,-1.3650977611541748,-0.1004974469542503
4206846545.0,0.1534590274095535,-0.3992278277873993,9.455615997314451,1.479580640792847,-1.599903583526611,-0.1653783172369003
4206854878.0,0.1614468097686767,-0.203555628657341,9.370354652404783,1.529733180999756,-0.6377047300338745,0.0308139212429523
4206863211.0,-0.3328074812889099,-0.1186871230602264,9.477581024169922,1.5041959285736084,-0.2958828210830688,-0.0014215899864211
4206871544.0,-0.6111499667167664,-0.4293832778930664,9.693342208862305,1.4460772275924685,-1.0195103883743286,-0.240197479724884
4206879877.0,-0.2648209035396576,-0.5902403593063354,9.679556846618652,1.5854442119598389,-1.4699623584747314,-0.2549000382423401
4206888210.0,0.0015254088211804,-0.3058775663375854,9.472723960876465,1.7316758632659912,-1.17163348197937,0.0392410084605217
4206896543.0,-0.1899222284555435,-0.0445860885083675,9.4083251953125,1.625991702079773,-0.6259479522705078,0.0524067282676696
4206904876.0,-0.5168358087539673,-0.2088844776153564,9.613170623779297,1.434653401374817,-0.8139820098876953,-0.2096397131681442
4206913209.0,-0.2325489372014999,-0.479187399148941,9.59813404083252,1.4870599508285522,-1.4377397298812866,-0.2579225301742553
4206921542.0,0.1731635481119156,-0.4199309945106506,9.390850067138672,1.4969984292984009,-1.2146399021148682,-0.0444535091519355
4206929875.0,-0.0585817843675613,-0.1895932555198669,9.453326225280762,1.5660797357559204,-0.3629152476787567,0.0834255516529083
4206938208.0,-0.5733306407928467,-0.1423235833644867,9.625372886657717,1.5920014381408691,-0.5488746166229248,-0.0077739199623465
4206946541.0,-0.5022772550582886,-0.3663129806518554,9.67354679107666,1.404018759727478,-1.3143047094345093,-0.2830757200717926
4206954874.0,-0.0750209242105484,-0.4031919836997986,9.548514366149902,1.2821462154388428,-1.405465841293335,-0.1777499765157699
4206963207.0,-0.0193126760423183,-0.1723191440105438,9.42408561706543,1.3430824279785156,-0.7856271266937256,-0.0247305445373058
4206971540.0,-0.3944935500621795,-0.2040134370326995,9.516286849975586,1.38767671585083,-0.5190083980560303,-0.0830541551113128
