SampleTimeFine,Acc_X,Acc_Y,Acc_Z,Gyr_X,Gyr_Y,Gyr_Z
3993274587.0,0.0,0.0,0.0,0.0,0.0,0.0
3993282920.0,0.0028396416455507,-0.4392676651477813,9.443408012390137,1.536085605621338,-1.3037773370742798,-0.0850008353590965
3993291253.0,0.0316513292491436,-0.1952583044767379,9.397147178649902,1.4588971138000488,-0.781029224395752,-0.1457962393760681
3993299586.0,-0.2659211456775665,-0.256944477558136,9.505456924438477,1.4298762083053589,-0.4640786945819855,-0.1920811533927917
3993307919.0,-0.4625482857227325,-0.5581013560295105,9.674219131469728,1.4405444860458374,-0.9044514298439026,-0.2312837392091751
3993316252.0,-0.2691974639892578,-0.6211769580841064,9.607251167297363,1.5125463008880615,-1.2928913831710815,-0.2640187740325928
3993324585.0,-0.0949856415390968,-0.3095042407512665,9.472885131835938,1.560214281082153,-1.0958410501480105,-0.117121085524559
3993332918.0,-0.1604786068201065,-0.1084155067801475,9.51472282409668,1.5459471940994265,-0.6839385628700256,-0.0788278132677078
3993341251.0,-0.3267492949962616,-0.3053246438503265,9.59762477874756,1.580078125,-0.8613042235374451,-0.1611391603946685
3993349584.0,-0.2082277238368988,-0.5600661635398865,9.553674697875977,1.4896341562271118,-1.1521027088165283,-0.1817329972982406
3993357917.0,-0.0057551302015781,-0.4502580761909485,9.412518501281738,1.5205763578414917,-1.1410117149353027,-0.1277381926774978
3993366250.0,-0.0630022436380386,-0.2293774038553238,9.461030960083008,1.520524978637695,-0.5696605443954468,-0.0085295401513576
3993374583.0,-0.3483148515224457,-0.254104733467102,9.595009803771973,1.559458613395691,-0.4790630042552948,-0.0832718834280967
3993382916.0,-0.4290084540843963,-0.4406554400920868,9.663811683654783,1.4930152893066406,-1.0059734582901,-0.2920022904872894
3993391249.0,-0.2176996171474456,-0.434210866689682,9.535270690917969,1.51775860786438,-1.1451610326766968,-0.1941558867692947
3993399582.0,-0.1171881556510925,-0.2591937780380249,9.480530738830566,1.5459853410720823,-0.8846900463104248,-0.0302504077553749
3993407915.0,-0.2629313468933105,-0.2639041543006897,9.531792640686035,1.4798110723495483,-0.7209510207176208,-0.113637551665306
3993416248.0,-0.3197338879108429,-0.470431238412857,9.634082794189451,1.540094256401062,-1.043498396873474,-0.0909817591309547
3993424581.0,-0.1028303205966949,-0.5040544271469116,9.51291275024414,1.5297460556030271,-1.3315815925598145,-0.2259431630373001
3993432914.0,0.049891110509634,-0.2538313865661621,9.375967979431152,1.5184630155563354,-0.9758639335632324,-0.0511132031679153
3993441247.0,-0.1705738455057144,-0.1406248956918716,9.45223903656006,1.538954496383667,-0.5360931158065796,0.0070951427333056
3993449580.0,-0.4452430009841919,-0.400130033493042,9.639543533325195,1.5205891132354736,-0.5828903317451477,-0.359073132276535
3993457913.0,-0.3563099801540375,-0.6052200794219971,9.636589050292969,1.4797728061676023,-1.150617003440857,-0.2380843162536621
3993466246.0,-0.108762152493,-0.420447826385498,9.499344825744627,1.590451955795288,-1.1952115297317505,-0.0512540824711322
3993474579.0,-0.0819710940122604,-0.141219213604927,9.50613021850586,1.60401451587677,-0.7320932745933533,0.0439027957618236
3993482912.0,-0.2741541564464569,-0.205029085278511,9.599616050720217,1.486880660057068,-0.6550712585449219,-0.0759333968162536
3993491245.0,-0.2746141850948334,-0.4586714208126068,9.585304260253906,1.5118801593780518,-1.2427898645401,-0.2695769965648651
3993499578.0,-0.0438464097678661,-0.481090098619461,9.454812049865724,1.450342059135437,-1.2538424730300903,-0.0703110769391059
3993507911.0,0.0226986669003963,-0.2342213243246078,9.40419101715088,1.4821292161941528,-0.8045174479484558,0.0092595452442765
3993516244.0,-0.2174964994192123,-0.1783704459667205,9.56151294708252,1.5095621347427368,-0.5689433217048645,0.1015476286411285
3993524577.0,-0.4098006784915924,-0.3713398277759552,9.67869758605957,1.451878786087036,-0.795373260974884,-0.1854982823133468
3993532910.0,-0.276298314332962,-0.5123935341835022,9.582465171813965,1.465300679206848,-1.1946990489959717,-0.1878291666507721
3993541243.0,-0.1074333637952804,-0.3073464930057525,9.463576316833496,1.4562846422195437,-1.0615051984786987,-0.0765097290277481
3993549576.0,-0.1858523190021515,-0.2065597921609878,9.54129123687744,1.3955533504486084,-0.7271113395690918,-0.0484877452254295
3993557909.0,-0.3182729482650757,-0.3584860861301422,9.609728813171388,1.3721544742584229,-0.8747645616531372,-0.2236506789922714
3993566242.0,-0.1928498148918151,-0.5203654170036316,9.548455238342283,1.4441816806793213,-1.2521389722824097,-0.2272879183292389
3993574575.0,0.015423652715981,-0.3589384853839874,9.41946029663086,1.4746370315551758,-1.141639232635498,-0.0324148125946521
3993582908.0,-0.052487563341856,-0.1881626844406128,9.4144287109375,1.462060570716858,-0.6472333073616028,0.0361929163336753
3993591241.0,-0.3475924134254455,-0.3219852149486542,9.595617294311523,1.455938696861267,-0.4335337281227112,-0.2143783420324325
3993599574.0,-0.4571331441402435,-0.6046485304832458,9.680602073669434,1.4957175254821775,-0.9364948272705078,-0.2827171087265014
3993607907.0,-0.2047698348760604,-0.5193862915039062,9.57179069519043,1.546357035636902,-1.3157905340194702,-0.1341289579868316
3993616240.0,-0.0722784996032714,-0.1996487230062484,9.47032642364502,1.5201280117034912,-0.9194357991218568,-0.034233421087265
3993624573.0,-0.2049404829740524,-0.1244013532996177,9.544880867004396,1.5346384048461914,-0.6782136559486389,-0.1196697056293487
3993632906.0,-0.3131586611270904,-0.4183242321014404,9.589468002319336,1.498983383178711,-1.0153225660324097,-0.1631370484828949
3993641239.0,-0.1503404527902603,-0.5679351091384888,9.476390838623049,1.5088448524475098,-1.239985108375549,-0.1556320935487747
3993649572.0,-0.002319591352716,-0.3601227104663849,9.417713165283203,1.4912093877792358,-1.0741713047027588,-0.0199406798928976
3993657905.0,-0.1828695833683014,-0.1885775476694107,9.499168395996094,1.4721269607543943,-0.4709561169147491,0.0121155325323343
3993666238.0,-0.4204583168029785,-0.2933810651302337,9.656554222106934,1.4475754499435425,-0.6384859681129456,-0.1996373385190963
3993674571.0,-0.3672460615634918,-0.4805052280426025,9.639004707336426,1.3774054050445557,-1.1752450466156006,-0.1941687166690826
3993682904.0,-0.1069875657558441,-0.4148652255535126,9.479708671569824,1.4634947776794434,-1.2452744245529177,-0.1865100562572479
3993691237.0,-0.0895249843597412,-0.2376174479722976,9.431960105895996,1.3430566787719729,-0.9412590861320496,-0.0536746270954608
3993699570.0,-0.2554780840873718,-0.3186019361019134,9.57852268218994,1.399638533592224,-0.8341659307479858,-0.139994591474533
3993707903.0,-0.2363580763339996,-0.5181323885917664,9.622845649719238,1.543231964111328,-1.2630761861801147,-0.1743176579475402
3993716236.0,-0.0248347632586956,-0.4455826580524444,9.438081741333008,1.4728953838348389,-1.237231731414795,-0.1093599870800972
3993724569.0,-0.0259791258722543,-0.1889638006687164,9.383299827575684,1.4689761400222778,-0.6508705019950867,-0.0112830689176917
3993732902.0,-0.2891751527786255,-0.2087056189775467,9.50717830657959,1.3995105028152466,-0.3334845006465912,-0.0397660955786705
3993741235.0,-0.4859785735607147,-0.5542736649513245,9.678696632385254,1.4542865753173828,-0.7618442177772522,-0.3245835602283478
3993749568.0,-0.2831220626831054,-0.6273334622383118,9.590205192565918,1.52578866481781,-1.361562967300415,-0.1447588503360748
3993757901.0,-0.0343974605202674,-0.3467006087303161,9.476218223571776,1.5403889417648315,-1.0145926475524902,-0.0429678782820701
3993766234.0,-0.1069155037403106,-0.1088599190115928,9.480202674865724,1.6126209497451782,-0.7419546842575073,0.0457982495427131
3993774567.0,-0.29158616065979,-0.2480171173810959,9.60722541809082,1.5249305963516235,-0.8040308356285095,-0.0941835418343544
3993782900.0,-0.2014736980199813,-0.5422045588493347,9.559504508972168,1.378365993499756,-1.175693392753601,-0.1723581850528717
3993791233.0,-0.0031493348069489,-0.4566726684570312,9.418212890625,1.5149410963058472,-1.1483885049819946,-0.0450298227369785
3993799566.0,-0.0715069696307182,-0.2318236380815506,9.451873779296877,1.550493597984314,-0.6385884284973145,-0.0025101951323449
3993807899.0,-0.3678778707981109,-0.2447631359100341,9.581727027893066,1.48755943775177,-0.529113233089447,-0.1280711740255355
3993816232.0,-0.4405931830406189,-0.4509409666061401,9.630316734313965,1.4916704893112185,-0.9420658946037292,-0.1471281498670578
3993824565.0,-0.2156591415405273,-0.4426230192184448,9.557312965393066,1.483576416969299,-1.1473000049591064,-0.0787765756249427
3993832898.0,-0.1174885779619216,-0.2638360857963562,9.494162559509276,1.4701036214828491,-1.0089576244354248,-0.1012658774852752
3993841231.0,-0.2309295386075973,-0.2393198162317276,9.562392234802246,1.4697575569152832,-0.6371284127235413,-0.0975390076637268
3993849564.0,-0.3093887865543365,-0.4416246712207794,9.618592262268066,1.4573602676391602,-1.0596096515655518,-0.2118553221225738
3993857897.0,-0.107280433177948,-0.5192272067070007,9.507875442504885,1.4509567022323608,-1.3126782178878784,-0.1685928851366043
3993866230.0,0.0453306622803211,-0.2771718204021454,9.413262367248535,1.5730981826782229,-0.9083191156387328,0.006659701000899
3993874563.0,-0.1243379116058349,-0.1638072580099105,9.442419052124023,1.422473669052124,-0.4943034648895263,0.0766249820590019
3993882896.0,-0.4472458958625793,-0.4087705612182617,9.666836738586426,1.4558874368667605,-0.6907519102096558,-0.1754959374666214
3993891229.0,-0.4029582142829895,-0.6292611956596375,9.662775993347168,1.45353102684021,-1.0896422863006592,-0.2766721546649933
3993899562.0,-0.1375532150268554,-0.4186506867408752,9.531501770019531,1.6073315143585205,-1.34023916721344,-0.2245856076478958
3993907895.0,-0.0730841234326362,-0.1248779594898223,9.487215042114258,1.5123157501220703,-0.8603181838989258,-0.019146641716361
3993916228.0,-0.2544947564601898,-0.1696723103523254,9.572518348693848,1.5603166818618774,-0.687421977519989,-0.2077186405658722
3993924561.0,-0.2733566462993622,-0.4657110571861267,9.57392692565918,1.457782745361328,-1.0982487201690674,-0.2971891164779663
3993932894.0,-0.0704619139432907,-0.524124801158905,9.466134071350098,1.537827491760254,-1.298526406288147,-0.1256506294012069
3993941227.0,-0.0189621858298778,-0.2542978823184967,9.434649467468262,1.5234577655792236,-0.6651888489723206,-0.0178146976977586
3993949560.0,-0.253790020942688,-0.1837779879570007,9.54472541809082,1.524623155593872,-0.5840045213699341,0.0624346882104873
3993957893.0,-0.4397811889648437,-0.3450907468795776,9.669925689697266,1.535983324050903,-0.7717440724372864,-0.2351514846086502
3993966226.0,-0.2731194198131561,-0.4617080986499786,9.571528434753418,1.5111373662948608,-1.1203794479370115,-0.1472178101539611
3993974559.0,-0.0635008662939071,-0.3113222420215606,9.459510803222656,1.402020812034607,-1.009085774421692,-0.0970395430922508
3993982892.0,-0.1533784121274948,-0.2456858456134796,9.501264572143556,1.4289155006408691,-0.7061716318130493,-0.0941963493824005
3993991225.0,-0.2932672798633575,-0.3962597250938415,9.601829528808594,1.455132007598877,-0.8631229400634766,-0.1357810646295547
3993999558.0,-0.1914104372262954,-0.5204319357872009,9.601277351379396,1.4791195392608645,-1.2381024360656738,-0.2531838715076446
3994007891.0,0.0051831370219588,-0.3346447646617889,9.444812774658203,1.5128533840179443,-1.180444598197937,-0.057337462902069
3994016224.0,-0.0854764953255653,-0.1302389651536941,9.428942680358888,1.4260468482971191,-0.5606827735900879,0.0487695038318634
3994024557.0,-0.3730851411819458,-0.2959417104721069,9.568279266357422,1.3893544673919678,-0.4638993442058563,-0.1223591864109039
3994032890.0,-0.4481950402259826,-0.6251696348190308,9.666457176208496,1.3573368787765503,-1.0102766752243042,-0.1940278261899948
3994041223.0,-0.1915970891714096,-0.5891472697257996,9.543517112731934,1.458256721496582,-1.3382155895233154,-0.1728704571723938
3994049556.0,-0.0245975777506828,-0.24200339615345,9.445449829101562,1.6019271612167358,-0.9761073589324952,-0.0846550464630127
3994057889.0,-0.1661854833364486,-0.1294390112161636,9.53970432281494,1.5563082695007324,-0.6621024012565613,-0.0585797578096389
3994066222.0,-0.2954160273075104,-0.3740884959697723,9.63131332397461,1.5156840085983276,-0.8899153470993042,-0.1859849542379379
3994074555.0,-0.1555245816707611,-0.5603998899459839,9.50933074951172,1.5510443449020386,-1.1981953382492063,-0.188251793384552
3994082888.0,-0.0305904429405927,-0.3835639059543609,9.416866302490234,1.4790939092636108,-0.9890552759170532,0.0288416277617216
3994091221.0,-0.1718828231096267,-0.2104509472846985,9.487051963806152,1.437752604484558,-0.5059451460838318,0.0363978259265422
3994099554.0,-0.4195999801158905,-0.3206048011779785,9.609302520751951,1.4557594060897827,-0.6381658911705017,-0.18748340010643
3994107887.0,-0.3823274374008178,-0.4883281290531158,9.655038833618164,1.4986249208450315,-1.1674201488494873,-0.2450514286756515
3994116220.0,-0.1367169171571731,-0.3861232995986938,9.49788761138916,1.4870725870132446,-1.155099391937256,-0.0121411466971039
3994124553.0,-0.0829200074076652,-0.2156736999750137,9.494093894958496,1.4907357692718506,-0.8126372694969177,-0.0621401332318782
3994132886.0,-0.2619800269603729,-0.3052833080291748,9.569923400878906,1.396603226661682,-0.7888928055763245,-0.0211829710751771
3994141219.0,-0.2459470927715301,-0.5024470090866089,9.61080837249756,1.4567712545394895,-1.13214910030365,-0.2151339501142501
3994149552.0,-0.0551962405443191,-0.4607127904891968,9.470885276794434,1.564158916473389,-1.3255751132965088,-0.1088477000594139
3994157885.0,-0.0112585751339793,-0.1954728960990905,9.38000202178955,1.3899179697036743,-0.7469110488891602,0.075677253305912
3994166218.0,-0.2899189591407776,-0.2118314355611801,9.48777961730957,1.4391356706619265,-0.3633507192134857,0.1280711740255355
3994174551.0,-0.4930965602397918,-0.4875308275222778,9.68824577331543,1.4203863143920898,-0.8744572401046753,-0.2080260217189788
3994182884.0,-0.3286307752132416,-0.6055848598480225,9.653804779052734,1.5041958093643188,-1.3497035503387451,-0.170936569571495
3994191217.0,-0.0453035309910774,-0.340343564748764,9.527923583984377,1.466773509979248,-1.194148302078247,0.0872420743107795
3994199550.0,-0.0789929926395416,-0.1080260276794433,9.495567321777344,1.5835745334625244,-0.6716693639755249,-0.077162891626358
3994207883.0,-0.2706902921199798,-0.260450929403305,9.59799098968506,1.4989962577819824,-0.7931063175201416,-0.2191169708967209
3994216216.0,-0.2297417968511581,-0.5448713898658752,9.551286697387695,1.486240267753601,-1.1909722089767456,-0.0814660713076591
3994224549.0,-0.0666991248726844,-0.4784690141677856,9.42235279083252,1.4078223705291748,-1.0515668392181396,-0.0529190115630626
3994232882.0,-0.0874220579862594,-0.2180115282535553,9.41701889038086,1.4994701147079468,-0.6173286437988281,0.0157911758869886
3994241215.0,-0.3448171019554138,-0.2109301835298538,9.57668399810791,1.3989213705062866,-0.5618610382080078,-0.0805183500051498
3994249548.0,-0.4508366286754608,-0.4112295508384704,9.666376113891602,1.4134577512741089,-1.0163472890853882,-0.2447696477174759
3994257881.0,-0.1901333034038543,-0.4652597606182098,9.578779220581056,1.4444762468338013,-1.1584293842315674,-0.1355761438608169
3994266214.0,-0.0560854412615299,-0.2812640964984894,9.45055103302002,1.4102429151535034,-0.8917467594146729,-0.0708361640572547
3994274547.0,-0.1783919036388397,-0.2372168898582458,9.53591251373291,1.4475115537643433,-0.7061460614204407,-0.0844373255968093
3994282880.0,-0.3015117347240448,-0.4229103624820709,9.650842666625977,1.4204373359680176,-1.0756313800811768,-0.1372026354074478
3994291213.0,-0.1310143172740936,-0.5167714357376099,9.505001068115234,1.4867782592773438,-1.3511892557144165,-0.0934791341423988
3994299546.0,0.0221174955368042,-0.2818664014339447,9.380189895629885,1.3723081350326538,-1.0109299421310425,-0.0314414761960506
3994307879.0,-0.1332503110170364,-0.1511967927217483,9.42573070526123,1.3773415088653564,-0.4508617520332336,0.1012658774852752
3994316212.0,-0.4392560720443725,-0.3802594244480133,9.645408630371094,1.3968849182128906,-0.6251921653747559,-0.152814507484436
3994324545.0,-0.4229116141796112,-0.6665801405906677,9.6804780960083,1.4967421293258667,-1.1953010559082031,-0.3199858367443084
3994332878.0,-0.11853838711977,-0.4879977107048034,9.527203559875488,1.5167468786239624,-1.35482656955719,-0.158616155385971
3994341211.0,-0.0285106562077999,-0.1588923633098602,9.475157737731934,1.5086270570755005,-0.8630331754684448,0.0059681162238121
3994349544.0,-0.2151620388031005,-0.1665845662355423,9.57382869720459,1.5929492712020874,-0.6288422346115112,-0.1284938007593155
3994357877.0,-0.2836558818817138,-0.4287651479244232,9.588812828063965,1.56077778339386,-1.0316003561019895,-0.1872528493404388
3994366210.0,-0.1009601801633834,-0.5388662815093994,9.469109535217283,1.5415542125701904,-1.1570717096328735,-0.1208991631865501
3994374543.0,0.0015968676889315,-0.3228834867477417,9.405912399291992,1.4904922246932983,-0.8905172348022461,-0.1081304848194122
3994382876.0,-0.21420618891716,-0.2025256007909774,9.491636276245115,1.4980485439300537,-0.429589182138443,-0.0919422954320907
3994391209.0,-0.4616403579711914,-0.3269093036651611,9.655288696289062,1.5492514371871948,-0.6446462273597717,-0.2477792799472808
3994399542.0,-0.3356825411319732,-0.4810381233692169,9.608238220214844,1.557729721069336,-1.11410391330719,-0.1850756555795669
3994407875.0,-0.1102737486362457,-0.371333360671997,9.50662326812744,1.4662483930587769,-1.1173441410064695,-0.0292514562606811
3994416208.0,-0.1375920921564102,-0.219012901186943,9.49657917022705,1.4744962453842163,-0.7216554880142212,0.017507329583168
3994424541.0,-0.3151586651802063,-0.3199637532234192,9.599993705749512,1.4477548599243164,-0.8752896189689636,-0.0535337477922439
3994432874.0,-0.2437146455049514,-0.5191579461097717,9.59000301361084,1.5697810649871826,-1.2140377759933472,-0.1445411145687103
3994441207.0,0.0159027893096208,-0.4103098213672638,9.45285701751709,1.5664258003234863,-1.1561239957809448,-0.0144464271143078
3994449540.0,0.0122957369312644,-0.1643365621566772,9.384794235229492,1.479029893875122,-0.6742434501647949,-0.0261521320790052
3994457873.0,-0.2939890027046203,-0.2471450269222259,9.523058891296388,1.4069771766662598,-0.4248121380805969,-0.1103717386722564
3994466206.0,-0.4803467392921448,-0.5651059150695801,9.714395523071287,1.5547969341278076,-0.988248348236084,-0.1648020148277282
3994474539.0,-0.25871342420578,-0.5958999395370483,9.589245796203612,1.5358808040618896,-1.3502415418624878,-0.0492177531123161
3994482872.0,-0.0182210598140954,-0.2634393572807312,9.446622848510742,1.5325764417648315,-1.1266037225723269,-0.0654827952384948
3994491205.0,-0.1273206025362014,-0.1016919687390327,9.488446235656738,1.4167745113372805,-0.6269980072975159,-0.0610771402716636
3994499538.0,-0.3222343325614929,-0.2976972758769989,9.58224868774414,1.4878796339035034,-0.777174174785614,-0.220346450805664
3994507871.0,-0.2020848393440246,-0.559264600276947,9.521235466003418,1.444949984550476,-1.305851936340332,-0.2636857032775879
3994516204.0,-0.0111316125839948,-0.4422268867492676,9.41438102722168,1.5047338008880615,-1.059443116188049,-0.0006531629478558
3994524537.0,-0.0827298015356063,-0.1920323818922042,9.44086742401123,1.5212421417236328,-0.6461446285247803,0.0358471199870109
3994532870.0,-0.3530786037445068,-0.2072250694036483,9.59280776977539,1.500443458557129,-0.5163061022758484,-0.0721296817064285
3994541203.0,-0.4312085509300232,-0.4350962042808532,9.671693801879885,1.496498942375183,-0.9694987535476683,-0.2776070535182953
3994549536.0,-0.1924253702163696,-0.4429700970649719,9.547408103942873,1.4712815284729004,-1.1929444074630735,-0.2165555357933044
3994557869.0,-0.0713066905736923,-0.2578528225421905,9.44239616394043,1.3581180572509766,-0.7312480211257935,-0.0545198991894722
3994566202.0,-0.2416301816701889,-0.2673518061637878,9.55735683441162,1.4644938707351685,-0.7285328507423401,-0.1311064511537552
3994574535.0,-0.2974785268306732,-0.4688906669616699,9.633877754211426,1.3951561450958252,-1.0358011722564695,-0.1624839007854461
3994582868.0,-0.0979041159152984,-0.4917031824588775,9.51523208618164,1.4749444723129272,-1.26776385307312,-0.1727551966905594
3994591201.0,0.0465636886656284,-0.2214239984750747,9.385061264038086,1.401687741279602,-0.9755821824073792,-0.0817734375596046
3994599534.0,-0.1396592259407043,-0.141612023115158,9.453778266906738,1.4601905345916748,-0.516575038433075,-0.0706568658351898
3994607867.0,-0.4449855089187622,-0.4169034659862518,9.659341812133787,1.3517656326293943,-0.6298924088478088,-0.1442209333181381
3994616200.0,-0.3920302093029022,-0.6742238998413086,9.664363861083984,1.5129817724227903,-1.2521134614944458,-0.2467803657054901
3994624533.0,-0.1142149493098259,-0.4822099208831787,9.48169994354248,1.51761794090271,-1.118740200996399,-0.1151744127273559
3994632866.0,-0.0964533984661102,-0.118717685341835,9.503849983215332,1.655371069908142,-0.8154163360595703,0.0094260377809405
3994641199.0,-0.2908059954643249,-0.157240942120552,9.608485221862791,1.551748752593994,-0.6095163822174072,-0.1854214668273925
3994649532.0,-0.3053484857082367,-0.4533093571662903,9.585028648376465,1.5383014678955078,-1.21818745136261,-0.2935903668403625
3994657865.0,-0.0769191831350326,-0.5228936076164246,9.44482135772705,1.5492000579833984,-1.2664830684661863,-0.1464749872684478
3994666198.0,0.0475473217666149,-0.2746510505676269,9.366411209106444,1.4434388875961304,-0.9293484091758728,-0.0639971643686294
3994674531.0,-0.2100647240877151,-0.2064524739980697,9.538265228271484,1.5259937047958374,-0.395086795091629,-0.0549809522926807
3994682864.0,-0.4472671747207641,-0.3725273311138153,9.673413276672363,1.4255088567733765,-0.6934413909912109,-0.1728576421737671
3994691197.0,-0.3392662703990936,-0.4869448840618133,9.612528800964355,1.578323483467102,-1.1649994850158691,-0.0937352925539016
3994699530.0,-0.1273746341466903,-0.3221784234046936,9.465892791748049,1.4703980684280396,-1.0128892660140991,-0.0328630656003952
3994707863.0,-0.1693227291107177,-0.2107822746038437,9.509858131408691,1.575595498085022,-0.758719265460968,0.0461440421640872
3994716196.0,-0.3341094255447387,-0.3671927452087402,9.61761474609375,1.446448564529419,-0.9265692830085754,-0.1286603063344955
3994724529.0,-0.2160225510597229,-0.5505625605583191,9.568467140197754,1.5752497911453247,-1.2290093898773191,-0.1399946063756942
3994732862.0,0.0560378693044185,-0.3708256185054779,9.42314910888672,1.4759689569473269,-1.1457886695861816,-0.080979399383068
3994741195.0,0.0166017487645149,-0.1475846022367477,9.411524772644045,1.479478359222412,-0.5616561770439148,-0.1013427227735519
3994749528.0,-0.3151184916496277,-0.2799980342388153,9.559359550476074,1.5214853286743164,-0.4041797816753387,-0.1747787147760391
3994757861.0,-0.4564243257045746,-0.5894312262535095,9.694765090942385,1.504170298576355,-0.9783484935760498,-0.1975497752428054
3994766194.0,-0.2391902953386306,-0.594851016998291,9.563833236694336,1.6504530906677246,-1.350344181060791,-0.1021623760461807
3994774527.0,-0.0461628325283527,-0.2761465907096863,9.485315322875977,1.4339743852615356,-1.0101741552352903,0.1069778427481651
3994782860.0,-0.1904373466968536,-0.1244808807969093,9.527557373046877,1.5088704824447632,-0.5829799771308899,-0.1214114725589752
3994791193.0,-0.3118301331996918,-0.3620455861091614,9.59161376953125,1.484575629234314,-0.9831640124320984,-0.1896862238645553
3994799526.0,-0.1575827896595001,-0.5509309768676758,9.51303482055664,1.5460880994796753,-1.3363202810287476,-0.2049650996923446
3994807859.0,0.0104383807629346,-0.3827553987503052,9.408093452453612,1.482974648475647,-1.105587124824524,-0.0934407263994216
3994816192.0,-0.0885235518217086,-0.1900152415037155,9.474239349365234,1.534856200218201,-0.5272049903869629,0.0407522469758987
3994824525.0,-0.354573518037796,-0.272895336151123,9.640166282653809,1.414674162864685,-0.5879875421524048,-0.1453223675489425
3994832858.0,-0.3832214176654815,-0.4500223100185394,9.617867469787598,1.4389307498931885,-1.076707124710083,-0.2088968753814697
3994841191.0,-0.1833178848028183,-0.4202679097652435,9.530787467956545,1.416275143623352,-1.2050472497940063,-0.004226348362863
3994849524.0,-0.146897941827774,-0.2381181418895721,9.504511833190918,1.3834631443023682,-0.8438096642494202,0.1482679843902588
3994857857.0,-0.2833955883979797,-0.2805774807929992,9.598830223083496,1.3828483819961548,-0.772346019744873,-0.1227690204977989
3994866190.0,-0.26442551612854,-0.4800101816654205,9.608736991882324,1.2913416624069214,-1.0783720016479492,-0.1796454340219497
3994874523.0,-0.0315933637320995,-0.4623967409133911,9.473220825195312,1.4833714962005615,-1.2063151597976685,-0.1493950337171554
3994882856.0,0.0343908704817295,-0.2123536020517349,9.42311191558838,1.4738047122955322,-0.7785190343856812,-0.0272279307246208
3994891189.0,-0.1999147832393646,-0.1957733482122421,9.493340492248535,1.3634328842163086,-0.4321889877319336,-0.0566843077540397
3994899522.0,-0.4369828999042511,-0.4891332685947418,9.680554389953612,1.54487144947052,-0.748332679271698,-0.2799763977527618
3994907855.0,-0.3190686404705047,-0.6231711506843567,9.63299560546875,1.516669988632202,-1.1771661043167114,-0.1081560999155044
3994916188.0,-0.1049902290105819,-0.3529192507266998,9.533687591552734,1.4590378999710083,-1.095738410949707,-0.0249098408967256
3994924521.0,-0.1281163543462753,-0.1092937961220741,9.514025688171388,1.5467156171798706,-0.7642391324043274,-0.0930180996656417
3994932854.0,-0.3069633245468139,-0.2441741973161697,9.6126708984375,1.5167982578277588,-0.8116767406463623,-0.0725011005997657
3994941187.0,-0.2143902033567428,-0.5342884659767151,9.529866218566896,1.598661184310913,-1.2119503021240234,-0.204593688249588
3994949520.0,0.0002351836301386,-0.4726438820362091,9.389113426208496,1.4981251955032349,-1.2174829244613647,-0.0205810386687517
3994957853.0,-0.0738030299544334,-0.2553278803825378,9.448104858398438,1.5454219579696655,-0.6475790739059448,-0.0579906292259693
3994966186.0,-0.3258377015590668,-0.2193128317594528,9.62111759185791,1.629244685173035,-0.4960581362247467,-0.049473900347948
3994974519.0,-0.4593822956085205,-0.4117968380451202,9.679916381835938,1.4716401100158691,-0.9623908400535583,-0.1745738089084625
3994982852.0,-0.233002707362175,-0.43505859375,9.529393196105955,1.433026909828186,-1.192906141281128,-0.2295291572809219
3994991185.0,-0.105813093483448,-0.2632839977741241,9.437771797180176,1.4484210014343262,-0.8814114928245544,-0.0783027186989784
3994999518.0,-0.2218811810016632,-0.2688038349151611,9.538544654846191,1.444412350654602,-0.7557864189147949,-0.0987812951207161
3995007851.0,-0.3032591938972473,-0.47560715675354,9.638422966003418,1.52696692943573,-1.0294744968414309,-0.2221394479274749
3995016184.0,-0.0951908901333808,-0.5056493878364563,9.522336959838867,1.5556166172027588,-1.2616806030273438,-0.098230592906475
3995024517.0,0.0721125751733779,-0.248598575592041,9.40870189666748,1.4638278484344482,-0.8517116904258728,0.0518688224256038
3995032850.0,-0.1212621554732322,-0.1540078818798065,9.489112854003906,1.3756893873214722,-0.4354548454284668,0.0239749271422624
3995041183.0,-0.4251506924629211,-0.4037565290927887,9.639443397521973,1.464788556098938,-0.6586700677871704,-0.0894961357116699
3995049516.0,-0.3952701389789581,-0.6530235409736633,9.647642135620115,1.4356648921966553,-1.1538187265396118,-0.2424643337726593
3995057849.0,-0.1329474449157714,-0.4646405279636383,9.512167930603027,1.474726915359497,-1.221901535987854,0.0257551167160272
3995066182.0,-0.0996488332748413,-0.1592413783073425,9.479657173156738,1.5035812854766846,-0.837956964969635,-0.0468100160360336
3995074515.0,-0.2497844249010086,-0.1775478720664978,9.557199478149414,1.4814248085021973,-0.7229489684104919,-0.1167368739843368
3995082848.0,-0.262704849243164,-0.4478254020214081,9.583233833312988,1.4883407354354858,-1.106752634048462,-0.2299261838197708
3995091181.0,-0.0461025312542915,-0.5037015080451965,9.482930183410645,1.5576270818710327,-1.290688395500183,-0.1004462093114852
3995099514.0,0.010290284641087,-0.2772644162178039,9.433873176574709,1.524764060974121,-0.7146243453025818,0.067262977361679
3995107847.0,-0.2393984943628311,-0.2051864564418792,9.571105003356934,1.5191800594329834,-0.356332391500473,-0.0125637808814644
3995116180.0,-0.4293993413448334,-0.3822337388992309,9.673820495605469,1.4544401168823242,-0.6808518767356873,-0.2516854703426361
3995124513.0,-0.287618339061737,-0.4607910811901092,9.576374053955078,1.5213191509246826,-1.238166570663452,-0.1373691409826278
3995132846.0,-0.1331050097942352,-0.2872482538223266,9.493573188781738,1.5297333002090454,-1.03948974609375,-0.0959381163120269
3995141179.0,-0.1750014573335647,-0.2122606188058853,9.535311698913574,1.3187488317489624,-0.8115229606628418,-0.0507802180945873
3995149512.0,-0.316901683807373,-0.3751332759857178,9.629837989807127,1.4548757076263428,-0.9976232051849364,-0.3428209125995636
3995157845.0,-0.1630226522684097,-0.5219247341156006,9.571271896362305,1.5655163526535034,-1.2778301239013672,-0.1604859828948974
3995166178.0,0.0448340252041816,-0.3461211025714874,9.407926559448242,1.4560155868530271,-1.0804212093353271,0.0223612282425165
3995174511.0,-0.0447410754859447,-0.1405676752328872,9.395303726196287,1.3866649866104126,-0.5868220925331116,0.0846678540110588
3995182844.0,-0.3582286834716797,-0.3289449512958526,9.589472770690918,1.4192335605621338,-0.5145260095596313,-0.1306710392236709
3995191177.0,-0.43234583735466,-0.5743598341941833,9.664271354675291,1.5121619701385498,-1.081215262413025,-0.2064635306596756
3995199510.0,-0.1914885938167572,-0.4972341656684875,9.514211654663086,1.36882483959198,-1.291866898536682,-0.0412261113524436
3995207843.0,-0.0751426517963409,-0.1862362027168274,9.484983444213867,1.3751513957977295,-0.99525386095047,-0.0050075827166438
3995216176.0,-0.2115382254123687,-0.1598802953958511,9.570009231567385,1.5091265439987185,-0.7279309630393982,-0.0888557806611061
3995224509.0,-0.2914651930332184,-0.430849552154541,9.589648246765137,1.538915991783142,-1.0914736986160278,-0.3237895369529724
3995232842.0,-0.0814917534589767,-0.5360898971557617,9.464808464050291,1.3528542518615725,-1.296951174736023,-0.2400053739547729
3995241175.0,0.0249160267412662,-0.3288240134716034,9.390796661376951,1.4343329668045044,-1.0391693115234375,-0.0391129367053508
3995249508.0,-0.1828767359256744,-0.1871612817049026,9.480106353759766,1.461356282234192,-0.5968629121780396,-0.0464386083185672
3995257841.0,-0.3952875733375549,-0.3518125712871551,9.640165328979492,1.370681643486023,-0.7824123501777649,-0.3320629298686981
3995266174.0,-0.3267090618610382,-0.4769283235073089,9.607148170471191,1.546011209487915,-1.1699045896530151,-0.1029179990291595
3995274507.0,-0.1226034015417099,-0.3842623233795166,9.48051643371582,1.466299533843994,-1.01481032371521,-0.0238980781286954
3995282840.0,-0.163606971502304,-0.2730383276939392,9.509283065795898,1.413675308227539,-0.7006902098655701,-0.0992423593997955
3995291173.0,-0.2955769300460815,-0.3815183341503143,9.599565505981444,1.4266104698181152,-0.8476133942604065,-0.1648404002189636
3995299506.0,-0.2097609043121338,-0.546177864074707,9.60097599029541,1.4788377285003662,-1.265586495399475,-0.1999062746763229
3995307839.0,0.0256470758467912,-0.4235537648200989,9.412728309631348,1.5257502794265747,-1.2430075407028198,0.0576960630714893
3995316172.0,0.0081113297492265,-0.2080333083868026,9.41282081604004,1.4497145414352417,-0.6223105788230896,-0.0252428278326988
3995324505.0,-0.2917859852313995,-0.3232583999633789,9.575359344482422,1.4646990299224854,-0.3511839807033539,-0.1145084425806999
3995332838.0,-0.4112395644187927,-0.6048877835273743,9.66905403137207,1.484857201576233,-0.9088059067726136,-0.2315142750740051
3995341171.0,-0.2387299239635467,-0.5972360968589783,9.56218147277832,1.6095985174179075,-1.2305463552474976,-0.1740103214979171
3995349504.0,-0.094982624053955,-0.3018635213375091,9.45754337310791,1.57964289188385,-0.9840477705001832,-0.0099383248016238
3995357837.0,-0.225383311510086,-0.1440336853265762,9.563054084777832,1.587122082710266,-0.7156105637550354,-0.0512797012925148
3995366170.0,-0.3305808007717132,-0.3934977352619171,9.618227005004885,1.4567071199417114,-0.8677718043327332,-0.2188864350318908
3995374503.0,-0.16314098238945,-0.5629567503929138,9.522027969360352,1.4990605115890503,-1.3464634418487549,-0.143157958984375
3995382836.0,-0.0166063085198402,-0.3545311987400055,9.414886474609377,1.530411958694458,-0.9461129903793336,0.0360520333051681
3995391169.0,-0.140531912446022,-0.2026257365942001,9.49213695526123,1.4323351383209229,-0.4963782429695129,0.0211189351975917
3995399502.0,-0.3888571560382843,-0.2839463651180267,9.598763465881348,1.4480366706848145,-0.5865147113800049,-0.0278170574456453
3995407835.0,-0.3690758347511291,-0.472049742937088,9.618465423583984,1.62508225440979,-1.1029489040374756,-0.1785055994987487
3995416168.0,-0.1949231773614883,-0.3921242356300354,9.490982055664062,1.5739306211471558,-1.1785109043121338,-0.1179791688919067
3995424501.0,-0.185467392206192,-0.2403391748666763,9.50185489654541,1.5465874671936035,-0.8516348600387573,-0.0676599964499473
3995432834.0,-0.3355687856674194,-0.2762843668460846,9.589221000671388,1.5745197534561155,-0.8342300057411194,-0.1638030260801315
3995441167.0,-0.2521621286869049,-0.4568197131156921,9.62163257598877,1.5101512670516968,-1.2224392890930176,-0.2329358458518982
3995449500.0,0.0127998851239681,-0.3922076821327209,9.472811698913574,1.4959867000579834,-1.330454707145691,-0.2012766748666763
3995457833.0,0.0671702176332473,-0.1642197966575622,9.409778594970703,1.5216007232666016,-0.7876632809638977,-0.0430575273931026
3995466166.0,-0.2076541781425476,-0.2220814675092697,9.507065773010254,1.3895081281661987,-0.4330342411994934,0.0105146430432796
3995474499.0,-0.4061982631683349,-0.5178787708282471,9.660041809082031,1.476711630821228,-0.8263279795646667,-0.1935027092695236
3995482832.0,-0.276789128780365,-0.5495048761367798,9.584875106811523,1.4911582469940186,-1.1822633743286133,-0.1197849661111831
3995491165.0,-0.1019187197089195,-0.2554463446140289,9.495036125183104,1.6196393966674805,-1.0354169607162476,0.0263826623558998
3995499498.0,-0.1657104641199112,-0.091143675148487,9.54028606414795,1.4827953577041626,-0.798703134059906,-0.0087856827303767
3995507831.0,-0.3048374950885772,-0.2766083180904388,9.583451271057127,1.4557209014892578,-0.8792341947555542,-0.3060132563114166
3995516164.0,-0.1832596510648727,-0.5187748670578003,9.53342056274414,1.5577170848846436,-1.1331226825714111,-0.2142630964517593
3995524497.0,0.0150189809501171,-0.3727214634418487,9.389769554138184,1.491913914680481,-1.0474427938461304,-0.0994856804609298
3995532830.0,-0.1003115028142929,-0.1749657094478607,9.45603084564209,1.5112909078598022,-0.5265901684761047,0.0418024249374866
3995541163.0,-0.3528640568256378,-0.2491406798362732,9.608585357666016,1.3997410535812378,-0.6214013695716858,-0.0315311253070831
3995549496.0,-0.3770625591278076,-0.428269475698471,9.630549430847168,1.4559770822525024,-1.139474868774414,-0.1331427842378616
3995557829.0,-0.1815998554229736,-0.3787556290626526,9.50230598449707,1.3793394565582275,-1.0534367561340332,-0.0944396927952766
3995566162.0,-0.143221378326416,-0.2253860831260681,9.467116355895996,1.3595778942108154,-0.8493039608001709,-0.0244231726974248
3995574495.0,-0.2893469035625458,-0.2953050434589386,9.577590942382812,1.3923896551132202,-0.8067587614059448,-0.165275827050209
3995582828.0,-0.2784371972084045,-0.5186830759048462,9.627408981323242,1.4360363483428955,-1.1871813535690308,-0.1972936242818832
3995591161.0,-0.0708445161581039,-0.4652658402919769,9.469907760620115,1.386857271194458,-1.2446597814559937,-0.1163526624441146
3995599494.0,0.0210365112870931,-0.2030620574951172,9.398963928222656,1.396103858947754,-0.7512527108192444,0.0665457770228385
3995607827.0,-0.2335903793573379,-0.2170029282569885,9.527621269226074,1.3375753164291382,-0.4849670827388763,0.0389080233871936
3995616160.0,-0.4242279529571533,-0.5120648741722107,9.640287399291992,1.4506878852844238,-0.6843739748001099,-0.1523150503635406
3995624493.0,-0.2923440635204315,-0.6247408390045166,9.612767219543455,1.5418232679367063,-1.1854650974273682,-0.1560291051864624
3995632826.0,-0.0814857482910156,-0.3779555559158325,9.501276969909668,1.614017128944397,-1.0641690492630005,0.012384483590722
3995641159.0,-0.1428279727697372,-0.1889351904392242,9.558680534362791,1.4986759424209597,-0.7330280542373657,0.0258575677871704
3995649492.0,-0.2901218235492706,-0.3418517708778381,9.624964714050291,1.4516611099243164,-0.905911386013031,-0.2004441916942596
3995657825.0,-0.1943435072898864,-0.5667416453361511,9.54500961303711,1.5089857578277588,-1.2833627462387085,-0.2629173099994659
3995666158.0,-0.0062453537248075,-0.453238308429718,9.42202854156494,1.3886500597000122,-1.1383349895477295,-0.0615381971001625
3995674491.0,-0.0898611694574356,-0.2625308036804199,9.469820022583008,1.481245517730713,-0.6049185395240784,-0.0089777894318103
3995682824.0,-0.3285943567752838,-0.2979302704334259,9.607749938964844,1.5036323070526123,-0.584401547908783,-0.2038252800703048
3995691157.0,-0.3733526766300201,-0.4859420359134674,9.668619155883787,1.523662567138672,-1.0125178098678589,-0.2480354458093643
3995699490.0,-0.2056258022785186,-0.4595407843589782,9.506181716918944,1.479170799255371,-1.0871833562850952,0.0160345118492841
3995707823.0,-0.1294950693845749,-0.2964352965354919,9.458148002624512,1.4145972728729248,-0.761037290096283,-0.0270102098584175
3995716156.0,-0.274556428194046,-0.321361094713211,9.593299865722656,1.4892499446868896,-0.782386839389801,-0.1466158777475357
3995724489.0,-0.2992826998233795,-0.5006487369537354,9.59168529510498,1.5211398601531982,-1.1761032342910769,-0.1511496007442474
3995732822.0,-0.0545264445245265,-0.4927321672439575,9.4766845703125,1.5409010648727417,-1.3181214332580566,-0.1768791079521179
3995741155.0,0.0699019730091095,-0.2488658428192138,9.388665199279783,1.475162148475647,-0.8352033495903015,0.0796218439936637
3995749488.0,-0.1772688627243042,-0.2343057245016098,9.45065212249756,1.5061553716659546,-0.4474806785583496,-0.0754339173436164
3995757821.0,-0.4229690730571747,-0.4978378713130951,9.631954193115234,1.514377474784851,-0.6733213663101196,-0.1937716752290725
3995766154.0,-0.3470075130462646,-0.6171582937240601,9.595419883728027,1.5530166625976562,-1.2024985551834106,-0.1407117992639541
3995774487.0,-0.1291039884090423,-0.3660298883914947,9.476497650146484,1.700861930847168,-1.137438416481018,-0.0506521500647068
3995782820.0,-0.1772894859313964,-0.1131472513079643,9.519390106201172,1.5778625011444092,-0.8177729845046997,0.0289184749126434
3995791153.0,-0.2968448996543884,-0.2642571628093719,9.599724769592283,1.5310908555984497,-0.8386996984481812,-0.1738310009241104
3995799486.0,-0.2224787771701812,-0.5084141492843628,9.552984237670898,1.5359063148498535,-1.1875399351119995,-0.2553610801696777
3995807819.0,-0.017639897763729,-0.4147267639636993,9.405272483825684,1.6140427589416504,-1.0220338106155396,0.006108995527029
3995816152.0,-0.0460786148905754,-0.1895288825035095,9.421295166015623,1.4661715030670166,-0.6089783906936646,-0.0207475293427705
3995824485.0,-0.3147751688957214,-0.1970465183258056,9.607048034667969,1.5657342672348022,-0.5771399736404419,-0.0885227918624877
3995832818.0,-0.4048393666744232,-0.37141153216362,9.66148853302002,1.5759541988372805,-1.018524408340454,-0.1911334097385406
3995841151.0,-0.2135425806045532,-0.3942477703094482,9.545805931091309,1.4820266962051392,-1.2397801876068115,-0.0882666483521461
3995849484.0,-0.130532294511795,-0.236069455742836,9.469255447387695,1.442978024482727,-0.9022486805915833,-0.0851032957434654
3995857817.0,-0.2602991163730621,-0.2034053951501846,9.58217716217041,1.4049023389816284,-0.6759596467018127,-0.1455144584178924
3995866150.0,-0.3276165127754211,-0.4050633013248443,9.634084701538086,1.504490613937378,-1.0986714363098145,-0.1351407170295715
3995874483.0,-0.0903618782758712,-0.455928087234497,9.511031150817873,1.5196667909622192,-1.1628990173339844,-0.2446543574333191
3995882816.0,0.0361326448619365,-0.200792133808136,9.420300483703612,1.4892244338989258,-1.028770089149475,-0.0063523300923407
3995891149.0,-0.1345306634902954,-0.1267197728157043,9.484119415283203,1.396539330482483,-0.4646806120872497,-0.0210933219641447
3995899482.0,-0.4052086770534515,-0.3886353075504303,9.646323204040527,1.3793776035308838,-0.5917784571647644,-0.272445797920227
3995907815.0,-0.3661390244960785,-0.576435923576355,9.62881851196289,1.4281474351882937,-0.97371244430542,-0.1511368155479431
3995916148.0,-0.142661452293396,-0.3768925070762634,9.5339994430542,1.4718067646026611,-1.222029447555542,0.0185575131326913
3995924481.0,-0.1243092864751815,-0.1295594424009323,9.513189315795898,1.433897614479065,-0.7870229482650757,0.0479370430111885
3995932814.0,-0.2557571828365326,-0.2007372826337814,9.613956451416016,1.3986525535583496,-0.8143277764320374,-0.2447696477174759
3995941147.0,-0.2594897449016571,-0.4779913127422333,9.608159065246582,1.5652986764907837,-1.1856317520141602,-0.2603431046009063
3995949480.0,-0.03955914452672,-0.4635844230651855,9.42556381225586,1.4527240991592407,-1.1679835319519043,0.0104890279471874
3995957813.0,-0.0264011435210704,-0.2447988986968994,9.43728256225586,1.4726903438568115,-0.6797120571136475,-0.0595146752893924
3995966146.0,-0.2701127827167511,-0.2158227711915969,9.57448959350586,1.3356670141220093,-0.5714023113250732,-0.0835024043917656
3995974479.0,-0.4050339758396148,-0.4053214490413666,9.641566276550291,1.4377652406692505,-0.8852022886276245,-0.1498944908380508
3995982812.0,-0.2706071138381958,-0.4838544130325317,9.55926513671875,1.4391487836837769,-1.182225227355957,-0.0396764576435089
3995991145.0,-0.1507604718208313,-0.3363266885280609,9.486021995544434,1.3707075119018557,-0.915657639503479,-0.0087856827303767
3995999478.0,-0.2462580651044845,-0.2734102308750152,9.537556648254396,1.483230710029602,-0.757003128528595,-0.0140622137114405
3996007811.0,-0.3383519649505615,-0.4641771614551544,9.624322891235352,1.443003535270691,-1.0720709562301636,-0.2297212183475494
3996016144.0,-0.1260566264390945,-0.5507446527481079,9.536767959594728,1.4614843130111694,-1.419899582862854,-0.1875474154949188
3996024477.0,0.0720281451940536,-0.3196006119251251,9.37709140777588,1.417863130569458,-1.0456242561340332,0.0201712101697921
3996032810.0,-0.0663641020655632,-0.201731652021408,9.438520431518556,1.4098330736160278,-0.4888092577457428,0.0305833965539932
3996041143.0,-0.3421418368816376,-0.4476607739925384,9.61960220336914,1.4242284297943115,-0.5152688026428223,-0.1582831591367721
3996049476.0,-0.3809263408184051,-0.6632325053215027,9.63626766204834,1.4034167528152466,-1.0815098285675049,-0.2321161925792694
3996057809.0,-0.1707335710525512,-0.51749587059021,9.514806747436523,1.4807205200195312,-1.0824064016342163,-0.039317850023508
3996066142.0,-0.1184653863310813,-0.2069961279630661,9.48943328857422,1.4210264682769775,-0.7762522101402283,0.1071699559688568
3996074475.0,-0.2915817201137543,-0.2097443789243698,9.574400901794434,1.5132120847702026,-0.7279181480407715,-0.0994216501712799
3996082808.0,-0.2953206300735473,-0.5056827664375305,9.587509155273438,1.5120850801467896,-1.249577522277832,-0.2829476296901703
3996091141.0,-0.0402746386826038,-0.5475950837135315,9.456111907958984,1.515594482421875,-1.2056238651275637,-0.1396872401237487
3996099474.0,0.0365063250064849,-0.3245553374290466,9.389558792114258,1.5840100049972534,-0.7628560066223145,0.0035091505851596
3996107807.0,-0.2021393477916717,-0.2382826507091522,9.529332160949709,1.5064499378204346,-0.4747982621192932,-0.0827211737632751
3996116140.0,-0.3624417185783386,-0.4006665050983429,9.657504081726074,1.482846736907959,-0.7070809602737427,-0.1988177150487899
3996124473.0,-0.2465523332357406,-0.4754400849342346,9.588129997253418,1.4936559200286863,-1.1023600101470947,-0.1344235092401504
3996132806.0,-0.1358642727136612,-0.3034782707691192,9.449097633361816,1.4435926675796509,-0.9978921413421632,-0.0571837797760963
3996141139.0,-0.229470357298851,-0.2553922533988952,9.550640106201172,1.4737788438796997,-0.7488577365875244,0.0912507027387619
3996149472.0,-0.3524178266525268,-0.4181089103221893,9.644949913024902,1.5500582456588743,-0.914274513721466,-0.214391142129898
3996157805.0,-0.1832917332649231,-0.5205727219581604,9.538656234741213,1.570549488067627,-1.2670849561691284,-0.1846273988485336
3996166138.0,0.022725511342287,-0.3145375251770019,9.424254417419434,1.5433346033096311,-1.2205311059951782,0.0183654092252254
3996174471.0,-0.0639132261276245,-0.145494133234024,9.4434814453125,1.5663360357284546,-0.6305840611457825,0.0093748103827238
3996182804.0,-0.3558324873447418,-0.3262554705142975,9.584880828857422,1.4851901531219482,-0.4977230429649353,-0.2271085977554321
3996191137.0,-0.4186190068721771,-0.5665558576583862,9.649527549743652,1.4773266315460205,-0.9324988722801208,-0.1662491858005523
3996199470.0,-0.1925798505544662,-0.4738829433917999,9.529325485229492,1.669253945350647,-1.1637187004089355,-0.175700843334198
3996207803.0,-0.084790825843811,-0.1757883578538894,9.47577953338623,1.6000443696975708,-0.8996615409851074,-0.0947598591446876
3996216136.0,-0.2278244793415069,-0.1065624058246612,9.561274528503418,1.5289266109466553,-0.7210919857025146,-0.079762727022171
3996224469.0,-0.3000276684761047,-0.381525844335556,9.594934463500977,1.4248173236846924,-1.1053438186645508,-0.1298513561487198
3996232802.0,-0.1090243086218833,-0.4586953520774841,9.4977388381958,1.5276072025299072,-1.2529842853546145,-0.0958868861198425
3996241135.0,0.0019676710944622,-0.2715501487255096,9.407306671142578,1.5310651063919067,-0.9351627230644226,0.0649576932191848
3996249468.0,-0.2038631737232208,-0.1328855156898498,9.51616382598877,1.4723705053329468,-0.5739638209342957,-0.0873445495963096
3996257801.0,-0.3916197717189789,-0.2877665162086487,9.639721870422363,1.4757000207901,-0.8019559979438782,-0.1374972015619278
3996266134.0,-0.3138047158718109,-0.4389285743236542,9.574825286865234,1.4478830099105835,-1.2033311128616333,-0.25519460439682
3996274467.0,-0.1085183098912239,-0.3007884621620178,9.459733963012695,1.4235750436782837,-1.043088436126709,-0.0533800646662712
3996282800.0,-0.1392944604158401,-0.1853087097406387,9.500927925109863,1.4797598123550415,-0.7191067337989807,-0.0384853854775428
3996291133.0,-0.303160548210144,-0.3183559477329254,9.631792068481444,1.4482288360595703,-0.8822438716888428,-0.1633291691541671
3996299466.0,-0.2018346935510635,-0.4932430982589721,9.59950065612793,1.3948742151260376,-1.1604399681091309,-0.1721404492855072
3996307799.0,0.046972993761301,-0.3654977679252624,9.45521354675293,1.466517448425293,-1.166049599647522,-0.1003693789243698
3996316132.0,-0.0090912636369466,-0.146347165107727,9.409064292907717,1.520358681678772,-0.6522024869918823,-0.032850258052349
3996324465.0,-0.313602089881897,-0.2690971195697784,9.589444160461426,1.4473450183868408,-0.4439458847045898,0.0603599362075328
3996332798.0,-0.4499533772468567,-0.5729021430015564,9.643202781677246,1.4995598793029783,-0.9802184104919434,-0.2824865877628326
3996341131.0,-0.2198868542909622,-0.5488630533218384,9.586283683776855,1.4996494054794312,-1.3165459632873535,-0.1359347403049469
3996349464.0,-0.0591311417520046,-0.2595134973526001,9.48331069946289,1.518885612487793,-0.9821777939796448,-0.0675703510642051
3996357797.0,-0.1783418357372284,-0.1408537775278091,9.53719997406006,1.4180808067321775,-0.7724612951278687,-0.1001900807023048
3996366130.0,-0.293416827917099,-0.392412006855011,9.601123809814451,1.355479717254639,-0.9341126680374146,-0.1744201481342315
3996374463.0,-0.131638765335083,-0.5728858113288879,9.528658866882324,1.3437995910644531,-1.3491145372390747,-0.1401226669549942
3996382796.0,0.0247879941016435,-0.394586980342865,9.377911567687988,1.487405776977539,-1.0630162954330444,0.0455549135804176
3996391129.0,-0.1473414152860641,-0.2311441153287887,9.45813274383545,1.352636456489563,-0.5355295538902283,0.0288928542286157
3996399462.0,-0.3813538253307342,-0.3144818842411041,9.615716934204102,1.4830385446548462,-0.6551224589347839,-0.1466799229383468
3996407795.0,-0.3636947274208069,-0.4743515253067016,9.655617713928224,1.4553624391555786,-1.1217498779296875,-0.2270189821720123
3996416128.0,-0.1821347177028656,-0.453161746263504,9.527965545654297,1.383540153503418,-1.1386041641235352,-0.1143931820988655
3996424461.0,-0.1529492437839508,-0.2815859615802765,9.490857124328612,1.377264380455017,-0.784615159034729,-0.096924252808094
3996432794.0,-0.3214416205883026,-0.3511402010917663,9.589308738708496,1.3871004581451416,-0.6681985855102539,-0.0909305289387703
3996441127.0,-0.2944480180740356,-0.5444865822792053,9.607617378234863,1.448933243751526,-1.1522821187973022,-0.1926446706056594
3996449460.0,-0.0071029253304004,-0.4810177385807037,9.460168838500977,1.5364313125610352,-1.3004858493804932,-0.0015624682419002
3996457793.0,0.0568629205226898,-0.2123057395219802,9.362650871276855,1.5766717195510864,-0.8350498080253601,0.0071847937069833
3996466126.0,-0.2129687517881393,-0.220143049955368,9.524818420410156,1.508217453956604,-0.4512331485748291,-0.0627676770091056
3996474459.0,-0.4622668623924255,-0.5366490483283997,9.68669319152832,1.4306316375732422,-0.8354978561401367,-0.2476512193679809
3996482792.0,-0.3247240483760834,-0.6732048988342285,9.616717338562012,1.5121619701385498,-1.2752174139022827,-0.1011890321969986
3996491125.0,-0.1012407466769218,-0.3789349794387817,9.48180866241455,1.616130232810974,-1.0967376232147217,0.0164187252521514
3996499458.0,-0.1772806495428085,-0.1247787922620773,9.524012565612791,1.5888124704360962,-0.7758294939994812,0.0200175233185291
3996507791.0,-0.3401937484741211,-0.2730039358139038,9.602254867553713,1.575134515762329,-0.8120993375778198,-0.0836304724216461
3996516124.0,-0.2296886295080185,-0.529852569103241,9.53105926513672,1.5749809741973877,-1.2743594646453855,-0.1862667202949524
3996524457.0,0.0294940657913684,-0.4504736959934234,9.395269393920898,1.5416184663772583,-1.264024019241333,-0.0419689267873764
3996532790.0,-0.0194342751055955,-0.2422310262918472,9.441967010498049,1.4786841869354248,-0.7763034105300903,-0.0448377206921577
3996541123.0,-0.2803914546966553,-0.2347133904695511,9.607934951782228,1.5343438386917114,-0.603663444519043,-0.1620228439569473
3996549456.0,-0.3927026689052582,-0.4123106598854065,9.671268463134766,1.4418507814407349,-0.9465356469154358,-0.2096909284591674
3996557789.0,-0.1990946233272552,-0.4372107982635498,9.52953052520752,1.539940595626831,-1.215395212173462,-0.0734616219997406
3996566122.0,-0.1068335026502609,-0.2210363149642944,9.472169876098633,1.4518916606903076,-0.8458460569381714,-0.1306966245174408
3996574455.0,-0.260284811258316,-0.2178899049758911,9.56028938293457,1.4076814651489258,-0.7013562321662903,-0.0944781079888343
3996582788.0,-0.3406147360801697,-0.4372529089450836,9.63555145263672,1.539761304855347,-0.9914501905441284,-0.2805014550685882
3996591121.0,-0.1088999658823013,-0.5022624731063843,9.513081550598145,1.5606114864349363,-1.2614755630493164,-0.2187455892562866
3996599454.0,0.0855444222688674,-0.2325789630413055,9.38934326171875,1.489327073097229,-0.9889400005340576,-0.0698756352066993
3996607787.0,-0.0946464166045188,-0.1257183700799942,9.45384120941162,1.512981414794922,-0.5126047730445862,-0.0420969910919666
3996616120.0,-0.3990142047405243,-0.3489156663417816,9.61613941192627,1.4335006475448608,-0.5653958916664124,-0.1351022869348526
3996624453.0,-0.3813079595565796,-0.594931423664093,9.642176628112791,1.4965118169784546,-1.134595513343811,-0.220320850610733
3996632786.0,-0.1437793672084808,-0.4389759004116058,9.524225234985352,1.499444842338562,-1.1815592050552368,-0.1309912204742431
3996641119.0,-0.0963737964630127,-0.1409271359443664,9.485552787780762,1.588582158088684,-0.7721155881881714,0.0011398335918784
3996649452.0,-0.2581818699836731,-0.172068789601326,9.58100414276123,1.487572193145752,-0.6623712778091431,-0.0848471522331237
3996657785.0,-0.2951569557189941,-0.4029490947723388,9.577474594116213,1.4956406354904177,-1.0452016592025757,-0.1908388286828994
3996666118.0,-0.0796256363391876,-0.5044957399368286,9.431763648986816,1.4915424585342407,-1.2949659824371338,-0.2025445699691772
3996674451.0,0.016623206436634,-0.28261598944664,9.43467140197754,1.418413758277893,-0.84646075963974,-0.0045465263538062
3996682784.0,-0.2073036879301071,-0.1780199557542801,9.526986122131348,1.4781335592269895,-0.4077529907226562,0.074703924357891
3996691117.0,-0.4243363440036773,-0.3636724054813385,9.660959243774414,1.5507627725601196,-0.7400081157684326,-0.1322078704833984
3996699450.0,-0.3221926689147949,-0.4858196079730987,9.609238624572754,1.488289475440979,-1.1475049257278442,-0.2881217002868652
3996707783.0,-0.1215096414089202,-0.3073329627513885,9.459492683410645,1.50037944316864,-1.0427428483963013,-0.0300839189440011
3996716116.0,-0.1952011585235595,-0.1914199143648147,9.517786979675291,1.529297947883606,-0.7015098929405212,0.027714604511857
3996724449.0,-0.3347702324390411,-0.3471661508083343,9.625293731689451,1.4391356706619265,-0.8967671394348145,-0.1583343893289566
3996732782.0,-0.2015441358089447,-0.5365575551986694,9.576852798461914,1.5560134649276731,-1.2431739568710327,-0.1384321451187133
3996741115.0,0.0351097248494625,-0.3993536531925201,9.408831596374512,1.5569100379943848,-1.226652979850769,-0.0471686162054538
3996749448.0,-0.0064590172842144,-0.1920681446790695,9.404550552368164,1.4142130613327026,-0.6528427600860596,-0.0174817163497209
3996757781.0,-0.3355470299720764,-0.3027655482292175,9.582070350646973,1.4258161783218384,-0.3823308646678924,-0.0485005527734756
3996766114.0,-0.449634850025177,-0.5705465078353882,9.678597450256348,1.3702974319458008,-0.9225479960441588,-0.1560419350862503
3996774447.0,-0.2393423467874527,-0.5775740742683411,9.560430526733398,1.5632110834121704,-1.1782163381576538,-0.1009328886866569
3996782780.0,-0.068565733730793,-0.25465989112854,9.447726249694824,1.5183861255645752,-0.9998644590377808,0.0697475597262382
3996791113.0,-0.1937896758317947,-0.1486165821552276,9.541208267211914,1.5396844148635864,-0.7382022142410278,0.022655788809061
3996799446.0,-0.3180003464221954,-0.4038412868976593,9.630988121032717,1.4953460693359375,-1.0251072645187378,-0.2213069796562194
3996807779.0,-0.1297458261251449,-0.5827206373214722,9.509642601013184,1.581640601158142,-1.3771493434906006,-0.1276357322931289
3996816112.0,0.0621296763420105,-0.3997520208358764,9.393240928649902,1.5799373388290403,-0.9164389371871948,-0.0300583057105541
3996824445.0,-0.0999395251274108,-0.1997073739767074,9.469204902648926,1.383373498916626,-0.4773340821266174,-0.1017269343137741
3996832778.0,-0.3834852874279022,-0.3162487149238586,9.61352252960205,1.4465253353118896,-0.5648450255393982,-0.1875218003988266
3996841111.0,-0.3733181059360504,-0.5081895589828491,9.587468147277832,1.537199854850769,-0.99378103017807,-0.2260712385177612
3996849444.0,-0.1349190175533294,-0.4224191009998321,9.486162185668944,1.4983431100845337,-1.1571743488311768,-0.056966058909893
3996857777.0,-0.1238412782549858,-0.2415699064731598,9.485906600952148,1.528939127922058,-0.8759427666664124,-0.0372302867472171
3996866110.0,-0.304095059633255,-0.3034949600696563,9.572846412658691,1.5558981895446775,-0.7514447569847107,-0.1110633164644241
3996874443.0,-0.2948229610919952,-0.4892556667327881,9.596101760864258,1.5111372470855713,-1.2005774974822998,-0.232000932097435
3996882776.0,-0.0124953929334878,-0.4728270769119262,9.416337966918944,1.4400578737258911,-1.26819908618927,-0.0798011347651481
3996891109.0,0.0510856062173843,-0.2170959413051605,9.366297721862791,1.3819646835327148,-0.7019965052604675,0.0147281838580966
3996899442.0,-0.2005585581064224,-0.2175179570913314,9.485836029052734,1.5201022624969482,-0.3860961496829986,-0.004725825972855
3996907775.0,-0.4478186070919037,-0.4880890548229217,9.637909889221191,1.4919778108596802,-0.7766619920730591,-0.1403019726276397
3996916108.0,-0.3276554644107818,-0.6101373434066772,9.571187019348145,1.4819883108139038,-1.1722482442855835,-0.1656600683927536
3996924441.0,-0.0965237990021705,-0.3466745913028717,9.4945650100708,1.6033101081848145,-1.0576117038726809,0.0543662123382091
3996932774.0,-0.163442462682724,-0.0934232845902443,9.499862670898438,1.5156327486038208,-0.6815692186355591,-0.0931845903396606
3996941107.0,-0.3323468565940857,-0.2512798905372619,9.584515571594238,1.5127384662628174,-0.8333591818809509,-0.0997674539685249
3996949440.0,-0.2399001866579055,-0.5165687203407288,9.548314094543455,1.481770634651184,-1.287397027015686,-0.243642583489418
3996957773.0,-0.0035545469727367,-0.4302245378494262,9.427987098693848,1.4970240592956543,-1.1337502002716064,-0.2030568569898605
3996966106.0,-0.0177606828510761,-0.1880147755146026,9.417476654052734,1.5513516664505005,-0.6617821455001831,0.0770988464355468
3996974439.0,-0.3043677806854248,-0.171439379453659,9.603150367736816,1.4252784252166748,-0.5179581642150879,-0.0067749647423624
3996982772.0,-0.4383401870727539,-0.3999236822128296,9.654996871948242,1.507038950920105,-0.8952558636665344,-0.1581038534641266
3996991105.0,-0.2496250718832016,-0.4494363367557525,9.536273956298828,1.434986233711243,-1.1725555658340454,-0.1683239489793777
3996999438.0,-0.1220186725258827,-0.2678355276584625,9.466279983520508,1.4590638875961304,-0.8571164011955261,0.0174689106643199
3997007771.0,-0.237245500087738,-0.1999791860580444,9.543058395385742,1.406298279762268,-0.5867580771446228,-0.0747551396489143
3997016104.0,-0.3333811461925506,-0.4131070375442505,9.62547779083252,1.4116134643554688,-0.953131377696991,-0.2746614813804626
3997024437.0,-0.1321564018726349,-0.4776248335838318,9.536333084106444,1.4629441499710083,-1.3376777172088623,-0.1554784029722213
3997032770.0,0.0699551552534103,-0.285957932472229,9.387721061706545,1.455797791481018,-1.08302104473114,-0.0368332713842392
3997041103.0,-0.1016633585095405,-0.152434229850769,9.42965030670166,1.50155770778656,-0.4583538770675659,-0.0214006919413805
3997049436.0,-0.4141496121883392,-0.3905595242977142,9.64150333404541,1.5624938011169434,-0.5178813934326172,-0.1897886842489242
3997057769.0,-0.4157522320747375,-0.6268613338470459,9.671368598937988,1.4992907047271729,-1.0829442739486694,-0.1235886737704277
3997066102.0,-0.1517658084630966,-0.4637602269649505,9.505882263183594,1.5733799934387207,-1.3123581409454346,-0.1187860071659088
3997074435.0,-0.0555871278047561,-0.1540116071701049,9.468287467956545,1.5092164278030396,-0.849867582321167,-0.063151903450489
3997082768.0,-0.257402628660202,-0.1766408383846283,9.557136535644531,1.518744707107544,-0.7154695987701416,-0.0875366479158401
3997091101.0,-0.2899322509765625,-0.4649037718772888,9.5837984085083,1.513852596282959,-1.0895143747329712,-0.228722333908081
3997099434.0,-0.0791228339076042,-0.5658451318740845,9.45001983642578,1.43232262134552,-1.194763422012329,-0.2301311194896698
3997107767.0,0.0313769541680812,-0.3420266509056091,9.396390914916992,1.5592536926269531,-0.8917595148086548,0.0217080637812614
3997116100.0,-0.203033447265625,-0.1632421761751175,9.516685485839844,1.485715389251709,-0.354808360338211,0.0147922206670045
3997124433.0,-0.4274896681308746,-0.3423493802547455,9.656688690185549,1.4682977199554443,-0.713561475276947,-0.139648824930191
3997132766.0,-0.3298996686935425,-0.5093867182731628,9.585010528564451,1.456873655319214,-1.1785622835159302,-0.2256870418787002
3997141099.0,-0.0924436077475547,-0.3878458738327026,9.482704162597656,1.516900658607483,-1.091025471687317,-0.089150346815586
3997149432.0,-0.1482784301042556,-0.2760210931301117,9.501401901245115,1.4636740684509275,-0.7367037534713745,-0.0407650507986545
3997157765.0,-0.3094798326492309,-0.3657501637935638,9.63119411468506,1.5241365432739258,-0.7640982270240784,-0.0679033324122428
3997166098.0,-0.223087802529335,-0.5151039361953735,9.568511009216309,1.5589975118637085,-1.249180555343628,-0.2808856964111328
3997174431.0,-0.0073596816509962,-0.3800658583641052,9.413412094116213,1.4264440536499023,-1.2264351844787598,-0.0731542631983757
3997182764.0,-0.0202783234417438,-0.1753662675619125,9.412549018859863,1.3890855312347412,-0.5871679186820984,0.0145232705399394
3997191097.0,-0.3351178467273712,-0.294947475194931,9.548273086547852,1.5307579040527344,-0.359047532081604,-0.0868450552225112
3997199430.0,-0.4936428666114807,-0.6017008423805237,9.692052841186523,1.4400451183319092,-0.931640923023224,-0.3238407373428345
3997207763.0,-0.2416778206825256,-0.5909789204597473,9.574776649475098,1.5407600402832031,-1.279072403907776,-0.1297104805707931
3997216096.0,-0.0570386722683906,-0.2665879428386688,9.485220909118652,1.462611436843872,-0.9931151866912842,-0.0751521661877632
3997224429.0,-0.1647013425827026,-0.0979009419679641,9.565088272094728,1.5547713041305542,-0.5809820294380188,0.0171487312763929
3997232762.0,-0.3191860318183899,-0.3338771462440491,9.624287605285645,1.5400302410125732,-0.845820426940918,-0.2644541561603546
3997241095.0,-0.1811868846416473,-0.5525858402252197,9.520853996276855,1.5072312355041504,-1.2180591821670532,-0.2396467626094818
3997249428.0,0.0254206899553537,-0.4032747745513916,9.41868782043457,1.5421948432922363,-1.1076364517211914,0.0845910161733627
3997257761.0,-0.0870102941989898,-0.1886253356933593,9.466896057128906,1.6110457181930542,-0.6030359268188477,-0.0912378951907157
3997266094.0,-0.3627851009368896,-0.2651129066944122,9.622060775756836,1.5058737993240356,-0.5453014969825745,-0.1137784421443939
3997274427.0,-0.4054430425167084,-0.4502038061618805,9.638794898986816,1.5065011978149414,-1.0799603462219238,-0.1869454979896545
3997282760.0,-0.1916428506374359,-0.4079211354255676,9.523244857788086,1.4320021867752075,-1.1052030324935913,-0.0976670756936073
3997291093.0,-0.1234292164444923,-0.2500831186771393,9.455382347106934,1.4961915016174316,-0.8131750822067261,-0.042263489216566
3997299426.0,-0.2613998651504516,-0.2587181031703949,9.565187454223633,1.523521900177002,-0.7182487845420837,-0.1803754568099975
3997307759.0,-0.2800722420215606,-0.4727596640586853,9.61584758758545,1.4799648523330688,-1.1967355012893677,-0.189558133482933
3997316092.0,-0.0422453694045543,-0.459602952003479,9.47279930114746,1.4874314069747925,-1.3705153465270996,-0.1331171840429306
3997324425.0,0.0609350055456161,-0.1947737336158752,9.380816459655762,1.5051822662353516,-0.8260847330093384,0.0794425532221794
3997332758.0,-0.1958519965410232,-0.1774334162473678,9.484841346740724,1.4485361576080322,-0.3984934091567993,-0.0473991371691226
3997341091.0,-0.4645556211471557,-0.4557936191558838,9.66224765777588,1.492900013923645,-0.7173650860786438,-0.1984975039958953
3997349424.0,-0.343808501958847,-0.6255766749382019,9.63257884979248,1.604578137397766,-1.1651020050048828,-0.1335398107767105
3997357757.0,-0.0706489011645317,-0.3546096682548523,9.50063419342041,1.5547841787338257,-1.1365420818328855,-0.0523170791566371
3997366090.0,-0.0861667543649673,-0.0973815694451332,9.499147415161133,1.5537980794906616,-0.7445546388626099,-0.0439028032124042
3997374423.0,-0.2827968597412109,-0.2264772653579712,9.574310302734377,1.4978435039520264,-0.7477179169654846,-0.1641232073307037
3997382756.0,-0.2598471343517303,-0.522749662399292,9.557743072509766,1.4322454929351809,-1.0920244455337524,-0.246882826089859
3997391089.0,-0.0210638605058193,-0.4846504628658294,9.441447257995604,1.50737202167511,-1.2459149360656738,-0.1645330339670181
3997399422.0,-0.0042774002067744,-0.2310511320829391,9.387784957885742,1.4934890270233154,-0.6969504356384277,-0.0432240180671215
3997407755.0,-0.2797262370586395,-0.1873687207698822,9.554767608642578,1.4427986145019531,-0.4985426664352417,-0.1486522257328033
3997416088.0,-0.4130948483943939,-0.3795092105865478,9.62955093383789,1.4220256805419922,-0.869564950466156,-0.2170678526163101
3997424421.0,-0.2467786073684692,-0.4687990546226501,9.536056518554688,1.4319639205932615,-1.1706091165542605,-0.0924801975488662
3997432754.0,-0.1122983768582344,-0.3089695870876312,9.440113067626951,1.3876255750656128,-0.9715350866317748,-0.0891759544610977
3997441087.0,-0.2325589656829834,-0.2408966422080993,9.50275707244873,1.5389801263809204,-0.7216170430183411,-0.1905058920383453
3997449420.0,-0.3329962790012359,-0.4159053862094879,9.618597984313965,1.4148280620574951,-0.9721500277519226,-0.1528017222881317
3997457753.0,-0.1450200825929641,-0.5094162225723267,9.531464576721191,1.5654139518737793,-1.3626900911331177,-0.1980620622634887
3997466086.0,0.0713909044861793,-0.275951474905014,9.405924797058104,1.4677597284317017,-0.9978024959564208,-0.0785588547587394
3997474419.0,-0.0697402134537696,-0.1628487557172775,9.418161392211914,1.4397376775741575,-0.5200970768928528,0.0007300056749954
3997482752.0,-0.4039138853549957,-0.3800520002841949,9.603214263916016,1.3192994594573977,-0.5106453895568848,-0.2439755946397781
3997491085.0,-0.4233039915561676,-0.6667687892913818,9.686582565307615,1.4632514715194702,-0.9990831613540648,-0.1509190648794174
3997499418.0,-0.1696290373802185,-0.5072466135025024,9.519119262695312,1.4621375799179075,-1.2013205289840698,-0.0170718878507614
3997507751.0,-0.0898969322443008,-0.1707025915384292,9.509675979614258,1.4381495714187622,-0.7851786613464355,-0.0360136143863201
3997516084.0,-0.2573449909687042,-0.1348382383584976,9.551040649414062,1.517425775527954,-0.6611034274101257,-0.1436702460050583
3997524417.0,-0.3353234529495239,-0.4121046960353851,9.587361335754396,1.4035319089889526,-1.0944067239761353,-0.2793616652488708
3997532750.0,-0.0904902890324592,-0.5572274923324585,9.47966480255127,1.4974721670150757,-1.2437503337860107,-0.203095257282257
3997541083.0,0.0499231442809104,-0.341785579919815,9.401728630065918,1.5383012294769287,-0.9612253308296204,-0.023795623332262
3997549416.0,-0.1584140062332153,-0.2225392460823059,9.521041870117188,1.4643017053604126,-0.5299328565597534,0.0329783260822296
3997557749.0,-0.4055518805980682,-0.3493520021438598,9.696085929870604,1.3885219097137451,-0.6987178325653076,-0.1227049753069877
3997566082.0,-0.3369871079921722,-0.4612068831920624,9.650463104248049,1.5668740272521973,-1.1608755588531494,-0.1728576570749282
3997574415.0,-0.1183358877897262,-0.340402752161026,9.496655464172363,1.4531724452972412,-1.1233506202697754,-0.1196312829852104
3997582748.0,-0.1481496691703796,-0.2338550984859466,9.481194496154783,1.492771863937378,-0.7082719206809998,-0.0662512183189392
3997591081.0,-0.3076358437538147,-0.3460574746131897,9.581398963928224,1.488250970840454,-0.7750867009162903,-0.1315546929836273
3997599414.0,-0.2415897250175476,-0.5378196835517883,9.583806037902832,1.4214491844177246,-1.2791748046875,-0.2010461241006851
3997607747.0,0.0087930411100387,-0.4118795096874237,9.445073127746582,1.4888017177581787,-1.2540985345840454,-0.0677240267395973
3997616080.0,-0.0066163796000182,-0.1662177592515945,9.40879249572754,1.5426428318023682,-0.6311731338500977,-0.0147666055709123
3997624413.0,-0.3210339546203613,-0.2482965737581253,9.559308052062988,1.3857556581497192,-0.4840705990791321,-0.1092062890529632
3997632746.0,-0.4670180976390838,-0.5667973160743713,9.68613624572754,1.4749703407287598,-0.9176172614097596,-0.1951164603233337
3997641079.0,-0.2190441489219665,-0.6164228320121765,9.591196060180664,1.5007764101028442,-1.3817598819732666,-0.1704883426427841
3997649412.0,-0.0204235110431909,-0.3154633939266205,9.44396686553955,1.5018523931503296,-1.0499275922775269,0.0585157237946987
3997657745.0,-0.1311517804861068,-0.1256592273712158,9.513314247131348,1.6020934581756592,-0.6647533774375916,0.0164955668151378
3997666078.0,-0.3162657022476196,-0.314757376909256,9.593408584594728,1.5174129009246826,-0.8373421430587769,-0.1840254664421081
3997674411.0,-0.1869558095932006,-0.5549855828285217,9.50922393798828,1.5386086702346802,-1.2629354000091553,-0.1741511821746826
3997682744.0,0.010042417794466,-0.4213413000106811,9.397431373596191,1.4797470569610596,-1.1995657682418823,0.003317043185234
3997691077.0,-0.1033157184720039,-0.1967675238847732,9.445470809936523,1.5481113195419312,-0.5218899846076965,-0.1122159510850906
3997699410.0,-0.3849656879901886,-0.274425059556961,9.594100952148438,1.6315115690231323,-0.6130254864692688,-0.1152128353714943
3997707743.0,-0.4036157131195068,-0.4633889496326446,9.662344932556152,1.500545859336853,-1.0478527545928955,-0.2650304734706878
3997716076.0,-0.1661528497934341,-0.4395433366298675,9.505146980285645,1.5368925333023071,-1.2755377292633057,0.0098230596631765
3997724409.0,-0.0832275077700614,-0.2405276000499725,9.471022605895996,1.5483678579330444,-0.926851212978363,-0.0958997085690498
3997732742.0,-0.2340195327997207,-0.2553207874298095,9.617563247680664,1.3994464874267578,-0.7167119383811951,-0.1044548451900482
3997741075.0,-0.3016238212585449,-0.4859433770179748,9.631891250610352,1.394912838935852,-1.0681647062301636,-0.1775578558444976
3997749408.0,-0.0722061991691589,-0.4915281534194946,9.48540210723877,1.4773906469345093,-1.1496180295944214,0.00546863861382
3997757741.0,0.0274338163435459,-0.2435744255781173,9.385149002075195,1.5016603469848633,-0.8661326169967651,0.0726932063698768
3997766074.0,-0.1817895025014877,-0.1767682135105133,9.48446273803711,1.4125224351882937,-0.4924079775810241,-0.0115007907152175
3997774407.0,-0.4905062317848205,-0.4406364858150482,9.678181648254396,1.371680736541748,-0.6725017428398132,-0.0529958568513393
3997782740.0,-0.3491502106189728,-0.6485730409622192,9.645452499389648,1.4527753591537476,-1.3951562643051147,-0.1754063069820404
3997791073.0,-0.0820189118385315,-0.3983792960643768,9.4898681640625,1.5732520818710327,-1.1979138851165771,0.0274328477680683
3997799406.0,-0.0820324420928955,-0.0940007716417312,9.51853847503662,1.538096308708191,-0.7236789464950562,0.0308779589831829
3997807739.0,-0.2532177865505218,-0.2228468209505081,9.593156814575195,1.3106931447982788,-0.7456559538841248,-0.2114711105823516
3997816072.0,-0.2557100355625152,-0.5052411556243896,9.59561252593994,1.5852651596069336,-1.165204405784607,-0.1644818186759948
3997824405.0,-0.0093098497018218,-0.4943846762180328,9.462225914001465,1.6021062135696411,-1.2216708660125732,-0.0608594194054603
3997832738.0,-0.0051571996882557,-0.2578027546405792,9.417976379394531,1.4132782220840454,-0.6969376802444458,0.0433520935475826
3997841071.0,-0.2854556441307068,-0.2157297432422638,9.596661567687988,1.5127253532409668,-0.3967260420322418,-0.1007279679179191
3997849404.0,-0.4292760193347931,-0.3881834149360657,9.668697357177734,1.418413758277893,-0.9323452711105348,-0.124933436512947
3997857737.0,-0.2948731780052185,-0.4779689908027649,9.58570671081543,1.5111374855041504,-1.236488938331604,-0.0947342589497566
3997866070.0,-0.0802793949842453,-0.2865336239337921,9.47459888458252,1.4090135097503662,-1.07035493850708,0.001024569501169
3997874403.0,-0.188906580209732,-0.2318307906389236,9.530476570129396,1.4167745113372805,-0.6574789881706238,-0.0297765471041202
3997882736.0,-0.3141531348228454,-0.3900598883628845,9.590978622436523,1.4843320846557615,-0.8973690271377563,-0.1292750388383865
3997891069.0,-0.1622552126646042,-0.5156427025794983,9.535027503967283,1.4833329916000366,-1.3326572179794312,-0.1764820665121078
3997899402.0,0.0608290061354637,-0.3254795968532562,9.368741989135742,1.4727544784545898,-1.1360937356948853,0.0157655607908964
3997907735.0,-0.077415220439434,-0.150166779756546,9.40684700012207,1.4667991399765017,-0.4833533763885498,-0.0157143324613571
3997916068.0,-0.4050726592540741,-0.3459114730358124,9.60988712310791,1.4517635107040403,-0.4862477779388428,-0.1505988836288452
3997924401.0,-0.4445130825042724,-0.6208632588386536,9.67217254638672,1.564235806465149,-1.073556661605835,-0.2367395907640457
3997932734.0,-0.1730553209781646,-0.508942723274231,9.530559539794922,1.5720990896224976,-1.3564529418945312,-0.0936712473630905
3997941067.0,-0.075511023402214,-0.1935130506753921,9.498946189880373,1.551364541053772,-0.8185029029846191,0.0780849903821945
3997949400.0,-0.2269096672534942,-0.1180147156119346,9.552899360656738,1.5069494247436523,-0.6829267144203186,-0.0725139006972312
3997957733.0,-0.3120571672916412,-0.4164048731327057,9.612048149108888,1.5066421031951904,-1.0405269861221311,-0.2228438407182693
3997966066.0,-0.1186179667711258,-0.5283816456794739,9.447537422180176,1.4932202100753784,-1.1810210943222046,-0.1234093829989433
3997974399.0,-0.0002381387166678,-0.3065701425075531,9.407654762268066,1.4903898239135742,-0.8597801923751831,-0.0533160269260406
3997982732.0,-0.1926332116127014,-0.195694625377655,9.524625778198242,1.4539023637771606,-0.4638994038105011,-0.0649833157658577
3997991065.0,-0.4336554110050201,-0.3510043025016784,9.665815353393556,1.369375228881836,-0.7683244943618774,-0.1858824789524078
3997999398.0,-0.3198751211166382,-0.4691028296947479,9.593305587768556,1.4187084436416626,-1.1056897640228271,-0.1204893514513969
3998007731.0,-0.1196272075176239,-0.3520741164684295,9.499958992004396,1.450598120689392,-1.0356603860855105,-0.0256142355501651
3998016064.0,-0.1741073429584503,-0.2155079990625381,9.525827407836914,1.4460772275924685,-0.7612934708595276,-0.0692736953496933
3998024397.0,-0.3196264207363128,-0.3289550840854645,9.64320945739746,1.4681694507598877,-0.9916551113128662,-0.1847042590379715
3998032730.0,-0.2019379884004593,-0.5228933691978455,9.587328910827637,1.4399298429489136,-1.288562536239624,-0.2650432884693146
3998041063.0,0.0311586447060108,-0.3925542533397674,9.427695274353027,1.535163640975952,-1.1802911758422852,-0.0189161133021116
3998049396.0,-0.0264869909733533,-0.1505673676729202,9.43598175048828,1.429530382156372,-0.693338930606842,0.0163674969226121
3998057729.0,-0.2996111214160919,-0.2982950210571289,9.546356201171877,1.5021212100982666,-0.5420228242874146,-0.0171359218657016
3998066062.0,-0.4497106671333313,-0.5779712796211243,9.680742263793944,1.4042619466781616,-0.9135316014289856,-0.1958720535039901
3998074395.0,-0.2461298257112503,-0.588684618473053,9.595155715942385,1.4661973714828491,-1.336474061012268,-0.1434909701347351
3998082728.0,-0.0700722336769104,-0.2690561413764953,9.476236343383787,1.6672945022583008,-1.012505054473877,-0.0455421060323715
3998091061.0,-0.1785206496715545,-0.1410039961338043,9.52884578704834,1.5292339324951172,-0.6516516804695129,-0.1548636555671692
3998099394.0,-0.3074278533458709,-0.3616783022880554,9.61184787750244,1.4362797737121582,-0.9744678735733032,-0.291541188955307
3998107727.0,-0.1603808850049972,-0.5545987486839294,9.50091552734375,1.4087573289871216,-1.331261396408081,-0.1484472900629043
3998116060.0,0.0136743849143385,-0.3959450125694275,9.372982025146484,1.5306298732757568,-0.944563329219818,0.0082990117371082
3998124393.0,-0.1488363593816757,-0.1927905827760696,9.45834732055664,1.5813076496124268,-0.4717373847961426,-0.0441845543682575
3998132726.0,-0.394508957862854,-0.2838503718376159,9.640495300292969,1.5517998933792114,-0.6344645619392395,-0.0879080519080162
3998141059.0,-0.4110778570175171,-0.4897634387016296,9.666875839233398,1.4467048645019531,-1.026388168334961,-0.1775834858417511
3998149392.0,-0.1310398131608963,-0.4113020300865173,9.476981163024902,1.565631866455078,-1.166907787322998,-0.1624967157840728
3998157725.0,-0.090628296136856,-0.217768982052803,9.435441970825195,1.5105098485946655,-0.841581404209137,0.0589255504310131
3998166058.0,-0.2557704150676727,-0.2716031074523926,9.578444480895996,1.5146080255508425,-0.7415577173233032,-0.1033790484070777
3998174391.0,-0.2890954315662384,-0.502160370349884,9.613767623901367,1.5975983142852783,-1.1847352981567385,-0.1439519971609115
3998182724.0,-0.0383002012968063,-0.4894981682300567,9.471637725830078,1.5429376363754272,-1.3466428518295288,-0.1171339005231857
3998191057.0,0.0155677236616611,-0.2085297703742981,9.339295387268066,1.5022107362747192,-0.8182467222213745,0.0333113111555576
3998199390.0,-0.2512007057666778,-0.1837851405143737,9.481858253479004,1.4784281253814695,-0.4483643472194671,-0.1264958977699279
3998207723.0,-0.4872731268405914,-0.4710790812969208,9.696200370788574,1.4664660692214966,-0.7669541835784912,-0.2601509392261505
3998216056.0,-0.3275355696678161,-0.6156647801399231,9.674142837524414,1.5788869857788086,-1.2753711938858032,-0.1138680726289749
3998224389.0,-0.0483327880501747,-0.3749085366725921,9.472412109375,1.4990605115890503,-1.2390118837356567,-0.0136523889377713
3998232722.0,-0.0486750975251197,-0.1112696230411529,9.497923851013184,1.4943088293075562,-0.7306843996047974,-0.1967557370662689
3998241055.0,-0.2599620819091797,-0.2293780297040939,9.637969017028809,1.528964877128601,-0.7114993929862976,0.0062754871323704
3998249388.0,-0.2428099811077118,-0.4819724857807159,9.585391998291016,1.53087317943573,-1.1644742488861084,-0.3416426479816437
3998257721.0,-0.0042192982509732,-0.4544924199581146,9.42221736907959,1.4195280075073242,-1.1771022081375122,-0.0828364342451095
3998266054.0,-0.0212797075510025,-0.2088916301727295,9.441165924072266,1.4587050676345823,-0.6456964612007141,0.0561720170080661
3998274387.0,-0.3177865147590637,-0.1734707504510879,9.575410842895508,1.5059889554977417,-0.3766957819461822,-0.1338471919298172
3998282720.0,-0.4473942816257477,-0.3823921382427215,9.710667610168455,1.4704747200012207,-0.8827177882194519,-0.196563646197319
3998291053.0,-0.2771283388137817,-0.4962961971759796,9.58262538909912,1.495205283164978,-1.2320319414138794,-0.1605628281831741
3998299386.0,-0.0748896226286888,-0.3014089465141296,9.452619552612305,1.3606408834457395,-1.0654752254486084,-0.1070418879389762
3998307719.0,-0.1793646961450576,-0.1901368647813797,9.49683666229248,1.4973057508468628,-0.6662390828132629,-0.0925570428371429
3998316052.0,-0.3127121031284332,-0.3863473236560821,9.639103889465332,1.407181978225708,-0.9007501006126404,-0.2827299237251282
3998324385.0,-0.1436063796281814,-0.5167654752731323,9.604944229125977,1.3825666904449463,-1.3492809534072876,-0.2178234457969665
3998332718.0,0.0491194427013397,-0.332570880651474,9.395792007446287,1.477365016937256,-1.0876060724258425,-0.0646759420633316
3998341051.0,-0.0763709023594856,-0.1637929677963256,9.401168823242188,1.5061426162719729,-0.5315465927124023,-0.0163162667304277
3998349384.0,-0.39630326628685,-0.3763825893402099,9.583600997924805,1.434038519859314,-0.4901411533355713,-0.1277253776788711
3998357717.0,-0.4459955394268036,-0.6409090161323547,9.652981758117676,1.4871368408203125,-1.0030150413513184,-0.1699376404285431
3998366050.0,-0.1956871896982193,-0.5254218578338623,9.52468204498291,1.5925137996673584,-1.3023428916931152,-0.1625351160764694
3998374383.0,-0.0714718401432037,-0.2008772790431976,9.490269660949709,1.4875593185424805,-0.9222660660743712,0.0916093066334724
3998382716.0,-0.2254902124404907,-0.1346845924854278,9.519993782043455,1.5300920009613037,-0.7334253191947937,-0.1342057883739471
3998391049.0,-0.3160424828529358,-0.4245716035366058,9.625846862792969,1.5382883548736572,-0.9797828793525696,-0.2742131948471069
3998399382.0,-0.1116442829370498,-0.5599175691604614,9.497246742248535,1.55525803565979,-1.4052739143371582,-0.2310404032468795
3998407715.0,0.0310810413211584,-0.3323884308338165,9.38644790649414,1.4962685108184814,-0.8265714049339294,-0.0963351428508758
3998416048.0,-0.1754449307918548,-0.1772188395261764,9.502423286437988,1.5324482917785645,-0.4935734868049621,-0.0032145865261554
3998424381.0,-0.4199791848659515,-0.3060917556285858,9.66250991821289,1.476276397705078,-0.8251753449440002,-0.1813103556632995
3998432714.0,-0.3418470323085785,-0.4886275231838226,9.598106384277344,1.4367793798446655,-1.0881569385528564,-0.1504452228546142
3998441047.0,-0.1038322821259498,-0.3740671575069427,9.51193141937256,1.5062707662582395,-1.115103006362915,0.0323763899505138
3998449380.0,-0.1266983151435852,-0.2401638031005859,9.503759384155272,1.4537869691848757,-0.7534298896789551,-0.0688894838094711
3998457713.0,-0.3001192510128021,-0.3007653653621673,9.595495223999023,1.4673242568969729,-0.8198859691619873,-0.1695918440818786
3998466046.0,-0.2099169641733169,-0.5011001825332642,9.584874153137209,1.576479434967041,-1.2129749059677124,-0.2410683780908584
3998474379.0,0.0034472036641091,-0.4071120619773865,9.42391300201416,1.5053741931915283,-1.1246569156646729,-0.1425304114818573
3998482712.0,-0.0118808718398213,-0.1805735230445861,9.398777961730955,1.4532363414764404,-0.5677650570869446,0.0296228602528572
3998491045.0,-0.3137880563735962,-0.2111304849386215,9.555062294006348,1.3948743343353271,-0.3884783089160919,0.0033810792956501
3998499378.0,-0.4753489196300506,-0.5267844200134277,9.71247100830078,1.4454883337020874,-0.9263260364532472,-0.2834343612194061
3998507711.0,-0.2599467635154724,-0.590544581413269,9.596274375915527,1.611250638961792,-1.3384974002838137,-0.2514293193817138
3998516044.0,-0.0053223920986056,-0.3239335417747497,9.495223999023438,1.5442438125610352,-1.0334062576293943,-0.0996649861335754
3998524377.0,-0.1186298951506614,-0.1024287417531013,9.494742393493652,1.5188215970993042,-0.6014094352722168,-0.0196076966822147
3998532710.0,-0.3565035760402679,-0.2747277915477752,9.61586093902588,1.5781185626983645,-0.8716395497322083,-0.178236648440361
3998541043.0,-0.2365660667419433,-0.5623770356178284,9.557323455810549,1.445193648338318,-1.199668288230896,-0.3120582401752472
3998549376.0,0.0075460765510797,-0.476043701171875,9.416703224182127,1.5801547765731812,-1.1812260150909424,-0.0460800044238567
3998557709.0,-0.0689524412155151,-0.2032611072063446,9.421690940856934,1.5747246742248535,-0.6436088681221008,-0.0681338608264923
3998566042.0,-0.4077120423316955,-0.2092778831720352,9.596039772033691,1.438789963722229,-0.4567786157131195,0.0044696838594973
3998574375.0,-0.521252453327179,-0.4437461793422699,9.667031288146973,1.453134059906006,-0.9831768274307252,-0.2427973747253418
3998582708.0,-0.2305016219615936,-0.469041109085083,9.512247085571287,1.565554976463318,-1.283401370048523,-0.1311448961496353
3998591041.0,-0.0280581880360841,-0.296810507774353,9.41160774230957,1.464775562286377,-0.9966112971305848,-0.0335674509406089
3998599374.0,-0.1736995577812194,-0.2487330287694931,9.536070823669434,1.5119057893753052,-0.5421893000602722,-0.1585136950016021
3998607707.0,-0.3680495321750641,-0.4147003889083862,9.64738941192627,1.4403012990951538,-0.8321552872657776,-0.1819635182619094
3998616040.0,-0.1733728051185608,-0.5469976663589478,9.544626235961914,1.3413277864456177,-1.3515862226486206,-0.1700529158115387
3998624373.0,0.0902833715081214,-0.3221381306648254,9.368523597717283,1.5356117486953735,-1.130714774131775,-0.0387031063437461
3998632706.0,-0.0508066453039646,-0.1321845352649688,9.382333755493164,1.4556185007095337,-0.4822903871536255,0.0733463615179061
3998641039.0,-0.436752587556839,-0.3245030343532562,9.60754108428955,1.5061168670654297,-0.4325603544712066,-0.1005230545997619
3998649372.0,-0.4848159551620483,-0.647942304611206,9.7379150390625,1.5327045917510986,-1.0542434453964231,-0.1359219253063202
3998657705.0,-0.1703860163688659,-0.570907473564148,9.503277778625488,1.500981092453003,-1.4589611291885376,0.0063139083795249
3998666038.0,0.0161969121545553,-0.1986795961856842,9.420486450195312,1.5242646932601929,-1.0050514936447144,-0.1249206289649009
3998674371.0,-0.2020821124315261,-0.079682670533657,9.544296264648438,1.456873655319214,-0.6043422222137451,-0.0365515127778053
3998682704.0,-0.3387877941131592,-0.3581452667713165,9.646157264709473,1.4628291130065918,-0.9457160234451294,-0.2250594794750213
3998691037.0,-0.1472380012273788,-0.6212072372436523,9.49915885925293,1.5195260047912598,-1.3749208450317385,-0.1616770476102829
3998699370.0,0.1058411672711372,-0.4201036691665649,9.359670639038086,1.4948724508285522,-0.9488152861595154,-0.1743433028459549
3998707703.0,-0.0553558468818664,-0.1678915023803711,9.42679500579834,1.4143412113189695,-0.4707768261432647,0.0022540525533258
3998716036.0,-0.4096433222293854,-0.2151145935058593,9.65713882446289,1.5901188850402832,-0.4548320174217224,-0.1206686571240425
3998724369.0,-0.4369983375072479,-0.4567866623401642,9.685246467590332,1.5199614763259888,-0.9791809320449828,-0.273944228887558
3998732702.0,-0.1451064199209213,-0.4513686895370483,9.501060485839844,1.554950475692749,-1.2985905408859253,-0.09400425106287
3998741035.0,-0.0124888634309172,-0.254505306482315,9.403499603271484,1.4225634336471558,-0.8617269992828369,0.0371662564575672
3998749368.0,-0.2069174349308014,-0.2306291162967682,9.56869411468506,1.4209495782852173,-0.5072258710861206,0.0250251069664955
3998757701.0,-0.3500463962554931,-0.447135329246521,9.702134132385254,1.4890835285186768,-1.1114143133163452,-0.1457834094762802
3998766034.0,-0.1130200251936912,-0.5412154793739319,9.548357009887695,1.463930368423462,-1.336768388748169,-0.1353840380907058
3998774367.0,0.107598952949047,-0.2789847254753113,9.378002166748049,1.4611897468566897,-0.8714860081672668,-0.0897907093167305
3998782700.0,-0.0989666953682899,-0.1182221844792366,9.400272369384766,1.5081788301467896,-0.3201010525226593,0.0713228359818458
3998791033.0,-0.5002126097679138,-0.3661611974239349,9.682445526123049,1.4775444269180298,-0.4654618799686432,-0.1975113600492477
3998799366.0,-0.4971300959587097,-0.6836375594139099,9.776832580566406,1.4161725044250488,-1.160375952720642,-0.3130059242248535
3998807699.0,-0.1167267933487892,-0.5955531597137451,9.51158618927002,1.594498872756958,-1.4179270267486572,-0.1302739977836609
3998816032.0,0.011090182699263,-0.1557681411504745,9.416906356811523,1.4950132369995115,-0.8539785742759705,-0.0484621301293373
3998824365.0,-0.234978049993515,-0.0812777578830719,9.525898933410645,1.4293639659881592,-0.4193306267261505,-0.0472582578659057
3998832698.0,-0.4525319039821625,-0.3732486069202423,9.662520408630373,1.5071159601211548,-0.7221036553382874,-0.1693228930234909
3998841031.0,-0.1973972022533416,-0.6520479321479797,9.56665325164795,1.453543782234192,-1.4452831745147705,-0.1140858009457588
3998849364.0,0.071804441511631,-0.443259984254837,9.35918426513672,1.5696274042129517,-1.1164475679397583,-0.1107047200202941
3998857697.0,-0.0811919197440147,-0.1733062267303466,9.407233238220217,1.5334856510162354,-0.3959448039531708,0.0159704741090536
3998866030.0,-0.4699918329715729,-0.2269311547279358,9.648542404174805,1.4301964044570925,-0.3868133723735809,-0.0713740661740303
3998874363.0,-0.5057532787322998,-0.4665400087833404,9.70822048187256,1.4146612882614136,-1.125438213348389,-0.1578093022108078
3998882696.0,-0.1815904676914215,-0.498740941286087,9.510102272033691,1.444578766822815,-1.2997174263000488,-0.0909817591309547
3998891029.0,-0.0026179405394941,-0.2724732458591461,9.36769199371338,1.433462142944336,-0.82749342918396,0.0539819970726966
3998899362.0,-0.2067815363407135,-0.2086913436651229,9.501214027404783,1.509088158607483,-0.6733086109161377,-0.105645902454853
3998907695.0,-0.3876482546329498,-0.425357848405838,9.664739608764648,1.4645965099334717,-0.9359442591667176,-0.2530942559242248
3998916028.0,-0.1607556194067001,-0.5606662631034851,9.56916618347168,1.440774917602539,-1.465044379234314,-0.2288759797811508
3998924361.0,0.1009264141321182,-0.3124131262302398,9.36365795135498,1.5351890325546265,-1.0883616209030151,-0.0864096209406852
3998932694.0,-0.0682238861918449,-0.0998608022928237,9.351561546325684,1.357951521873474,-0.4467634856700897,-0.1557089388370514
3998941027.0,-0.4286983907222748,-0.3081588447093963,9.633829116821287,1.4398658275604248,-0.4876949787139892,-0.1697967499494552
3998949360.0,-0.4581675231456756,-0.6283696293830872,9.767462730407717,1.461625099182129,-1.159569263458252,-0.2213454097509384
3998957693.0,-0.1120068132877349,-0.5791287422180176,9.552818298339844,1.6504788398742676,-1.3998819589614868,-0.1154817715287208
3998966026.0,0.0822871699929237,-0.197023794054985,9.394100189208984,1.6058716773986816,-0.9281318187713624,0.0216824486851692
3998974359.0,-0.1554814130067825,-0.0399915166199207,9.468917846679688,1.5384037494659424,-0.5529600381851196,-0.1030972972512245
3998982692.0,-0.3674952089786529,-0.3232241570949554,9.621724128723145,1.445193648338318,-0.8785682916641235,-0.0568636059761047
3998991025.0,-0.192015528678894,-0.6478540897369385,9.62254238128662,1.540529727935791,-1.3367043733596802,-0.1834747642278671
3998999358.0,0.1240439862012863,-0.4561063647270202,9.42326545715332,1.5349713563919067,-1.199488878250122,-0.0662384107708931
3999007691.0,0.0210508164018392,-0.1498091369867324,9.399100303649902,1.4157884120941162,-0.4560358226299286,0.0686077252030372
3999016024.0,-0.3860389292240143,-0.1616828590631485,9.596025466918944,1.462457537651062,-0.3720211386680603,-0.0474375560879707
3999024357.0,-0.4852293729782104,-0.4498428106307983,9.71021842956543,1.4638407230377195,-1.0089958906173706,-0.2179002910852432
3999032690.0,-0.1970212906599044,-0.5284473299980164,9.583640098571776,1.4470762014389038,-1.4175045490264893,-0.1789282411336898
3999041023.0,-0.011070535518229,-0.3096558749675751,9.411991119384766,1.4228194952011108,-0.8999176621437073,-0.0115392124280333
3999049356.0,-0.1610033810138702,-0.1979835033416748,9.46901798248291,1.4808486700057983,-0.5373866558074951,-0.0894192978739738
3999057689.0,-0.3872803449630737,-0.3971732854843139,9.65651798248291,1.563941240310669,-0.7629199624061584,-0.1560419350862503
3999066022.0,-0.2443303018808365,-0.5721279382705688,9.640816688537598,1.440967321395874,-1.3417505025863647,-0.0601678378880023
3999074355.0,0.0508991256356239,-0.3775144517421722,9.39572048187256,1.5013399124145508,-1.1239526271820068,0.0137676503509283
3999082688.0,-0.0379243716597557,-0.1392229348421096,9.372498512268066,1.464224934577942,-0.4463536441326141,0.0927619487047195
3999091021.0,-0.4342276453971863,-0.2681815326213836,9.56348705291748,1.5039013624191284,-0.3493781387805938,-0.1000235825777053
3999099354.0,-0.5474454164505005,-0.61372309923172,9.72141170501709,1.5857131481170654,-1.128998637199402,-0.312288761138916
3999107687.0,-0.2399804443120956,-0.6450846791267395,9.623238563537598,1.5999290943145752,-1.3667497634887695,-0.1193111091852188
3999116020.0,-0.0207404308021068,-0.2373021394014358,9.386334419250488,1.503401756286621,-1.1529606580734253,0.0539948046207428
3999124353.0,-0.1858165562152862,-0.0262795444577932,9.438369750976562,1.5876728296279907,-0.5101971626281738,0.0332472808659076
3999132686.0,-0.4417526125907898,-0.2386757582426071,9.61716079711914,1.4912223815917969,-0.7465524673461914,-0.2448208481073379
3999141019.0,-0.2975057363510132,-0.6247965097427368,9.63529109954834,1.50126314163208,-1.3827077150344849,-0.1836540699005127
3999149352.0,0.0497005805373191,-0.5237016081809998,9.452728271484377,1.433167576789856,-1.3093868494033811,-0.1314906775951385
3999157685.0,0.0376239530742168,-0.1697584241628646,9.363829612731934,1.498407006263733,-0.6970529556274414,0.0367308109998703
3999166018.0,-0.3226361274719238,-0.0888526141643524,9.52637767791748,1.456732988357544,-0.2489831894636154,-0.0656621009111404
3999174351.0,-0.5376436114311218,-0.3455240428447723,9.703505516052246,1.389879584312439,-0.942462921142578,-0.3033878207206726
3999182684.0,-0.2754769623279571,-0.5434514880180359,9.652552604675291,1.3517398834228516,-1.5054638385772705,-0.3498519957065582
3999191017.0,0.0532848127186298,-0.3414278626441955,9.45167350769043,1.382771611213684,-1.225948452949524,-0.0904438570141792
3999199350.0,-0.0443833917379379,-0.171653926372528,9.408942222595217,1.4843833446502686,-0.5865403413772583,-0.0680570229887962
3999207683.0,-0.3720622658729553,-0.3115349113941192,9.582334518432615,1.4098074436187744,-0.7204387784004211,-0.1281095892190933
3999216016.0,-0.2842457890510559,-0.5351978540420532,9.640487670898438,1.4495353698730469,-1.3346939086914062,-0.0478858165442943
3999224349.0,0.0280275866389274,-0.4385331273078918,9.511411666870115,1.388573408126831,-1.359437108039856,-0.0814660787582397
3999232682.0,0.081542395055294,-0.1591078042984008,9.37606716156006,1.4757897853851318,-0.6027670502662659,-0.0458366759121418
3999241015.0,-0.2638182938098907,-0.2075254321098327,9.49462604522705,1.4162367582321167,-0.3007495701313019,-0.1042627468705177
3999249348.0,-0.4936771094799042,-0.5322777032852173,9.74839210510254,1.474919080734253,-0.7894435524940491,-0.2550281286239624
3999257681.0,-0.2776966691017151,-0.7243961095809937,9.679574966430664,1.519615888595581,-1.4396096467971802,-0.1296464651823043
3999266014.0,0.0501698739826679,-0.3860173225402832,9.498695373535156,1.6118782758712769,-1.2328258752822876,-0.0089521752670407
3999274347.0,-0.0203998945653438,-0.0599336810410022,9.373258590698242,1.4879437685012815,-0.5669711232185364,-0.0291233863681554
3999282680.0,-0.3562258183956146,-0.1665397137403488,9.535183906555176,1.435588240623474,-0.5560337901115417,-0.1279943436384201
3999291013.0,-0.3852573335170746,-0.5492055416107178,9.670559883117676,1.3962446451187134,-1.1297926902770996,-0.1343466788530349
3999299346.0,-0.0514973811805248,-0.6462428569793701,9.543747901916504,1.5680266618728638,-1.3881504535675049,-0.0576448366045951
3999307679.0,0.0759486481547355,-0.3441408574581146,9.359684944152832,1.5555012226104736,-0.8413891792297363,0.0382932797074317
3999316012.0,-0.1953441351652145,-0.1186942756175994,9.443869590759276,1.4508159160614014,-0.3516706228256225,0.0321458615362644
3999324345.0,-0.5011568069458008,-0.2634105980396271,9.676759719848633,1.4724085330963137,-0.6526634097099304,-0.1192214488983154
3999332678.0,-0.4280559122562408,-0.5712839365005493,9.708600997924805,1.472741723060608,-1.2900737524032593,-0.211535170674324
3999341011.0,-0.0745953023433685,-0.4901022911071777,9.524192810058594,1.3210541009902954,-1.3033673763275146,-0.1649684756994247
3999349344.0,-0.0097677214071154,-0.1943834125995636,9.38205623626709,1.470513105392456,-0.8217430710792542,-0.1116652488708496
3999357677.0,-0.2636322975158691,-0.2321384102106094,9.493297576904297,1.434909462928772,-0.4966471791267395,-0.0584132596850395
3999366010.0,-0.3977991640567779,-0.4673371016979217,9.669795989990234,1.507346510887146,-0.9632617235183716,-0.1482679843902588
3999374343.0,-0.1908200085163116,-0.5484219193458557,9.594060897827148,1.506296157836914,-1.3375624418258667,-0.1117677092552185
3999382676.0,0.0495195016264915,-0.2766002118587494,9.377342224121094,1.5145697593688965,-1.087695837020874,0.0049435477703809
3999391009.0,-0.1232577934861183,-0.1356250494718551,9.380796432495115,1.5279531478881836,-0.4994775354862213,-0.0998698994517326
3999399342.0,-0.4661865532398224,-0.360238641500473,9.674542427062988,1.3663272857666016,-0.4922288060188293,-0.1718715131282806
3999407675.0,-0.4663500487804413,-0.6568360328674316,9.727753639221191,1.4937583208084106,-1.1650892496109009,-0.1878548115491867
3999416008.0,-0.123191624879837,-0.5517243146896362,9.557642936706545,1.6746203899383545,-1.2839648723602295,-0.0895217582583427
3999424341.0,0.0233117956668138,-0.1473398655653,9.382712364196776,1.4931690692901611,-0.8766984939575195,-0.078738160431385
3999432674.0,-0.189056783914566,-0.0584315918385982,9.451295852661133,1.468656301498413,-0.5091598033905029,-0.0343230739235878
3999441007.0,-0.417547196149826,-0.3133231401443481,9.66895580291748,1.389751672744751,-0.8296067118644714,-0.1516746878623962
3999449340.0,-0.25905242562294,-0.6588041186332703,9.687292098999023,1.3588863611221311,-1.3300831317901611,-0.1728320270776748
3999457673.0,0.0930510014295578,-0.4952765703201294,9.438994407653809,1.4578983783721924,-1.26680326461792,-0.0841683819890022
3999466006.0,0.0367283597588539,-0.1415947824716568,9.348650932312012,1.580052375793457,-0.6694280505180359,-0.0100151654332876
3999474339.0,-0.3326286673545837,-0.1044744476675987,9.592227935791016,1.5909897089004517,-0.3258130252361297,-0.0163418818265199
3999482672.0,-0.5180661082267761,-0.3868901133537292,9.769481658935549,1.4281599521636963,-0.821653425693512,-0.1629577428102493
3999491005.0,-0.2433275282382965,-0.5720853805541992,9.651989936828612,1.4747523069381714,-1.4304524660110474,-0.0572221986949443
3999499338.0,0.0502588115632534,-0.3703633844852447,9.420308113098145,1.5724449157714844,-1.1428815126419067,-0.0453115776181221
3999507671.0,-0.038360696285963,-0.171796977519989,9.36915111541748,1.5225741863250732,-0.5824933052062988,0.0737049654126167
3999516004.0,-0.3331508040428161,-0.2908775210380554,9.623727798461914,1.2899072170257568,-0.6700811982154846,-0.1385601907968521
3999524337.0,-0.3207772970199585,-0.5188749432563782,9.68935775756836,1.4759178161621094,-1.1777551174163818,-0.2100751399993896
3999532670.0,-0.0652804225683212,-0.4789197444915771,9.494290351867676,1.5286191701889038,-1.246567964553833,-0.1186963766813278
3999541003.0,0.0669430121779441,-0.1652568280696869,9.283080101013184,1.4556952714920044,-0.8373036980628967,-0.0532263778150081
3999549336.0,-0.1780271083116531,-0.148149698972702,9.421260833740234,1.4251631498336792,-0.4214822351932525,0.0031377435661852
3999557669.0,-0.4572025239467621,-0.4522743821144104,9.758195877075195,1.4486770629882812,-0.735692024230957,-0.1765845268964767
3999566002.0,-0.3817503154277801,-0.6764577031135559,9.746781349182127,1.51628577709198,-1.2018582820892334,-0.1827191412448883
3999574335.0,-0.080734372138977,-0.4456323981285095,9.440821647644045,1.7162048816680908,-1.3061081171035769,-0.0145360799506306
3999582668.0,-0.0289672277867794,-0.0735466927289962,9.332104682922363,1.5734825134277344,-0.7717185616493225,0.033836405724287
3999591001.0,-0.2477959394454956,-0.0938381478190422,9.502787590026855,1.4271739721298218,-0.6433398723602295,-0.036000806838274
3999599334.0,-0.3588438332080841,-0.4317527413368225,9.69685173034668,1.3498958349227903,-0.9187954664230348,-0.1830777525901794
3999607667.0,-0.1537405103445053,-0.644655704498291,9.598350524902344,1.349434733390808,-1.2311608791351318,-0.1162758246064186
3999616000.0,0.0216202791780233,-0.4189381897449493,9.32762050628662,1.52321457862854,-1.12810218334198,0.0247049294412136
3999624333.0,-0.1229073032736778,-0.1461826562881469,9.384236335754396,1.5049899816513062,-0.4895008206367492,-0.0245256293565034
3999632666.0,-0.4100582301616668,-0.2023181021213531,9.668410301208496,1.3331953287124634,-0.52254319190979,-0.1205789968371391
3999640999.0,-0.4530251026153564,-0.4771278500556946,9.752215385437012,1.3376520872116089,-1.0108273029327393,-0.1994708478450775
3999649332.0,-0.1813925206661224,-0.5523695945739746,9.563145637512209,1.393311858177185,-1.2480920553207395,-0.1555936634540558
3999657665.0,-0.0436538010835647,-0.3117352128028869,9.375202178955078,1.3662632703781128,-0.9549626111984252,-0.0678905248641967
3999665998.0,-0.1809311658143997,-0.2173963487148285,9.437274932861328,1.4457699060440063,-0.593417763710022,-0.0464770309627056
3999674331.0,-0.3338673412799835,-0.3877225518226623,9.703365325927734,1.4928743839263916,-0.8681560754776001,-0.1387651115655899
3999682664.0,-0.2055047303438186,-0.5788396000862122,9.658013343811035,1.3778152465820312,-1.2680197954177856,-0.0937352925539016
3999690997.0,0.0167465917766094,-0.4069873094558716,9.405128479003906,1.5068727731704712,-1.1202131509780884,-0.0042007346637547
3999699330.0,-0.0696353390812873,-0.1233993917703628,9.359416007995604,1.523842215538025,-0.7093478441238403,-0.012051498517394
3999707663.0,-0.3359904885292053,-0.249426782131195,9.56503200531006,1.371206760406494,-0.6215934157371521,-0.2056951075792312
3999715996.0,-0.4186505675315857,-0.6172130107879639,9.800674438476562,1.4383288621902466,-1.0035400390625,-0.2819871008396148
3999724329.0,-0.1964804530143737,-0.7023947238922119,9.609578132629396,1.6431403160095217,-1.252894639968872,-0.1082969829440116
3999732662.0,-0.0229649376124143,-0.2568600177764892,9.361234664916992,1.6513752937316897,-0.9273504614830016,0.0456189513206481
3999740995.0,-0.1724693477153778,0.0391332022845745,9.4179048538208,1.492887258529663,-0.6778295040130615,-0.0308907683938741
3999749328.0,-0.3430646657943725,-0.1850655078887939,9.616039276123049,1.4339103698730469,-0.7826045155525208,-0.2202952206134796
3999757661.0,-0.2021234035491943,-0.6352856159210205,9.68321132659912,1.3828099966049194,-1.387356519699097,-0.2781834304332733
3999765994.0,0.0782462134957313,-0.6277938485145569,9.461238861083984,1.4325530529022217,-1.216099977493286,-0.0849496126174926
3999774327.0,-0.0023318268358707,-0.2372097373008728,9.360846519470217,1.5482265949249268,-0.5959023833274841,0.0308907646685838
3999782660.0,-0.3452748954296112,-0.0680306926369667,9.544102668762209,1.4810919761657717,-0.4513868689537048,-0.121091291308403
3999790993.0,-0.4756960868835449,-0.3223568797111511,9.753378868103027,1.498663306236267,-0.992205798625946,-0.2091786414384842
3999799326.0,-0.2360872775316238,-0.5511934161186218,9.634196281433104,1.4449758529663086,-1.3072352409362793,-0.1804394721984863
3999807659.0,-0.0141235524788498,-0.3966459631919861,9.420024871826172,1.5368415117263794,-0.9162469506263732,0.0008068484603427
3999815992.0,-0.1928835660219192,-0.1672620773315429,9.405101776123049,1.476442813873291,-0.5798806548118591,-0.0841427519917488
3999824325.0,-0.4078724682331085,-0.2928197681903839,9.626811027526855,1.5162345170974731,-0.8462558388710022,-0.141198456287384
3999832658.0,-0.251592218875885,-0.572148859500885,9.695406913757324,1.5440645217895508,-1.288114309310913,-0.2511219382286072
3999840991.0,0.0837839022278785,-0.4642719626426697,9.421630859375,1.5979440212249756,-1.2553919553756714,-0.0783667489886283
3999849324.0,0.0480384938418865,-0.0965419188141822,9.321656227111816,1.5029407739639282,-0.5655751824378967,-0.0654315575957298
3999857657.0,-0.3426211774349212,-0.1478778719902038,9.481500625610352,1.4091800451278689,-0.3991722166538238,-0.1571433395147323
3999865990.0,-0.5225977897644043,-0.5339258909225464,9.763526916503906,1.4114339351654053,-0.9154015183448792,-0.2060409039258957
3999874323.0,-0.1956892609596252,-0.726868212223053,9.66899585723877,1.6003645658493042,-1.4396991729736328,-0.2782474458217621
3999882656.0,0.028125574812293,-0.327995628118515,9.421496391296388,1.5485596656799316,-1.0017086267471311,-0.0259600263088941
3999890989.0,-0.2014598250389099,0.0464291051030159,9.417075157165527,1.4327963590621948,-0.3843927979469299,0.0879720896482467
3999899322.0,-0.4720947742462158,-0.198663055896759,9.638834953308104,1.4542865753173828,-0.7140223979949951,-0.1178767010569572
3999907655.0,-0.2988868355751037,-0.5044009685516357,9.646832466125488,1.2750381231307983,-1.4785815477371216,-0.2253028154373169
3999915988.0,0.0270951148122549,-0.6393213868141174,9.494094848632812,1.2734500169754028,-1.4708205461502075,0.0317232236266136
3999924321.0,0.1315950900316238,-0.2088249623775482,9.315129280090332,1.541964054107666,-0.7155848145484924,0.1462956964969635
3999932654.0,-0.2523236870765686,-0.1404532194137573,9.4808931350708,1.4233702421188354,-0.219795748591423,-0.1176461949944496
3999940987.0,-0.5014668703079224,-0.3258712589740753,9.67264175415039,1.6033101081848145,-0.7671719193458557,-0.1261244714260101
3999949320.0,-0.3172191977500915,-0.5710576176643372,9.690534591674805,1.520217776298523,-1.3513301610946655,-0.1848579198122024
3999957653.0,-0.0422504805028438,-0.3309575617313385,9.50399684906006,1.6098418235778809,-1.0771809816360474,0.0239621140062809
3999965986.0,-0.1471553891897201,-0.1920681744813919,9.427362442016602,1.4639687538146973,-0.50147545337677,-0.0941323041915893
3999974319.0,-0.3941429853439331,-0.3573489785194397,9.57265853881836,1.4047998189926147,-0.6740897297859192,-0.269384890794754
3999982652.0,-0.2633882761001587,-0.5535123944282532,9.598764419555664,1.4426960945129397,-1.3217328786849976,-0.2329742610454559
3999990985.0,0.0737923309206962,-0.3829242289066314,9.472887992858888,1.508806586265564,-1.3328495025634766,-0.1207327097654342
3999999318.0,0.0036407969892024,-0.147048145532608,9.392455101013184,1.5235986709594729,-0.6497307419776917,0.0077226911671459
4000007651.0,-0.3553745746612549,-0.3180655241012573,9.546249389648438,1.3552875518798828,-0.285880446434021,-0.2611114978790283
4000015984.0,-0.4952788054943084,-0.636544942855835,9.701592445373535,1.5873655080795288,-1.060595989227295,-0.2230872064828872
4000024317.0,-0.1900304704904556,-0.5862115621566772,9.614302635192873,1.4683103561401367,-1.3222194910049438,-0.1272130757570266
4000032650.0,0.0097384173423051,-0.248243823647499,9.511699676513672,1.484216809272766,-0.9037342667579652,0.0729493349790573
4000040983.0,-0.1790142059326172,-0.1320200264453888,9.516478538513184,1.5681034326553345,-0.4868881702423095,-0.0504984632134437
4000049316.0,-0.3625056743621826,-0.3653793632984161,9.543392181396484,1.5264036655426023,-0.8834478259086609,-0.2919895052909851
4000057649.0,-0.165469154715538,-0.5428208708763123,9.506805419921877,1.541247010231018,-1.3063771724700928,-0.2427973598241806
4000065982.0,0.0695684552192688,-0.4024740755558014,9.443018913269045,1.515017867088318,-1.0454448461532593,0.0863583832979202
4000074315.0,-0.1173137798905372,-0.2291627824306488,9.542085647583008,1.5948063135147097,-0.474708616733551,0.0253965109586715
4000082648.0,-0.424578458070755,-0.3174789249897003,9.61766242980957,1.5052334070205688,-0.5510134100914001,-0.0705415979027748
4000090981.0,-0.3944924771785736,-0.4379310309886932,9.581802368164062,1.4774675369262695,-1.1565594673156738,-0.2380587011575698
4000099314.0,-0.1272528022527694,-0.346959501504898,9.472505569458008,1.4437847137451172,-1.2210562229156494,-0.1939765810966491
4000107647.0,-0.1010371893644332,-0.3065506815910339,9.573168754577637,1.549750804901123,-0.8010082840919495,-0.0638562887907028
4000115980.0,-0.2626523971557617,-0.3723269402980804,9.593113899230955,1.4462051391601562,-0.7387016415596008,-0.050267931073904
4000124313.0,-0.1913560479879379,-0.4976377785205841,9.49482536315918,1.5457165241241455,-1.0613898038864136,-0.111947014927864
4000132646.0,-0.0151753593236207,-0.3890033066272735,9.39655876159668,1.4928103685379028,-1.175565242767334,-0.0234370231628417
4000140979.0,-0.0460285432636737,-0.2036414444446563,9.463132858276367,1.470807671546936,-0.7123575210571289,-0.0127558894455432
4000149312.0,-0.3115134537220001,-0.2793828845024109,9.65864086151123,1.5492385625839231,-0.5290107727050781,-0.0721296817064285
4000157645.0,-0.4176499843597412,-0.5108896493911743,9.601550102233888,1.5603166818618774,-0.9593170285224916,-0.0518816299736499
4000165978.0,-0.258209764957428,-0.5285189151763916,9.463565826416016,1.5794634819030762,-1.186963677406311,-0.1455913186073303
4000174311.0,-0.1498981416225433,-0.2975640594959259,9.506535530090332,1.5419514179229736,-0.8404671549797058,-0.0274712704122066
4000182644.0,-0.2437722235918045,-0.177336111664772,9.658648490905762,1.564927101135254,-0.6590157747268677,-0.0648168176412582
4000190977.0,-0.2685495316982269,-0.3503340184688568,9.61907196044922,1.6314473152160645,-1.0156428813934326,-0.1347692906856537
4000199310.0,-0.0814211219549179,-0.4654267132282257,9.401909828186035,1.5492514371871948,-1.278982639312744,-0.0934791415929794
4000207643.0,-0.0096134208142757,-0.3233514130115509,9.376397132873535,1.3988958597183228,-0.908985197544098,-0.0588230974972248
4000215976.0,-0.1862814873456955,-0.2522879242897033,9.581555366516112,1.4945906400680542,-0.5205709338188171,-0.0724754780530929
4000224309.0,-0.3583504557609558,-0.3504466712474823,9.652303695678713,1.5040422677993774,-0.7326312065124512,-0.211919367313385
4000232642.0,-0.2961597442626953,-0.4645634889602661,9.581296920776367,1.580756902694702,-1.1307787895202637,-0.3035670816898346
4000240975.0,-0.1828250885009765,-0.3509992957115173,9.447813034057615,1.4550678730010986,-0.9203066229820251,-0.0888685956597328
4000249308.0,-0.2404571175575256,-0.1940566748380661,9.53293800354004,1.4456546306610107,-0.7227056622505188,-0.0132681727409362
4000257641.0,-0.3208715617656708,-0.3078893721103668,9.67975616455078,1.4415051937103271,-1.0391439199447632,-0.1770456135272979
4000265974.0,-0.1916122883558273,-0.5400279760360718,9.628762245178224,1.5253790616989136,-1.32403826713562,-0.2805142700672149
4000274307.0,0.0191458370536565,-0.4323947727680206,9.420668601989746,1.4597551822662354,-1.1203025579452517,0.0796090364456176
4000282640.0,-0.0333894602954387,-0.2065883874893188,9.369887351989746,1.4915683269500732,-0.7607812285423279,0.0071719861589372
4000290973.0,-0.3140097558498382,-0.2829236090183258,9.561278343200684,1.411062717437744,-0.595953643321991,-0.1399177610874176
4000299306.0,-0.4203856289386749,-0.5455535650253296,9.7285737991333,1.4649420976638794,-0.9848672747612,-0.1763540208339691
4000307639.0,-0.227456122636795,-0.5048364400863647,9.578777313232422,1.548457145690918,-1.2240402698516846,-0.1400970369577407
4000315972.0,-0.0864100977778434,-0.2133718580007553,9.43850040435791,1.4519429206848145,-1.0417181253433228,-0.0460928194224834
4000324305.0,-0.1844074428081512,-0.176603689789772,9.534890174865724,1.4285826683044434,-0.6958234310150146,-0.1193495243787765
4000332638.0,-0.2893095910549164,-0.462516039609909,9.636835098266602,1.4338593482971191,-0.8545037508010864,-0.2371494323015213
4000340971.0,-0.1172318160533905,-0.5572562217712402,9.547435760498049,1.4273276329040527,-1.2383073568344116,-0.1929904371500015
4000349304.0,0.0445179380476474,-0.2871202826499939,9.366900444030762,1.4460902214050293,-0.9556159377098083,-0.0264595057815313
4000357637.0,-0.178163006901741,-0.1716968417167663,9.436216354370115,1.5107916593551636,-0.4927410185337066,-0.0337595604360103
4000365970.0,-0.4247430562973022,-0.3649736642837524,9.655206680297852,1.4743808507919312,-0.6931852102279663,-0.2086151391267776
4000374303.0,-0.3020708560943603,-0.5029297471046448,9.648303985595703,1.5010709762573242,-1.249449610710144,-0.2434248775243759
4000382636.0,-0.0902791619300842,-0.3505895435810089,9.434337615966797,1.5111374855041504,-1.0891045331954956,-0.1352303773164749
4000390969.0,-0.18028025329113,-0.2421022802591323,9.489261627197266,1.4505212306976318,-0.7104876041412354,-0.0407522469758987
4000399302.0,-0.3604174554347992,-0.4045218825340271,9.629443168640137,1.4229861497879028,-0.8822822570800781,-0.1082457676529884
4000407635.0,-0.2067353129386901,-0.5078134536743164,9.599885940551758,1.501096487045288,-1.352213740348816,-0.1093343570828437
4000415968.0,0.0524202622473239,-0.3100196719169616,9.432214736938477,1.4995853900909424,-1.1920480728149414,-0.0102328853681683
4000424301.0,-0.0137350466102361,-0.194002017378807,9.455659866333008,1.5778367519378662,-0.6265882253646851,-0.095169685781002
4000432634.0,-0.3231010735034942,-0.3747946619987488,9.567535400390623,1.4873032569885254,-0.5875392556190491,-0.2071935534477234
4000440967.0,-0.4125727713108063,-0.5929127931594849,9.62221622467041,1.3584381341934204,-1.00295090675354,-0.3341889083385467
4000449300.0,-0.1948946416378021,-0.4808691442012787,9.555587768554688,1.559906840324402,-1.1725555658340454,-0.105210468173027
4000457633.0,-0.134269580245018,-0.2039289623498916,9.530718803405762,1.6005055904388428,-0.7717440724372864,-0.0060577662661671
4000465966.0,-0.2676662802696228,-0.208869382739067,9.598715782165527,1.5550273656845093,-0.7225006818771362,-0.1100643649697303
4000474299.0,-0.2474187016487121,-0.4366716146469116,9.552760124206545,1.4836790561676023,-1.082188606262207,-0.3213690221309662
4000482632.0,-0.0894598439335823,-0.4820812940597534,9.479033470153809,1.5875189304351809,-1.1338781118392944,-0.0974749624729156
4000490965.0,-0.0205061323940753,-0.2925282418727875,9.38339614868164,1.531718373298645,-0.8963445425033569,-0.0517919845879077
4000499298.0,-0.213700532913208,-0.2356346547603607,9.522924423217772,1.5743917226791382,-0.6158173680305481,-0.0424427837133407
4000507631.0,-0.3708820641040802,-0.399579256772995,9.65883445739746,1.3263050317764282,-0.867182731628418,-0.2332304120063781
4000515964.0,-0.2654337584972381,-0.4373073279857635,9.574872016906738,1.4653903245925903,-1.1363881826400757,-0.1560034900903701
4000524297.0,-0.1415261477231979,-0.2824013829231262,9.452617645263672,1.311333417892456,-0.9875823855400084,-0.0230784248560667
4000532630.0,-0.2278966605663299,-0.2808564305305481,9.570347785949709,1.4682973623275757,-0.7879707217216492,-0.1675683110952377
4000540963.0,-0.3432110249996185,-0.4383489191532135,9.702272415161133,1.499367594718933,-0.960252046585083,-0.1260220408439636
4000549296.0,-0.1546755731105804,-0.4664612710475921,9.523258209228516,1.5741868019104004,-1.2927247285842896,-0.2006362825632095
4000557629.0,0.0815138891339302,-0.2801225483417511,9.34575080871582,1.4739840030670166,-1.117830753326416,-0.0372431017458438
4000565962.0,-0.0722293481230735,-0.179765298962593,9.45238971710205,1.4949620962142944,-0.5879747867584229,-0.1328098028898239
4000574295.0,-0.3776558041572571,-0.4005234837532043,9.677868843078612,1.3395859003067017,-0.6337985992431641,-0.0294563677161932
4000582628.0,-0.3684515058994293,-0.5727093815803528,9.609418869018556,1.56623375415802,-1.0422048568725586,-0.2324107736349105
4000590961.0,-0.1409475058317184,-0.4054321348667145,9.433528900146484,1.604757308959961,-1.092306137084961,-0.0681210532784462
4000599294.0,-0.1721474677324295,-0.1879910230636596,9.52524757385254,1.5159015655517578,-0.690546989440918,0.0991014689207077
4000607627.0,-0.2997890710830688,-0.2502181231975555,9.67308521270752,1.4607412815093994,-0.8056957125663757,-0.2043503671884536
4000615960.0,-0.1963391900062561,-0.4879674315452575,9.558478355407717,1.7115046977996826,-1.2375516891479492,-0.1913895606994629
4000624293.0,0.0075610117055475,-0.4294815957546234,9.393182754516602,1.520934820175171,-1.2240272760391235,-0.0667506828904151
4000632626.0,-0.0533735007047653,-0.2433282136917114,9.43252658843994,1.5369691848754885,-0.7455534934997559,-0.0157783683389425
4000640959.0,-0.2816503345966339,-0.2375959903001785,9.59373664855957,1.5428094863891602,-0.6231687664985657,-0.1142907291650772
4000649292.0,-0.3318766355514526,-0.4072344303131103,9.625192642211914,1.5718815326690674,-0.98671156167984,-0.3380822837352752
4000657625.0,-0.2140103876590728,-0.434479147195816,9.557072639465332,1.5260576009750366,-1.1278460025787354,-0.1619075685739517
4000665958.0,-0.1697226613759994,-0.2611288428306579,9.499740600585938,1.4482160806655884,-0.7939644455909729,0.1032637879252433
4000674291.0,-0.3119425475597381,-0.2739253640174866,9.554275512695312,1.4200915098190308,-0.7223725914955139,-0.2070910930633545
4000682624.0,-0.3308212757110595,-0.4842857122421264,9.639726638793944,1.5196027755737305,-1.0772322416305542,-0.2895433008670807
4000690957.0,-0.1088963449001312,-0.474069207906723,9.584980010986328,1.5272486209869385,-1.3769314289093018,-0.1575659364461898
4000699290.0,0.0826659202575683,-0.2109477221965789,9.403411865234377,1.4925925731658936,-1.1157687902450562,0.0078635700047016
4000707623.0,-0.0625659152865409,-0.1900081187486648,9.391868591308594,1.412407398223877,-0.6005001664161682,-0.1251767724752426
4000715956.0,-0.3703385591506958,-0.4753206074237823,9.643404006958008,1.3815678358078003,-0.5959407687187195,-0.2874941527843475
4000724289.0,-0.3389817476272583,-0.6311436891555786,9.66326141357422,1.4262388944625854,-1.138219714164734,-0.2267628163099289
4000732622.0,-0.0889400616288185,-0.3485570251941681,9.463604927062988,1.5363932847976685,-1.1337502002716064,-0.0645606815814971
4000740955.0,-0.1847579330205917,-0.1736066490411758,9.495585441589355,1.4338977336883545,-0.6742690801620483,-0.0896498188376426
4000749288.0,-0.3826698958873749,-0.3176721334457397,9.667912483215332,1.3826435804367063,-0.7684270143508911,-0.1478709727525711
4000757621.0,-0.2792541682720184,-0.4996322989463806,9.597532272338867,1.544755935668945,-1.3318376541137695,-0.1700272858142852
4000765954.0,0.0205064918845891,-0.4115281105041504,9.364718437194824,1.4800288677215576,-1.1679580211639404,-0.1783263087272644
4000774287.0,-0.0687388032674789,-0.2403998672962188,9.437581062316896,1.4754951000213623,-0.6238859295845032,0.0220410507172346
4000782620.0,-0.3276931941509247,-0.3125720918178558,9.643627166748049,1.431566596031189,-0.6468874216079712,-0.1226665675640106
4000790953.0,-0.3126420080661773,-0.4623531103134155,9.578837394714355,1.5404528379440308,-1.04449725151062,-0.2632887065410614
4000799286.0,-0.1577415764331817,-0.3729645609855652,9.508588790893556,1.468656063079834,-1.1230305433273315,-0.1159556433558464
4000807619.0,-0.1829703003168106,-0.2329410165548324,9.562163352966309,1.4769679307937622,-0.8143917322158813,-0.0655852481722831
4000815952.0,-0.3313401043415069,-0.3072089254856109,9.638677597045898,1.5386983156204224,-0.8402877449989319,-0.0584132671356201
4000824285.0,-0.289936751127243,-0.5147897601127625,9.541375160217283,1.5244953632354736,-1.1219292879104614,-0.2334737777709961
4000832618.0,-0.0645146667957305,-0.4585670828819275,9.490588188171388,1.505066990852356,-1.2508840560913086,-0.1535445302724838
4000840951.0,0.0162780322134494,-0.2137607932090759,9.450268745422363,1.461625099182129,-0.9570887088775636,0.0079660266637802
4000849284.0,-0.1674480587244033,-0.2362798601388931,9.481451034545898,1.4990859031677246,-0.561079740524292,-0.0726419687271118
4000857617.0,-0.3553603887557983,-0.509947657585144,9.594644546508787,1.4692453145980835,-0.7763417959213257,-0.1634444296360016
4000865950.0,-0.337280124425888,-0.5416501760482788,9.615440368652344,1.5216007232666016,-1.1108636856079102,-0.0410340018570423
4000874283.0,-0.1331124454736709,-0.2905133962631225,9.450113296508787,1.4964990615844729,-1.0536673069000244,0.0076202359050512
4000882616.0,-0.2025184482336044,-0.2125896513462066,9.526921272277832,1.4102940559387207,-0.6552505493164062,-0.0114879831671714
4000890949.0,-0.3063749969005584,-0.3941581547260284,9.685332298278809,1.5774784088134766,-0.8995591998100281,-0.1489595770835876
4000899282.0,-0.1539943963289261,-0.4946084320545196,9.5576171875,1.638414740562439,-1.277753472328186,-0.2012382596731186
4000907615.0,0.0626523718237876,-0.3501926958560943,9.326422691345217,1.486829400062561,-1.0242491960525513,-0.0661487653851509
4000915948.0,-0.1068563237786293,-0.2131475657224655,9.465700149536133,1.519423484802246,-0.5448659658432007,-0.1332452446222305
4000924281.0,-0.3659036755561828,-0.3128868043422699,9.678025245666504,1.4939628839492798,-0.7507275342941284,-0.1219493746757507
4000932614.0,-0.2656270265579223,-0.4534724354743957,9.561107635498049,1.4814122915267944,-1.077616572380066,-0.1085019037127494
4000940947.0,-0.12171421200037,-0.3862999081611633,9.416661262512209,1.5009814500808716,-1.0138628482818604,-0.1201307699084281
4000949280.0,-0.2467515915632248,-0.2300283312797546,9.540827751159668,1.4043900966644287,-0.7136894464492798,-0.0849880278110504
4000957613.0,-0.3825269937515259,-0.3230049014091491,9.648886680603027,1.4913760423660278,-0.9154527187347412,-0.2213069796562194
4000965946.0,-0.2302415370941162,-0.5282183885574341,9.558306694030762,1.4496504068374634,-1.3391377925872805,-0.1743048727512359
4000974279.0,0.0146805951371788,-0.3624235391616821,9.444746971130373,1.4856512546539309,-1.123478889465332,-0.054724808782339
4000982612.0,0.0310361851006746,-0.1640719175338745,9.453140258789062,1.507308006286621,-0.7271881699562073,-0.0857308432459831
4000990945.0,-0.2106941491365432,-0.3115921318531036,9.49570655822754,1.3928123712539673,-0.6008330583572388,-0.1507141590118408
4000999278.0,-0.3486510217189789,-0.5816406011581421,9.630887985229492,1.414674162864685,-0.8599338531494141,-0.1333348900079727
4001007611.0,-0.2447343319654464,-0.4920728504657745,9.579007148742676,1.5647096633911133,-1.0234423875808716,-0.0739739164710044
4001015944.0,-0.1266768425703048,-0.222403347492218,9.445364952087402,1.4230115413665771,-0.8099220991134644,-0.0249994918704032
4001024277.0,-0.2634320557117462,-0.187776431441307,9.56310749053955,1.3691704273223877,-0.6952471733093262,-0.0326325297355651
4001032610.0,-0.3761829137802124,-0.4141180515289306,9.674271583557127,1.5335626602172852,-0.9429879784584044,-0.2559118270874023
4001040943.0,-0.1479718387126922,-0.51002037525177,9.520082473754885,1.5763897895812988,-1.296823024749756,-0.1568103581666946
