SampleTimeFine,Acc_X,Acc_Y,Acc_Z,Gyr_X,Gyr_Y,Gyr_Z
2498209392.0,0.0,0.0,0.0,0.0,0.0,0.0
2498217725.0,-0.321239173412323,0.1496061384677887,9.663082122802734,-1.3027654886245728,-1.795404076576233,0.3652205467224121
2498226058.0,-0.3264625370502472,0.3448968529701233,9.722932815551758,-1.2231436967849731,-1.2152031660079956,0.3702537417411804
2498234391.0,-0.5547530651092529,0.437303364276886,9.69131565093994,-1.1070984601974487,-0.999800443649292,0.288301020860672
2498242724.0,-0.6930392980575562,0.2812424004077911,9.64088535308838,-1.3877407312393188,-1.3866393566131592,0.2891846895217895
2498251057.0,-0.5703083276748657,0.2281663715839386,9.660477638244627,-1.3630999326705933,-1.809863328933716,0.3111360967159271
2498259390.0,-0.4532023072242737,0.3725437819957733,9.699944496154783,-1.2719134092330933,-1.8368608951568604,0.4201502799987793
2498267723.0,-0.4265178442001343,0.3987112641334533,9.69252872467041,-1.3247040510177612,-1.5928852558135986,0.3614168465137481
2498276056.0,-0.4612169563770294,0.2172706425189972,9.597564697265623,-1.2581069469451904,-1.7045888900756836,0.3304236233234405
2498284389.0,-0.4062640070915222,0.1399920135736465,9.599637031555176,-1.3782891035079956,-1.8261281251907349,0.4128758013248443
2498292722.0,-0.4145195782184601,0.3396262228488922,9.72077751159668,-1.3535457849502563,-1.6738262176513672,0.314568430185318
2498301055.0,-0.446575254201889,0.4660281538963318,9.73995304107666,-1.1821610927581787,-1.5069496631622314,0.3370065093040466
2498309388.0,-0.5696458220481873,0.2416286021471023,9.624958038330078,-1.4065159559249878,-1.4290053844451904,0.3306541442871094
2498317721.0,-0.5697498917579651,0.0010392199037596,9.60049533843994,-1.453338861465454,-1.612992286682129,0.3887728154659271
2498326054.0,-0.5105317234992981,0.1697582602500915,9.663104057312012,-1.2066996097564695,-1.9340925216674805,0.3336766362190246
2498334387.0,-0.4405754506587982,0.4261353015899658,9.697818756103516,-1.107213854789734,-1.75384521484375,0.300403743982315
2498342720.0,-0.4407443404197693,0.4631208181381225,9.67881679534912,-1.319606900215149,-1.706817388534546,0.2583707869052887
2498351053.0,-0.4452538192272186,0.2307502925395965,9.648385047912598,-1.4817705154418943,-1.981401801109314,0.3860577344894409
2498359386.0,-0.4222817718982696,0.0307182967662811,9.52188205718994,-1.5259039402008057,-2.2543725967407227,0.4792166948318481
2498367719.0,-0.3907090127468109,0.2778999209403991,9.654935836791992,-1.3677873611450195,-2.0279688835144043,0.4668194651603699
2498376052.0,-0.439284473657608,0.4139319658279419,9.707209587097168,-1.233312487602234,-1.7948535680770874,0.4498884081840515
2498384385.0,-0.5374299883842468,0.2736075818538666,9.75383472442627,-1.4475884437561035,-1.6673073768615725,0.483840137720108
2498392718.0,-0.5424244999885559,0.2133954018354416,9.613862037658691,-1.5035299062728882,-1.931928038597107,0.4528980553150177
2498401051.0,-0.592269241809845,0.2996845841407776,9.664545059204102,-1.5876857042312622,-2.2321910858154297,0.5245795845985413
2498409384.0,-0.4044777452945709,0.3749438524246216,9.667153358459473,-1.5221900939941406,-2.2827534675598145,0.4865680038928985
2498417717.0,-0.3622839450836181,0.2971696555614471,9.656635284423828,-1.5434753894805908,-2.2841367721557617,0.4444582462310791
2498426050.0,-0.3541271388530731,0.1765602976083755,9.710068702697754,-1.6139144897460938,-2.4099538326263428,0.5646657943725586
2498434383.0,-0.3927145600318908,0.1018263399600982,9.55901050567627,-1.6977754831314087,-2.433134794235229,0.624936044216156
2498442716.0,-0.3625410497188568,0.468733012676239,9.817830085754396,-1.5231631994247437,-2.217385768890381,0.6082355976104736
2498451049.0,-0.4570030272006988,0.3707213401794433,9.754035949707031,-1.5558984279632568,-2.01055121421814,0.6247825026512146
2498459382.0,-0.593023955821991,0.134282648563385,9.626843452453612,-1.8674827814102173,-2.225877046585083,0.9071666598320008
2498467715.0,-0.5488492846488953,0.0486791618168354,9.586275100708008,-1.6774762868881226,-2.624742031097412,0.7957702279090881
2498476048.0,-0.3427354395389557,0.2131458222866058,9.658833503723145,-1.2729891538619995,-2.4640252590179443,0.6500893235206604
2498484381.0,-0.1527848541736602,0.4726139008998871,9.81423568725586,-1.2956832647323608,-1.718523025512695,0.6650992035865784
2498492714.0,-0.2717393636703491,0.3665090501308441,9.74113655090332,-1.2564808130264282,-1.520358681678772,0.7414681315422058
2498501047.0,-0.4454802870750427,0.1223418340086937,9.596070289611816,-1.5068342685699463,-1.6189732551574707,0.7797868847846985
2498509380.0,-0.5193687677383423,0.1906057000160217,9.605184555053713,-1.466158747673035,-1.808954119682312,0.8184643983840942
2498517713.0,-0.4171087145805359,0.3161186277866363,9.689730644226074,-1.2345291376113892,-1.7736064195632937,0.7593467831611633
2498526046.0,-0.3128529489040375,0.3315670192241668,9.746469497680664,-1.170903563499451,-1.5090370178222656,0.7614471912384033
2498534379.0,-0.4352369606494903,0.2232511341571808,9.767663955688477,-1.3724875450134275,-1.3381133079528809,0.7847817540168762
2498542712.0,-0.5703646540641785,0.1396250426769256,9.582411766052246,-1.3086440563201904,-1.3585662841796875,0.6708112359046936
2498551045.0,-0.5726467967033386,0.3419485092163086,9.602612495422363,-1.1471976041793823,-1.481847643852234,0.6664055585861206
2498559378.0,-0.3893052935600281,0.350009948015213,9.6414155960083,-0.9108806848526,-1.5185784101486206,0.6383579969406128
2498567711.0,-0.3643775880336761,0.2061903327703476,9.708423614501951,-1.2933522462844849,-1.580103635787964,0.5420740246772766
2498576044.0,-0.3383437395095825,0.0768500864505767,9.589534759521484,-1.2354129552841189,-1.4460132122039795,0.5001691579818726
2498584377.0,-0.2937458157539367,0.2828663289546966,9.64079475402832,-1.0108273029327393,-1.2099010944366455,0.5038832426071167
2498592710.0,-0.3357258439064026,0.3885209560394287,9.66907024383545,-1.0102638006210327,-0.7130362391471863,0.3380566537380218
2498601043.0,-0.4848554730415344,0.2164092659950256,9.616532325744627,-1.027655839920044,-0.6721303462982178,0.3078318536281585
2498609376.0,-0.6450934410095215,0.0362219959497451,9.54041862487793,-1.1536266803741455,-0.8749182224273682,0.3663091659545898
2498617709.0,-0.5113996267318726,0.2009663879871368,9.627012252807615,-0.8657612204551697,-1.1331737041473389,0.2868666350841522
2498626042.0,-0.2842755019664764,0.4844332635402679,9.703288078308104,-0.6993838548660278,-0.9495068788528442,0.2744052708148956
2498634375.0,-0.2256793528795242,0.4585830569267273,9.704712867736816,-0.8881351351737976,-0.6059686541557312,0.2008668184280395
2498642708.0,-0.3014853298664093,0.0831231102347374,9.57249927520752,-1.1057024002075195,-0.6360910534858704,0.3444345891475677
2498651041.0,-0.3220923542976379,0.1578418612480163,9.658520698547363,-0.8854584693908691,-0.3199730515480041,0.2775942683219909
2498659374.0,-0.3708749115467071,0.4403862357139587,9.722558975219728,-0.8798360824584961,-0.227825790643692,0.1595254391431808
2498667707.0,-0.4688403606414795,0.527071475982666,9.774001121520996,-0.9719961285591124,-0.0401503071188926,0.1830393224954605
2498676040.0,-0.6405586004257202,0.3280507624149322,9.695698738098145,-1.2660475969314575,-0.417883425951004,0.1675939410924911
2498684373.0,-0.6456085443496704,0.18905670940876,9.662123680114746,-1.198400378227234,-0.9017106890678406,0.220666617155075
2498692706.0,-0.4610150456428528,0.3124361932277679,9.693633079528809,-1.0662565231323242,-1.066128492355347,0.2195652425289154
2498701039.0,-0.3964464366436004,0.3473706245422363,9.677946090698242,-1.1046139001846311,-0.8918107748031616,0.2150955349206924
2498709372.0,-0.4288987219333648,0.1410755813121795,9.597870826721191,-1.213282346725464,-0.7822459936141968,0.1808621138334274
2498717705.0,-0.3911245167255401,0.0313224159181118,9.591161727905272,-1.0530396699905396,-1.0720709562301636,0.2838569283485412
2498726038.0,-0.3065708577632904,0.2630815505981445,9.737723350524902,-0.9030681848526,-0.7325287461280823,0.2351642698049545
2498734371.0,-0.4197574257850647,0.474934458732605,9.77566909790039,-0.9641069173812866,-0.4730308353900909,0.198638379573822
2498742704.0,-0.6056382656097412,0.1800585836172104,9.62973690032959,-1.147171974182129,-0.6594513058662415,0.2362144589424133
2498751037.0,-0.5714978575706482,0.0918782651424408,9.726929664611816,-1.1756037473678589,-1.0176663398742676,0.1911334097385406
2498759370.0,-0.4008668661117553,0.1892713010311126,9.688310623168944,-1.066909670829773,-1.1597355604171753,0.1969862580299377
2498767703.0,-0.3677490949630737,0.5933641195297241,9.88752555847168,-1.1171135902404783,-0.7437861561775208,0.1878932118415832
2498776036.0,-0.4824448525905609,0.5061423778533936,9.732673645019531,-1.1513214111328125,-0.6125003695487976,0.1978443562984466
2498784369.0,-0.4846535623073578,0.2128951251506805,9.656732559204102,-1.4630210399627686,-1.2052139043807983,0.1997141987085342
2498792702.0,-0.336938738822937,0.1031620800495147,9.625496864318848,-1.233440637588501,-1.4904794692993164,0.343461275100708
2498801035.0,-0.2885957658290863,0.3401534557342529,9.701751708984377,-1.145891189575195,-1.1282429695129397,0.2643389105796814
2498809368.0,-0.4150365591049194,0.4024117887020111,9.701422691345217,-1.197657585144043,-0.6931339502334595,0.1870607584714889
2498817701.0,-0.5751815438270569,0.2617439925670624,9.652912139892578,-1.3019204139709473,-0.94339781999588,0.2085126787424087
2498826034.0,-0.5551477670669556,0.1307447403669357,9.6846284866333,-1.292468547821045,-1.2334789037704468,0.2168373018503189
2498834367.0,-0.4396351873874664,0.3619982302188873,9.75626277923584,-1.1647560596466064,-1.0409111976623535,0.1789538413286209
2498842700.0,-0.4378398358821869,0.4201579988002777,9.6568603515625,-1.2137690782546997,-0.9097791910171508,0.2188480198383331
2498851033.0,-0.3935682773590088,0.2928527593612671,9.624496459960938,-1.385384202003479,-0.9267613887786864,0.2862134277820587
2498859366.0,-0.2779847979545593,0.152622103691101,9.63400173187256,-1.396193504333496,-1.0891042947769165,0.1689771115779876
2498867699.0,-0.2138342410326004,0.2575023472309112,9.720885276794434,-1.235874056816101,-0.5793555378913879,0.1537878662347793
2498876032.0,-0.4302434027194977,0.4497278928756714,9.727188110351562,-1.0073693990707395,-0.0706824734807014,0.1268929094076156
2498884365.0,-0.6533478498458862,0.3559326231479645,9.64168930053711,-1.2665085792541504,-0.3562043607234955,0.0469765029847621
2498892698.0,-0.8116599917411804,0.1108214110136032,9.490249633789062,-1.5251612663269043,-1.0933566093444824,0.1301459372043609
2498901031.0,-0.5660886764526367,0.1374467313289642,9.64051342010498,-1.273565411567688,-1.6340090036392212,0.0593866072595119
2498909364.0,-0.3287371098995209,0.3800108730792999,9.751529693603516,-1.0622735023498535,-1.500404953956604,0.0860766321420669
2498917697.0,-0.3596592545509338,0.4000370502471924,9.676373481750488,-1.2579790353775024,-1.07742440700531,0.2565009295940399
2498926030.0,-0.4224327504634857,0.1791597157716751,9.531242370605469,-1.453620672225952,-1.3424547910690308,0.1931569427251815
2498934363.0,-0.3098237812519073,0.0458620078861713,9.524998664855955,-1.4046974182128906,-1.5157607793807983,0.1869326829910278
2498942696.0,-0.2034268528223037,0.2125968039035797,9.665643692016602,-1.214921474456787,-1.1098263263702393,0.1326048970222473
2498951029.0,-0.3488012254238128,0.3778632283210754,9.722552299499512,-1.0752471685409546,-0.5469791889190674,0.0565818399190902
2498959362.0,-0.5675208568572998,0.2499060332775116,9.646159172058104,-1.333310604095459,-0.7210791110992432,0.2114711105823516
2498967695.0,-0.5618792176246643,0.137557566165924,9.62972927093506,-1.3498317003250122,-1.137643337249756,0.2262761443853378
2498976028.0,-0.4116812944412231,0.241110011935234,9.670480728149414,-1.2139482498168943,-1.2273701429367063,0.2361376285552978
2498984361.0,-0.3337085843086242,0.2935313582420349,9.649022102355955,-1.2656121253967283,-0.9865706562995912,0.3197681009769439
2498992694.0,-0.4129050970077514,0.1718612611293792,9.600122451782228,-1.357516169548035,-0.966437816619873,0.1979980319738388
2499001027.0,-0.4305703341960907,0.0560168363153934,9.571489334106444,-1.4336414337158203,-1.3612555265426636,0.2452050745487213
2499009360.0,-0.2919775247573852,0.1414642333984375,9.611761093139648,-1.1696611642837524,-1.323090434074402,0.2636985182762146
2499017693.0,-0.255513846874237,0.2862066924571991,9.617412567138672,-1.1803423166275024,-0.8096275329589844,0.3079343438148498
2499026026.0,-0.3923549056053161,0.2360938936471939,9.649542808532717,-1.2922252416610718,-0.5987711548805237,0.1973832845687866
2499034359.0,-0.4959423542022705,-0.0359144248068332,9.61113166809082,-1.269403100013733,-0.8729971051216125,0.2232536673545837
2499042692.0,-0.4985745251178741,0.0328888893127441,9.633678436279297,-1.0994271039962769,-1.0816251039505005,0.263698548078537
2499051025.0,-0.4163455367088318,0.3528569042682647,9.753581047058104,-0.8848310112953186,-0.857372522354126,0.2549128830432892
2499059358.0,-0.5632433295249939,0.5208057165145874,9.726300239562988,-1.1830190420150757,-0.9317178726196288,0.2425796389579773
2499067691.0,-0.5914977788925171,0.2598593235015869,9.639897346496582,-1.4950131177902222,-1.4226785898208618,0.2367267608642578
2499076024.0,-0.4211418032646179,0.0437452122569084,9.665216445922852,-1.6640416383743286,-2.325401306152344,0.3342401683330536
2499084357.0,-0.1626569926738739,0.2011900842189788,9.74373722076416,-1.254777431488037,-1.9739739894866943,0.3466374278068542
2499092690.0,-0.3336291909217834,0.5022822618484497,9.80472469329834,-1.5780287981033323,-1.49521803855896,0.4066515564918518
2499101023.0,-0.6202883720397949,0.3061912059783935,9.630684852600098,-1.6740823984146118,-1.6983133554458618,0.3799615502357483
2499109356.0,-0.6467577815055847,0.1595477163791656,9.692914009094238,-1.933618426322937,-2.2312302589416504,0.4665248692035675
2499117689.0,-0.3995474874973297,0.1588829159736633,9.702401161193848,-1.831020951271057,-2.537384510040283,0.6479633450508118
2499126022.0,-0.245539978146553,0.2777501940727234,9.729147911071776,-1.5491360425949097,-2.2305259704589844,0.6655346751213074
2499134355.0,-0.1208579540252685,0.269723892211914,9.751053810119627,-1.5514925718307495,-1.7177292108535769,0.9971622824668884
2499142688.0,-0.199230283498764,0.0571779459714889,9.6801176071167,-1.6080232858657837,-1.5439363718032837,1.2704917192459106
2499151021.0,-0.509454071521759,0.1259698420763015,9.62035846710205,-1.5209604501724243,-1.6702914237976074,1.2591958045959473
2499159354.0,-0.3997500240802765,0.4571235477924347,9.86866569519043,-1.2267810106277466,-1.4243947267532349,0.8405054807662964
2499167687.0,-0.2927385568618774,0.3754182159900665,9.753823280334473,-1.307593822479248,-1.0273228883743286,0.7302874326705933
2499176020.0,-0.6079108715057373,0.2299073636531829,9.752476692199709,-1.5987763404846191,-0.9436668157577516,0.7434275150299072
2499184353.0,-0.7579199075698853,0.0250873677432537,9.502697944641112,-1.7520263195037842,-1.442760348320007,0.7013946175575256
2499192686.0,-0.5574249625205994,0.330351173877716,9.80858325958252,-0.9558335542678832,-1.379492998123169,0.2362400740385055
2499201019.0,-0.3727855086326599,0.6694198250770569,9.95517921447754,-1.5034786462783811,-1.1188809871673584,0.3654766976833343
2499209352.0,-0.3786710202693939,0.4361642897129059,9.764751434326172,-1.5749807357788086,-1.321630358695984,0.390386551618576
2499217685.0,-0.528157651424408,0.2054909169673919,9.66519832611084,-1.813936233520508,-1.4952181577682495,0.4657180607318878
2499226018.0,-0.2333611100912094,0.2154217362403869,9.71338939666748,-1.6418596506118774,-1.515965700149536,0.3350598216056824
2499234351.0,-0.1953307390213012,0.3764514625072479,9.881134033203123,-1.421372413635254,-1.0029895305633545,0.3142610788345337
2499242684.0,-0.3911603689193725,0.3979341089725494,9.932430267333984,-1.5241239070892334,-0.5453014373779297,0.3552566468715668
2499251017.0,-0.5954278111457825,0.3161855638027191,9.759910583496094,-1.6416418552398682,-0.6503453850746155,0.3329722285270691
2499259350.0,-0.6634313464164734,0.3144986927509308,9.669179916381836,-1.721532702445984,-1.0801011323928833,0.20710389316082
2499267683.0,-0.5470219850540161,0.3559164106845855,9.716944694519045,-1.6109943389892578,-1.292609453201294,0.2201543450355529
2499276016.0,-0.388312816619873,0.264230340719223,9.768054008483888,-1.7691879272460938,-1.4354088306427002,0.2934879064559936
2499284349.0,-0.3366912305355072,0.0964084267616272,9.69461154937744,-1.84473717212677,-1.4621117115020752,0.3902456760406494
2499292682.0,-0.3153418302536011,0.1675048768520355,9.649351119995115,-1.5261858701705933,-1.2805198431015017,0.3139793276786804
2499301015.0,-0.3598952889442444,0.3593802750110626,9.63149642944336,-1.3581691980361938,-0.8510585427284241,0.2228822559118271
2499309348.0,-0.5737504959106445,0.2936471998691559,9.662121772766112,-1.5991990566253662,-0.7000113725662231,0.1493437886238098
2499317681.0,-0.6576207280158997,0.010883648879826,9.578755378723145,-1.6547307968139648,-1.065219163894653,0.2487142235040664
2499326014.0,-0.5854418873786926,-0.0774621739983558,9.46352481842041,-1.337767481803894,-1.30628764629364,0.2201031446456909
2499334347.0,-0.4296987950801849,0.2940349578857422,9.658281326293944,-1.2038307189941406,-1.2184051275253296,0.2864183783531189
2499342680.0,-0.4561725556850433,0.3745586276054382,9.632612228393556,-1.1649482250213623,-1.0684337615966797,0.2709217667579651
2499351013.0,-0.4483785331249237,0.17648446559906,9.606982231140137,-1.5909897089004517,-1.1926628351211548,0.1324511915445327
2499359346.0,-0.4474098980426788,-0.0171690210700035,9.413663864135742,-1.4967936277389526,-1.5488417148590088,0.3614681363105774
2499367679.0,-0.2811492085456848,0.0804030448198318,9.605582237243652,-1.2482329607009888,-1.3717448711395264,0.206924632191658
2499376012.0,-0.3584146499633789,0.2466157227754593,9.538058280944824,-1.2572489976882937,-1.050106644630432,0.1350510567426681
2499384345.0,-0.4849414527416229,0.2318233400583267,9.66917610168457,-1.3953611850738523,-0.9571528434753418,0.2268524914979934
2499392678.0,-0.5635918378829956,0.0306304171681404,9.503178596496582,-1.3541476726531982,-1.326509952545166,0.1803370267152786
2499401011.0,-0.4327490329742431,0.1084053665399551,9.563600540161133,-1.235605001449585,-1.3725130558013916,0.344191312789917
2499409344.0,-0.4260662496089935,0.2446701526641845,9.56340789794922,-1.1789079904556274,-1.1494516134262085,0.2041966617107391
2499417677.0,-0.3938098549842834,0.1577917784452438,9.60279369354248,-1.3819774389266968,-1.3540323972702026,0.3160796463489532
2499426010.0,-0.3682782351970672,-0.0350303947925567,9.540830612182615,-1.434435486793518,-1.5284141302108765,0.2654915750026703
2499434343.0,-0.2212631106376648,0.0387559868395328,9.498072624206545,-1.2171757221221924,-1.5577425956726074,0.218924880027771
2499442676.0,-0.1925330758094787,0.2632317841053009,9.602262496948242,-1.0955592393875122,-1.201730251312256,0.277760773897171
2499451009.0,-0.3399531543254852,0.1921897381544113,9.55466079711914,-1.2577229738235474,-0.9600600600242616,0.2475615739822387
2499459342.0,-0.4550281167030334,-0.0638319700956344,9.550132751464844,-1.2420598268508911,-1.0159629583358765,0.3945488333702087
2499467675.0,-0.4063684046268463,-0.1743700951337814,9.467689514160156,-1.199386477470398,-1.4626494646072388,0.2625587284564972
2499476008.0,-0.2834528684616089,0.1195311620831489,9.63600254058838,-0.7973838448524475,-1.335461974143982,0.2363168895244598
2499484341.0,-0.2947472035884857,0.3012706041336059,9.657696723937988,-0.8294530510902405,-1.111773133277893,0.1398281306028366
2499492674.0,-0.3251974880695343,0.090769775211811,9.543577194213867,-1.1164604425430298,-1.2584401369094849,0.0637794435024261
2499501007.0,-0.2030137628316879,-0.0365225709974765,9.606857299804688,-1.073825478553772,-1.60519278049469,0.2531454861164093
2499509340.0,-0.0765998363494873,-0.0472589135169982,9.532198905944824,-0.8680280447006226,-1.3024710416793823,0.1783775389194488
2499517673.0,-0.1363188773393631,0.2444197982549667,9.724769592285156,-0.7467830181121826,-0.9404265880584716,0.2524154484272003
2499526006.0,-0.3811249434947967,0.1979406177997589,9.645086288452148,-0.7786343097686768,-0.6188015341758728,0.1229995712637901
2499534339.0,-0.4765867590904236,0.0507208108901977,9.634578704833984,-0.9346505403518676,-0.8633918166160583,0.2136227041482925
2499542672.0,-0.3575920760631561,0.0691465362906456,9.63537311553955,-0.7785061597824097,-1.096506953239441,0.2869050204753876
2499551005.0,-0.23853300511837,0.3191169500350952,9.752036094665527,-0.7545825242996216,-1.007881760597229,0.2628788948059082
2499559338.0,-0.2758494019508362,0.26495561003685,9.677045822143556,-0.8214869499206543,-0.864083468914032,0.2093195170164108
2499567671.0,-0.3292739689350128,0.0860630050301551,9.621990203857422,-0.8798233866691589,-0.9627623558044434,0.2844076752662658
2499576004.0,-0.2122677713632583,0.0222238823771476,9.596861839294434,-0.7495749592781067,-1.0774115324020386,0.1626119613647461
2499584337.0,-0.1337153315544128,0.3227432668209076,9.703688621520996,-0.6667513251304626,-0.8938983678817749,0.2543493509292602
2499592670.0,-0.2850908637046814,0.4893474578857422,9.784810066223145,-0.7986133694648743,-0.5014626383781433,0.2719975411891937
2499601003.0,-0.5324720740318298,0.2359292656183242,9.626544952392578,-1.0345077514648438,-0.449350506067276,0.1794405132532119
2499609336.0,-0.5622134804725647,0.0452631898224353,9.610259056091309,-0.9411567449569702,-0.8641602396965027,0.2305281162261963
2499617669.0,-0.4222037196159363,0.1859596073627472,9.68123722076416,-0.6687749624252319,-1.0533214807510376,0.2424643486738205
2499626002.0,-0.3552817106246948,0.4953987598419189,9.725971221923828,-0.7671079635620117,-0.8503797650337219,0.1891355216503143
2499634335.0,-0.4438125789165497,0.4513155817985534,9.683045387268066,-0.8805021047592163,-0.7273545861244202,0.2549128532409668
2499642668.0,-0.4642195105552673,0.1977689564228058,9.628334999084473,-1.1351075172424316,-1.075375199317932,0.3038360476493835
2499651001.0,-0.3398530185222626,0.1189374700188636,9.605295181274414,-0.9106755256652832,-1.045841932296753,0.2871611416339874
2499659334.0,-0.2786032259464264,0.3224143981933594,9.664284706115724,-0.8265969753265381,-0.8464735746383667,0.263429582118988
2499667667.0,-0.4603140652179718,0.4071255028247833,9.767271041870115,-0.9574601054191588,-0.4178449809551239,0.2063610702753067
2499676000.0,-0.6409662365913391,0.2122749239206314,9.585810661315918,-0.9687687754631042,-0.7739725112915039,0.2356509268283844
2499684333.0,-0.6370823383331299,0.1935200542211532,9.64431381225586,-0.9769781231880188,-1.1508986949920654,0.2306433767080307
2499692666.0,-0.4660792350769043,0.3309977948665619,9.727465629577637,-0.994511067867279,-1.1046011447906494,0.1947962641716003
2499700999.0,-0.4287628531455993,0.426137775182724,9.76842975616455,-0.9095743894577026,-0.9050918817520142,0.2317063808441162
2499709332.0,-0.5605753064155579,0.2407147288322448,9.609708786010742,-1.07616925239563,-1.029705047607422,0.2624178230762481
2499717665.0,-0.4113405346870422,0.1748659014701843,9.607864379882812,-1.0684850215911863,-1.3478082418441772,0.2926170527935028
2499725998.0,-0.2085554450750351,0.2845615446567535,9.74978256225586,-0.9954589009284972,-1.082905888557434,0.2955882549285888
2499734331.0,-0.3294098675251007,0.406767874956131,9.717881202697754,-0.9600088000297546,-0.6989997029304504,0.2162609696388244
2499742664.0,-0.582391619682312,0.3234372437000274,9.69745922088623,-1.1099544763565063,-0.5602986216545105,0.211215004324913
2499750997.0,-0.6415711641311646,0.003699978813529,9.53091526031494,-1.2827482223510742,-1.076399803161621,0.1269697695970535
2499759330.0,-0.4757855534553528,0.1132296174764633,9.625659942626951,-1.0493768453598022,-1.1473512649536133,0.2238940596580505
2499767663.0,-0.3577851951122284,0.3884851932525635,9.765826225280762,-0.8693855404853821,-1.0600833892822266,0.2093707472085952
2499775996.0,-0.402247279882431,0.5100764036178589,9.771355628967283,-1.0516819953918457,-0.9306547045707704,0.2209483832120895
2499784329.0,-0.4117743670940399,0.2292170375585556,9.613216400146484,-1.2678149938583374,-1.2667135000228882,0.2506096661090851
2499792662.0,-0.296377032995224,0.0900193080306053,9.598067283630373,-1.2539832592010498,-1.3884323835372925,0.2330895215272903
2499800995.0,-0.1243521720170974,0.2428390234708786,9.72756576538086,-1.039182186126709,-1.111644983291626,0.2584219872951507
2499809328.0,-0.2454427629709243,0.3350533545017242,9.76895809173584,-1.089360594749451,-0.5770758390426636,0.152430310845375
2499817661.0,-0.4547276794910431,0.1984127163887024,9.63759708404541,-1.1880779266357422,-0.6301485896110535,0.2593441605567932
2499825994.0,-0.4928216934204101,0.0185121428221464,9.610289573669434,-1.2754095792770386,-1.1398334503173828,0.2445519119501114
2499834327.0,-0.3127866685390472,0.1457964032888412,9.691973686218262,-1.017000436782837,-1.1874631643295288,0.2747126519680023
2499842660.0,-0.2830522954463959,0.2831953465938568,9.70718765258789,-1.1206868886947632,-0.9265309572219848,0.2104465812444687
2499850993.0,-0.3655101656913757,0.1404175609350204,9.633055686950684,-1.1440598964691162,-0.8956274390220642,0.2938593029975891
2499859326.0,-0.3271424174308777,-0.0380745828151702,9.59295654296875,-1.1061378717422483,-1.224347472190857,0.290465384721756
2499867659.0,-0.188749223947525,0.0410072468221187,9.644514083862305,-1.0286548137664795,-1.1794713735580444,0.3389787673950195
2499875992.0,-0.1756309121847152,0.3049686253070831,9.756048202514648,-0.8454746603965759,-0.7091044783592224,0.1557985842227935
2499884325.0,-0.4307728111743927,0.2186123430728912,9.635859489440918,-0.9454981684684752,-0.506085991859436,0.2866360545158386
2499892658.0,-0.6096439361572266,-0.0038839937187731,9.558237075805664,-0.9439101815223694,-0.8393784165382385,0.228286862373352
2499900991.0,-0.4618520140647888,0.0336683318018913,9.579129219055176,-0.8660556674003601,-1.0764766931533811,0.2391857057809829
2499909324.0,-0.3513405621051788,0.3623272180557251,9.737099647521973,-0.8173629641532898,-1.0689204931259155,0.1875474005937576
2499917657.0,-0.3818903863430023,0.5010636448860168,9.747299194335938,-0.9515560269355774,-0.8129317760467529,0.20703986287117
2499925990.0,-0.4777812957763672,0.2804129123687744,9.659713745117188,-1.07860267162323,-0.8410818576812744,0.2334993779659271
2499934323.0,-0.378657191991806,0.0312436185777187,9.583600997924805,-1.1103001832962036,-1.1923683881759644,0.1668127030134201
2499942656.0,-0.2751341164112091,0.2003940492868423,9.68921947479248,-1.0580344200134275,-1.0917426347732544,0.2474591135978698
2499950989.0,-0.3377715647220611,0.3822765350341797,9.742565155029297,-0.8945387005805969,-0.5512311458587646,0.1826807111501693
2499959322.0,-0.5816406011581421,0.3658750653266907,9.720090866088867,-1.081368923187256,-0.5414720773696899,0.222075417637825
2499967655.0,-0.6699067950248718,0.1534069031476974,9.643060684204102,-1.2527025938034058,-1.0015037059783936,0.2358814924955368
2499975988.0,-0.4966940879821777,0.1612011045217514,9.66898250579834,-1.1680731773376465,-1.2750637531280518,0.150739774107933
2499984321.0,-0.4073544144630432,0.2851480841636657,9.676494598388672,-1.113079309463501,-0.9874671697616576,0.2540163695812225
2499992654.0,-0.4203511774539947,0.245664358139038,9.629321098327637,-1.176141619682312,-0.8596264719963074,0.0812995731830596
2500000987.0,-0.448668509721756,0.0471637547016143,9.557971000671388,-1.201653242111206,-1.1698148250579834,0.0980768948793411
2500009320.0,-0.2801983058452606,0.0603556893765926,9.656981468200684,-0.9459208250045776,-1.3467068672180176,0.0939273908734321
2500017653.0,-0.2092062979936599,0.2739468216896057,9.747008323669434,-0.8919005393981934,-0.9297583103179932,0.2565009295940399
2500025986.0,-0.4001228809356689,0.3445023894309997,9.714648246765137,-0.9401063919067384,-0.4895776808261871,0.3183849155902862
2500034319.0,-0.6395999193191528,0.10280791670084,9.622426986694336,-1.1004514694213867,-0.9109061360359192,0.2576792240142822
2500042652.0,-0.5592450499534607,-0.0209864415228366,9.59655475616455,-0.8907478451728821,-1.313689947128296,0.1851653009653091
2500050985.0,-0.3392879664897918,0.1997215896844864,9.697386741638184,-0.9125967621803284,-1.265304684638977,0.1660570800304412
2500059318.0,-0.246937558054924,0.4918224811553955,9.805662155151367,-0.7158281803131104,-0.9146971106529236,0.2278385907411575
2500067651.0,-0.3886282742023468,0.3861390650272369,9.672002792358398,-0.9611870050430298,-0.9550395607948304,0.2939489483833313
2500075984.0,-0.4022015333175659,0.0977629423141479,9.567112922668455,-1.2026395797729492,-1.172389030456543,0.1875602304935455
2500084317.0,-0.2500705420970917,0.1064986810088157,9.66261863708496,-1.0296921730041504,-1.2372699975967407,0.322700947523117
2500092650.0,-0.2417374849319458,0.3517481982707977,9.726529121398926,-0.9209854006767272,-0.6888436079025269,0.1990097910165786
2500100983.0,-0.4070182144641876,0.4327040910720825,9.72391128540039,-1.021021842956543,-0.4828667342662811,0.1804266721010208
2500109316.0,-0.5627283453941345,0.2140203118324279,9.60935878753662,-1.1132842302322388,-0.8095250725746155,0.3042714893817901
2500117649.0,-0.4227306246757507,0.1426983773708343,9.64476490020752,-1.2337223291397097,-1.1921249628067017,0.2647486925125122
2500125982.0,-0.3003979325294494,0.2575452625751495,9.7068510055542,-1.1362346410751345,-1.112387776374817,0.259292870759964
2500134315.0,-0.3422921597957611,0.3302109837532043,9.68830394744873,-1.0843913555145264,-0.7140096426010132,0.1402635425329208
2500142648.0,-0.4375250935554504,0.1464115381240844,9.57465934753418,-1.2115148305892944,-0.7516881227493286,0.221844881772995
2500150981.0,-0.2814481258392334,0.0264937784522771,9.593931198120115,-1.166126370429993,-1.2589523792266846,0.1892123371362686
2500159314.0,-0.1366550028324127,0.2013025432825088,9.692167282104492,-0.9387745261192322,-1.1693793535232544,0.2434632927179336
2500167647.0,-0.2173105180263519,0.3384582102298736,9.720613479614258,-0.9349835515022278,-0.5538949966430664,0.327119380235672
2500175980.0,-0.5288524031639099,0.1483715325593948,9.56248664855957,-1.1290371417999268,-0.4806638956069946,0.233653038740158
2500184313.0,-0.6029489040374756,-0.0637532919645309,9.555983543395996,-1.0898215770721436,-0.9611356854438782,0.1466414928436279
2500192646.0,-0.414814829826355,0.0331820398569107,9.68592929840088,-0.8197963833808899,-1.1900501251220703,0.210548996925354
2500200979.0,-0.3129083514213562,0.4095931649208069,9.830809593200684,-0.7791338562965393,-0.874470055103302,0.1865612864494323
2500209312.0,-0.4286054968833923,0.4086633622646332,9.736599922180176,-1.044650912284851,-0.7115890383720398,0.190672367811203
2500217645.0,-0.4881100058555603,0.1055187359452247,9.55068302154541,-1.2221959829330444,-1.0386700630187988,0.2034538686275482
2500225978.0,-0.3232253193855285,-0.0317590348422527,9.581623077392578,-1.119752049446106,-1.283145308494568,0.1609726697206497
2500234311.0,-0.2268381118774414,0.203190803527832,9.727087020874023,-0.9272224307060242,-0.9381597638130188,0.2116760313510894
2500242644.0,-0.3693082630634308,0.366490364074707,9.750986099243164,-0.947201669216156,-0.4367099106311798,0.2830629348754883
2500250977.0,-0.6130701899528503,0.2715791463851928,9.653390884399414,-1.144661784172058,-0.5614768266677856,0.2282740473747253
2500259310.0,-0.6090788841247559,0.0991670116782188,9.629364967346191,-1.153601050376892,-1.0991451740264893,0.1435421705245971
2500267643.0,-0.3851233720779419,0.1655239313840866,9.666252136230469,-1.095443844795227,-1.2251031398773191,0.1302868127822876
2500275976.0,-0.3385726809501648,0.2935025990009308,9.7252197265625,-1.0291671752929688,-0.8860604166984558,0.2030440419912338
2500284309.0,-0.4599422216415405,0.1856519728899002,9.600702285766602,-1.1280124187469482,-0.8188742995262146,0.228350892663002
2500292642.0,-0.447038471698761,0.0389113686978817,9.567534446716309,-1.0472508668899536,-1.2272932529449463,0.1968966275453567
2500300975.0,-0.2608570158481598,0.165287896990776,9.693425178527832,-0.9590097069740297,-1.3524445295333862,0.2566290497779846
2500309308.0,-0.2063881307840347,0.3595090508460998,9.783966064453123,-0.9254936575889589,-0.8442196846008301,0.2339348345994949
2500317641.0,-0.4621594846248626,0.3028585314750671,9.680622100830078,-1.0374661684036257,-0.3783862590789795,0.2128798961639404
2500325974.0,-0.6294358372688293,0.0183328296989202,9.546592712402344,-0.9858276844024658,-0.9809611439704896,0.2215887010097503
2500334307.0,-0.487916886806488,-0.0144774662330746,9.582597732543944,-0.9554749727249146,-1.32521653175354,0.204145461320877
2500342640.0,-0.3078225255012512,0.312636524438858,9.741199493408203,-0.777558445930481,-1.2270370721817017,0.1745353937149047
2500350973.0,-0.3297317624092102,0.577713668346405,9.78414535522461,-0.7640342712402344,-0.8478951454162598,0.3255569338798523
2500359306.0,-0.4525962471961975,0.3772551715373993,9.63897705078125,-1.087055206298828,-0.8104983568191528,0.2749175727367401
2500367639.0,-0.3943133652210235,0.0584244653582572,9.575151443481444,-1.1417673826217651,-1.3100528717041016,0.3053729236125946
2500375972.0,-0.1978119611740112,0.1621834635734558,9.65673828125,-0.924532949924469,-1.2403820753097534,0.224867358803749
2500384305.0,-0.1969106197357177,0.3791221380233764,9.7531156539917,-0.8709992170333862,-0.7385992407798767,0.2316039055585861
2500392638.0,-0.4609005749225616,0.4264739453792572,9.70842456817627,-0.9993136525154114,-0.4960196614265442,0.2294138967990875
2500400971.0,-0.5779066681861877,0.2428033649921417,9.642526626586914,-1.1357991695404053,-0.8787859678268433,0.2806295454502105
2500409304.0,-0.4340559542179107,0.18976491689682,9.648405075073242,-1.0535520315170288,-1.2333382368087769,0.203914925456047
2500417637.0,-0.3043963611125946,0.3694372177124023,9.725177764892578,-1.1857212781906128,-0.9246098399162292,0.0970267131924629
2500425970.0,-0.3571413457393646,0.3369490206241607,9.688325881958008,-1.1124134063720703,-0.7494085431098938,0.244692787528038
2500434303.0,-0.4241421222686767,0.0962271988391876,9.56473159790039,-1.1538571119308472,-1.0099307298660278,0.2386222183704376
2500442636.0,-0.2847332060337066,0.0967565029859542,9.616460800170898,-1.0809592008590698,-1.2160487174987793,0.3012746274471283
2500450969.0,-0.1670546531677246,0.3206691145896911,9.759239196777344,-1.0438313484191897,-0.8322065472602844,0.2408378571271896
2500459302.0,-0.3613757491111755,0.4395137131214142,9.735356330871582,-1.1227999925613403,-0.3906170427799225,0.2157614976167678
2500467635.0,-0.6148585081100464,0.1688213646411895,9.590580940246582,-1.205034613609314,-0.4932917952537536,0.1961282044649124
2500475968.0,-0.572563648223877,-0.0580928288400173,9.552661895751951,-1.1470694541931152,-1.2083643674850464,0.2430790662765503
2500484301.0,-0.3458041846752167,0.0865422487258911,9.70638656616211,-0.898201584815979,-1.299935221672058,0.1720508337020874
2500492634.0,-0.2378104776144027,0.4403792321681976,9.770770072937012,-0.8899537324905396,-0.7712061405181885,0.1746378540992736
2500500967.0,-0.441838264465332,0.4053945243358612,9.683669090270996,-1.0379785299301147,-0.6366802453994751,0.1182609274983406
2500509300.0,-0.4690621197223663,0.0606774389743804,9.571383476257324,-1.1898194551467896,-1.100630760192871,0.2943843901157379
2500517633.0,-0.2918789088726043,0.0056650517508387,9.61158275604248,-1.1518210172653198,-1.1836081743240356,0.2332816421985626
2500525966.0,-0.252781480550766,0.2278824299573898,9.720391273498535,-0.8906710147857666,-0.969357967376709,0.3462532758712768
2500534299.0,-0.4407225251197815,0.354108601808548,9.756148338317873,-0.8725616931915283,-0.5165238380432129,0.1305045187473297
2500542632.0,-0.6411165595054626,0.1953369379043579,9.631023406982422,-1.0870041847229004,-0.7212072610855103,0.2147753834724426
2500550965.0,-0.5349200367927551,0.0668674334883689,9.650904655456545,-1.1517184972763062,-1.291392803192139,0.254848837852478
2500559298.0,-0.338508278131485,0.1856806576251983,9.673039436340332,-1.0909743309020996,-1.225909948348999,0.2795794010162353
2500567631.0,-0.3180798590183258,0.3242167532444,9.68460464477539,-0.9553212523460388,-0.7327336072921753,0.2037612348794937
2500575964.0,-0.4635973274707794,0.1304033994674682,9.63522243499756,-1.0497865676879885,-0.9547833800315856,0.2169269472360611
2500584297.0,-0.3858672678470611,0.004491985309869,9.607090950012209,-1.0380040407180786,-1.2229644060134888,0.1470513194799423
2500592630.0,-0.2037129700183868,0.12067561596632,9.688904762268066,-0.8292480111122131,-1.367351770401001,0.2128030508756637
2500600963.0,-0.2315518260002136,0.3393451869487762,9.747007369995115,-0.9868781566619872,-0.7124727964401245,0.1518668234348297
2500609296.0,-0.5388594269752502,0.2991462051868438,9.669914245605469,-0.9588049054145812,-0.4612996280193329,0.2401334792375564
2500617629.0,-0.6371967196464539,-0.1066703498363494,9.515033721923828,-1.0542176961898804,-0.9224326610565186,0.2740979194641113
2500625962.0,-0.4252722859382629,0.0306284744292497,9.682710647583008,-0.8821926116943359,-1.2583633661270142,0.1846017986536026
2500634295.0,-0.2695335447788238,0.3182871043682098,9.752321243286133,-0.8343580961227417,-1.1293572187423706,0.2866873145103454
2500642628.0,-0.2750412225723266,0.4335479438304901,9.820194244384766,-0.9136212468147278,-0.6728474497795105,0.2277873754501342
2500650961.0,-0.4267028570175171,0.2212159782648086,9.574481010437012,-1.0239675045013428,-0.8114204406738281,0.32425057888031
2500659294.0,-0.3378945589065552,-0.0042041726410388,9.620902061462402,-1.1445080041885376,-1.2356946468353271,0.2759933769702911
2500667627.0,-0.1812745034694671,0.0934161320328712,9.65549373626709,-0.9315256476402284,-1.041077733039856,0.2955370247364044
2500675960.0,-0.2560932338237762,0.4397067129611969,9.822183609008787,-0.8508152365684509,-0.4933941960334778,0.268283486366272
2500684293.0,-0.5633291602134705,0.3432579338550567,9.648736000061035,-1.0172052383422852,-0.6733086109161377,0.2062970399856567
2500692626.0,-0.5747595429420471,0.1368410438299179,9.605009078979492,-1.116690993309021,-1.0457907915115356,0.2402103096246719
2500700959.0,-0.382176399230957,0.1547589153051376,9.65051555633545,-0.9839836359024048,-1.2450438737869265,0.2383916676044464
2500709292.0,-0.2748479843139648,0.3545020520687103,9.748223304748535,-0.8257901668548584,-0.9915398359298706,0.2610602676868438
2500717625.0,-0.4055947363376617,0.3257048428058624,9.644773483276367,-1.0212523937225342,-0.7139840126037598,0.1481271237134933
2500725958.0,-0.4594771862030029,0.1003114730119705,9.5590238571167,-1.1284992694854736,-1.0024771690368652,0.1941559016704559
2500734291.0,-0.2822297215461731,0.1301245242357254,9.632569313049316,-0.9546810388565063,-1.364354968070984,0.1214883252978324
2500742624.0,-0.1804018020629882,0.3423852026462555,9.72365379333496,-0.9812941551208496,-0.8884168863296509,0.1650069206953048
2500750957.0,-0.3948011696338653,0.4488623440265655,9.757092475891112,-0.9478163123130798,-0.5026665329933167,0.2884674966335296
2500759290.0,-0.6544564962387085,0.1041668504476547,9.509604454040527,-1.1367982625961304,-0.7189788222312927,0.1110121011734008
2500767623.0,-0.5431797504425049,0.0100282859057188,9.597662925720217,-0.982907772064209,-1.206878662109375,0.2842411696910858
2500775956.0,-0.3135663568973541,0.2273243963718414,9.714954376220703,-0.8320271968841553,-1.2671873569488523,0.2110997140407562
2500784289.0,-0.3040816485881805,0.5320212841033936,9.788980484008787,-0.7692979574203491,-0.7296470999717712,0.1866125166416168
2500792622.0,-0.4394778311252594,0.3717618584632873,9.662010192871094,-1.0202661752700806,-0.6579272747039795,0.1338984072208404
2500800955.0,-0.4844285845756531,0.054147582501173,9.520390510559082,-1.199860453605652,-1.162181735038757,0.1840894818305969
2500809288.0,-0.2477266639471054,0.109755165874958,9.66797924041748,-1.180009365081787,-1.1917918920516968,0.2354204356670379
2500817621.0,-0.2128471434116363,0.3303039968013763,9.758438110351562,-0.8787731528282166,-0.840479850769043,0.1591796576976776
2500825954.0,-0.4904918968677521,0.4318886697292328,9.762243270874023,-0.9394405484199524,-0.4189080595970154,0.1422102302312851
2500834287.0,-0.6263458728790283,0.1988919526338577,9.624608039855955,-1.1806752681732178,-0.8122915029525757,0.0220794696360826
2500842620.0,-0.5162670016288757,0.085893839597702,9.65133285522461,-1.1629246473312378,-1.3137412071228027,0.191287100315094
2500850953.0,-0.3195747137069702,0.278553158044815,9.730226516723633,-0.975684642791748,-1.105702519416809,0.2764544486999511
2500859286.0,-0.3422420620918274,0.361254334449768,9.713367462158203,-1.0900778770446775,-0.7547106146812439,0.245384395122528
2500867619.0,-0.4708717763423919,0.1363188028335571,9.585187911987305,-1.1870405673980713,-0.8822054266929626,0.2441677153110504
2500875952.0,-0.3491172194480896,0.0418901108205318,9.56400203704834,-1.053231716156006,-1.3140357732772827,0.2198853939771652
2500884285.0,-0.1728198379278183,0.2132190912961959,9.707201957702637,-0.9926412105560304,-1.1319570541381836,0.2425924241542816
2500892618.0,-0.2559358775615692,0.3831062614917755,9.756084442138672,-0.9183599352836608,-0.6037659049034119,0.2422594279050827
2500900951.0,-0.562506914138794,0.1618758887052536,9.620036125183104,-1.1802399158477783,-0.4135546386241913,0.2266860008239746
2500909284.0,-0.6104164719581604,-0.0712351649999618,9.550948143005373,-1.1767818927764893,-1.0825215578079224,0.2718951106071472
2500917617.0,-0.3597579598426819,0.0192295890301466,9.636590957641602,-0.9618785977363586,-1.380748271942139,0.2776070833206177
2500925950.0,-0.2194134294986724,0.3849160075187683,9.77629852294922,-0.8708199262619019,-1.0446892976760864,0.1392902135848999
2500934283.0,-0.3847728669643402,0.4212452173233032,9.682044982910156,-0.957101583480835,-0.6707087755203247,0.0766762197017669
2500942616.0,-0.4649848639965057,0.1206326931715011,9.546648979187012,-1.2385380268096924,-0.9339591264724731,0.2694873809814453
2500950949.0,-0.3146836161613464,-0.0620470643043518,9.576825141906738,-1.2223496437072754,-1.1840564012527466,0.2867513597011566
2500959282.0,-0.2065168768167495,0.1946073919534683,9.702552795410156,-0.971586287021637,-0.9844446778297424,0.32425057888031
2500967615.0,-0.3302897810935974,0.378406673669815,9.744566917419434,-0.9296045303344728,-0.6170597076416016,0.2553995251655578
2500975948.0,-0.564058780670166,0.2299282550811767,9.639902114868164,-1.0520535707473757,-0.6118472218513489,0.1523150503635406
2500984281.0,-0.5424358248710632,0.0814565792679786,9.62463665008545,-1.0327658653259275,-1.149720549583435,0.3060004413127899
2500992614.0,-0.3270710110664367,0.157019093632698,9.67185878753662,-1.0662181377410889,-1.2299699783325195,0.2353051751852035
2501000947.0,-0.2850193381309509,0.3345813751220703,9.74814510345459,-1.0019903182983398,-0.871793270111084,0.2629557251930237
2501009280.0,-0.4461800456047058,0.2561647593975067,9.63764762878418,-1.026656985282898,-0.7467445731163025,0.2590879797935486
2501017613.0,-0.4466164410114288,0.0332963913679122,9.5717191696167,-1.102564811706543,-1.1154999732971191,0.2005210369825363
2501025946.0,-0.2389122247695922,0.1293447166681289,9.667638778686523,-0.937224805355072,-1.2120143175125122,0.3217403888702392
2501034279.0,-0.201638638973236,0.3366700112819671,9.784088134765623,-0.8878149390220642,-0.7143041491508484,0.2280819565057754
2501042612.0,-0.4838112890720367,0.3111485838890075,9.68089199066162,-1.0219439268112185,-0.4271045327186584,0.2055542320013046
2501050945.0,-0.6617310643196106,0.0147204613313078,9.554516792297363,-1.095661759376526,-0.8988164067268372,0.226327359676361
2501059278.0,-0.5267601013183594,-0.0491921044886112,9.626265525817873,-1.050004482269287,-1.3707460165023804,0.1500097960233688
2501067611.0,-0.2700770497322082,0.2751913368701935,9.742887496948242,-0.7734346389770508,-1.159389853477478,0.243053451180458
2501075944.0,-0.3087382912635803,0.5234448909759521,9.787240982055664,-0.9142104983329772,-0.7619081735610962,0.252428263425827
2501084277.0,-0.4802919328212738,0.2847904562950134,9.654600143432615,-1.0664101839065552,-0.8779661655426025,0.2458710223436355
2501092610.0,-0.4107020497322082,0.0009297606302425,9.532328605651855,-1.1321492195129397,-1.1778706312179563,0.2297725081443786
2501100943.0,-0.2084982246160507,0.1022355854511261,9.676487922668455,-0.9395428895950316,-1.0043468475341797,0.2011229544878006
2501109276.0,-0.2544910013675689,0.3567981123924255,9.73324489593506,-0.8426827192306519,-0.6357196569442749,0.1966532915830612
2501117609.0,-0.5221289992332458,0.4264452755451202,9.691865921020508,-0.8489581346511841,-0.4957379102706909,0.1544666439294815
2501125942.0,-0.6555938124656677,0.2167740613222122,9.609737396240234,-1.057509183883667,-0.9352781176567078,0.1573098301887512
2501134275.0,-0.4514809846878052,0.1391955465078354,9.64137077331543,-1.0469945669174194,-1.3428902626037598,0.3008135557174682
2501142608.0,-0.286592960357666,0.3151184916496277,9.72130012512207,-0.9797444343566896,-0.984713613986969,0.2220626026391983
2501150941.0,-0.3854594528675079,0.3642299771308899,9.691781044006348,-1.1593258380889893,-0.7130745649337769,0.2551049590110779
2501159274.0,-0.4845764935016632,0.1542510539293289,9.567206382751465,-1.081189751625061,-0.9855716824531556,0.0408034734427928
2501167607.0,-0.3181334733963012,0.0846648663282394,9.631583213806152,-0.993102252483368,-1.411485195159912,0.1960769742727279
2501175940.0,-0.1317982822656631,0.3491660356521606,9.752880096435549,-0.8737144470214844,-1.1749889850616455,0.2322698980569839
2501184273.0,-0.2964209616184234,0.4135416150093078,9.753988265991213,-0.9964320659637452,-0.4947773516178131,0.2753786444664001
2501192606.0,-0.5751314759254456,0.1925831437110901,9.593965530395508,-1.021124243736267,-0.6090424656867981,0.2280691415071487
2501200939.0,-0.5803244709968567,-0.0642253756523132,9.553437232971191,-1.047417163848877,-1.1845558881759644,0.2197061032056808
2501209272.0,-0.3547452390193939,0.1499450504779815,9.685893058776855,-0.8813986778259277,-1.2071348428726196,0.1475379914045334
2501217605.0,-0.2673447728157043,0.4766582250595093,9.81147575378418,-0.7902119159698486,-0.8081163167953491,0.196333110332489
2501225938.0,-0.4383333623409271,0.432382196187973,9.650909423828123,-1.0552935600280762,-0.7505866885185242,0.165391132235527
2501234271.0,-0.4583712816238403,0.0857306867837905,9.545365333557127,-1.2370266914367676,-1.1890767812728882,0.1866509318351745
2501242604.0,-0.2593372762203216,0.0085231876000761,9.595571517944336,-1.163462519645691,-1.3512916564941406,0.2697691023349762
2501250937.0,-0.1598660349845886,0.238246887922287,9.749868392944336,-0.9378779530525208,-0.9638251662254332,0.2354204058647155
2501259270.0,-0.3623986542224884,0.3929772675037384,9.769811630249023,-0.9573193192481996,-0.2932958006858825,0.1691052019596099
2501267603.0,-0.5901309847831726,0.2091992050409317,9.604036331176758,-1.0514771938323977,-0.6350153684616089,0.2215119153261184
2501275936.0,-0.5309770107269287,0.087443508207798,9.619057655334473,-1.0779365301132202,-1.1386679410934448,0.2647999227046966
2501284269.0,-0.355868250131607,0.1876333802938461,9.691787719726562,-1.0063704252243042,-1.1655374765396118,0.1757648885250091
2501292602.0,-0.3374711275100708,0.3082017004489898,9.691973686218262,-0.8830379247665405,-0.8645188212394714,0.1793508678674698
2501300935.0,-0.4731033444404602,0.2028474807739257,9.605738639831545,-1.0467640161514282,-0.9067054986953736,0.1823221296072006
2501309268.0,-0.3850017786026001,0.0233754906803369,9.554173469543455,-1.0741969347000122,-1.231852650642395,0.1394695043563842
2501317601.0,-0.2004655748605728,0.1591650545597076,9.711851119995115,-0.9246481657028198,-1.2207231521606443,0.2246880382299423
2501325934.0,-0.2324888557195663,0.3977481424808502,9.77840805053711,-0.9267358779907228,-0.6973091959953308,0.1750733107328415
2501334267.0,-0.5337093472480774,0.2314516901969909,9.65054416656494,-0.9876721501350404,-0.5118365287780762,0.2775302529335022
2501342600.0,-0.6524179577827454,-0.0802262872457504,9.517694473266602,-1.0695606470108032,-0.9222533702850342,0.2826530635356903
2501350933.0,-0.4305930137634277,0.0291338413953781,9.602394104003906,-0.964491367340088,-1.3717832565307615,0.2621617317199707
2501359266.0,-0.2445915192365646,0.2992176413536072,9.76654815673828,-0.821717381477356,-1.0849037170410156,0.2384172827005386
2501367599.0,-0.3753955066204071,0.4692336618900299,9.719447135925291,-0.9792705774307252,-0.4930355548858642,0.2169525623321533
2501375932.0,-0.5216854214668274,0.2167955189943313,9.599058151245115,-1.1895380020141602,-0.9198455810546876,0.2369572967290878
2501384265.0,-0.3590623736381531,-0.0851867198944091,9.57871913909912,-1.0715203285217283,-1.3228729963302612,0.2347672879695892
2501392598.0,-0.2174249738454818,0.1809883862733841,9.722023010253906,-0.9499934911727904,-1.1073931455612185,0.1832954585552215
2501400931.0,-0.3123860955238342,0.386396586894989,9.794652938842772,-0.7686960101127625,-0.6460294723510742,0.2071423381567001
2501409264.0,-0.580517590045929,0.266922652721405,9.67581558227539,-1.0659619569778442,-0.7058002352714539,0.1948090642690658
2501417597.0,-0.577484667301178,0.1502241492271423,9.590761184692385,-1.0704188346862793,-1.0397586822509766,0.301287442445755
2501425930.0,-0.3745157122611999,0.1813102662563324,9.681852340698242,-1.0399507284164429,-1.2460941076278689,0.2370341122150421
2501434263.0,-0.237731859087944,0.2982378602027893,9.745498657226562,-0.9917447566986084,-0.9388770461082458,0.1535317152738571
2501442596.0,-0.4107806086540222,0.3102331161499023,9.686015129089355,-0.9413103461265564,-0.7769180536270142,0.1941814869642257
2501450929.0,-0.4229404628276825,0.055892314761877,9.55897331237793,-1.0978388786315918,-1.19115149974823,0.1400330364704132
2501459262.0,-0.2424527704715728,0.0961055979132652,9.638019561767578,-0.9574729800224304,-1.2701202630996704,0.1557857692241668
2501467595.0,-0.1801014393568039,0.38483726978302,9.756019592285156,-0.926044225692749,-0.7326822876930237,0.2360607534646988
2501475928.0,-0.4299646914005279,0.3348387777805328,9.687630653381348,-0.9330242276191713,-0.360264241695404,0.2175289094448089
2501484261.0,-0.6262885928153992,0.0807628035545349,9.53779411315918,-1.2370907068252563,-0.6176104545593262,0.1647379696369171
2501492594.0,-0.5180370211601257,-0.0056278891861438,9.598710060119627,-1.0623631477355957,-1.3376649618148804,0.2437450438737869
2501500927.0,-0.2884169220924377,0.2313229441642761,9.768208503723145,-0.9873647093772888,-1.1779345273971558,0.2450513690710067
2501509260.0,-0.2530532777309418,0.4881386160850525,9.773429870605469,-0.8595496416091919,-0.6879343390464783,0.2378537654876709
2501517593.0,-0.4435691833496094,0.329638808965683,9.627427101135254,-1.173067927360535,-0.6660853624343872,0.1732546538114547
2501525926.0,-0.40098837018013,-0.0070097860880196,9.52715015411377,-1.199040770530701,-1.1069320440292358,0.192004308104515
2501534259.0,-0.2094996124505996,0.1105328798294067,9.669270515441896,-1.0840200185775757,-1.058969259262085,0.1761875003576278
2501542592.0,-0.2463582158088684,0.3854166269302368,9.790396690368652,-0.8873667120933533,-0.6379352807998657,0.2213069796562194
2501550925.0,-0.5078375339508057,0.3837786316871643,9.705170631408691,-1.0167955160140991,-0.4384516477584839,0.1577580869197845
2501559258.0,-0.6332914233207703,0.1902726888656616,9.609378814697266,-1.2085821628570557,-0.900929629802704,0.242618054151535
2501567591.0,-0.459027498960495,0.12982739508152,9.663290023803713,-1.1468645334243774,-1.3049299716949463,0.2831397354602813
2501575924.0,-0.314496099948883,0.3007270693778991,9.731522560119627,-0.9316537380218506,-1.0455089807510376,0.2678224146366119
2501584257.0,-0.3700524270534515,0.346311867237091,9.704160690307615,-0.9864427447319032,-0.7051727771759033,0.1738694459199905
2501592590.0,-0.4392847120761871,0.1313333511352539,9.58616828918457,-1.1210967302322388,-0.9739428162574768,0.141723558306694
2501600923.0,-0.3080014288425445,0.0961985886096954,9.614365577697754,-1.1138733625411987,-1.2037537097930908,0.2393394112586975
2501609256.0,-0.1636570394039154,0.2992034256458282,9.717244148254396,-0.9583182334899902,-1.106983304023743,0.2893128097057342
2501617589.0,-0.3207406401634216,0.395051509141922,9.748574256896973,-1.0154379606246948,-0.4870675206184387,0.3083697855472564
2501625922.0,-0.6144649982452393,0.1495158821344375,9.56531047821045,-1.1713517904281616,-0.5849649906158447,0.254554271697998
2501634255.0,-0.6170473098754883,-0.0705629214644432,9.563071250915527,-1.0939456224441528,-1.101425051689148,0.2724073827266693
2501642588.0,-0.3698305785655975,0.1123568564653396,9.69084358215332,-0.885714590549469,-1.2425978183746338,0.2366115003824234
2501650921.0,-0.2634320557117462,0.4491484761238098,9.817834854125977,-0.7461041808128357,-0.9048356413841248,0.1474611461162567
2501659254.0,-0.4576102793216705,0.3974405527114868,9.673568725585938,-1.0947651863098145,-0.7713085412979126,0.2364449799060821
2501667587.0,-0.4682608544826507,0.0685027763247489,9.524675369262695,-1.15675151348114,-1.0613898038864136,0.2558861970901489
2501675920.0,-0.251372367143631,-0.0117521211504936,9.626976013183594,-1.0736206769943235,-1.2713112831115725,0.186023399233818
2501684253.0,-0.1777194887399673,0.241666093468666,9.738310813903809,-0.7950657606124878,-0.929924726486206,0.1784159392118454
2501692586.0,-0.4097076952457428,0.3829989731311798,9.75006866455078,-0.9269022345542908,-0.4445094168186188,0.1835387945175171
2501700919.0,-0.612476646900177,0.2146853655576706,9.617589950561523,-1.1465572118759155,-0.6886002421379089,0.2495082765817642
2501709252.0,-0.5487661361694336,0.0735169202089309,9.638663291931152,-1.0553191900253296,-1.1003490686416626,0.1819379180669784
2501717585.0,-0.3196247816085815,0.227911040186882,9.710199356079102,-0.8460765480995178,-1.1173056364059448,0.2560398578643799
2501725918.0,-0.3382507264614105,0.3420847654342651,9.710328102111816,-1.0597249269485474,-0.7475386261940002,0.1844224780797958
2501734251.0,-0.4797196686267853,0.1710745841264724,9.535927772521973,-1.250499606132507,-0.783244788646698,0.1228970885276794
2501742584.0,-0.3888285458087921,0.0192912183701992,9.586762428283691,-1.144136667251587,-1.149848461151123,0.2331023216247558
2501750917.0,-0.1882986724376678,0.2016600221395492,9.705999374389648,-0.9898877143859864,-1.1295109987258911,0.2488294839859008
2501759250.0,-0.2022895514965057,0.4136202931404114,9.75633430480957,-0.9507107138633728,-0.5920090079307556,0.1954109966754913
2501767583.0,-0.5012855529785156,0.2595623731613159,9.652425765991213,-0.9921544790267944,-0.4172174036502838,0.0652138367295265
2501775916.0,-0.655643880367279,-0.0491042658686637,9.511056900024414,-1.1040118932724,-1.0063191652297974,0.1645458340644836
2501784249.0,-0.4261663854122162,0.0003290307649876,9.629121780395508,-0.8601132035255432,-1.25523841381073,0.198484718799591
2501792582.0,-0.2498058825731277,0.3452319800853729,9.752179145812988,-0.8000349998474121,-1.0613257884979248,0.1941303014755249
2501800915.0,-0.3568480908870697,0.4891974031925201,9.73695182800293,-0.973200023174286,-0.7385992407798767,0.1830905526876449
2501809248.0,-0.4876235425472259,0.2038918584585189,9.615517616271973,-1.1241830587387085,-0.8746492266654968,0.1839230060577392
2501817581.0,-0.3245226144790649,-0.0329588279128074,9.560466766357422,-1.0609288215637207,-1.416761875152588,0.2068861722946167
2501825914.0,-0.1844218224287033,0.1475559324026107,9.72796630859375,-0.9172585606575012,-1.0127484798431396,0.2060921490192413
2501834247.0,-0.2740397155284881,0.3702096939086914,9.756978034973145,-0.9342920780181884,-0.468958169221878,0.2774277925491333
2501842580.0,-0.5824487209320068,0.3296961188316345,9.65412139892578,-0.985840618610382,-0.5816224217414856,0.1833851188421249
2501850913.0,-0.624886691570282,0.1242377310991287,9.590081214904783,-0.9745063185691832,-0.992461919784546,0.2108819931745529
2501859246.0,-0.3728419244289398,0.1712533682584762,9.64954948425293,-1.0312162637710571,-1.2629737854003906,0.3431794941425323
2501867579.0,-0.2938029766082763,0.3332152366638183,9.750061988830566,-1.0564463138580322,-0.9553982019424438,0.1590644121170044
2501875912.0,-0.4323393702507019,0.315154105424881,9.715970039367676,-0.9643630385398864,-0.705403208732605,0.1695406138896942
2501884245.0,-0.4444275796413421,0.0653769820928573,9.564774513244627,-0.9529391527175904,-0.9764273166656494,0.1578861325979232
2501892578.0,-0.275516539812088,0.0799955204129219,9.575167655944824,-1.0092904567718506,-1.3418656587600708,0.1770711988210678
2501900911.0,-0.1834990382194519,0.4374964833259582,9.820152282714844,-0.9639276266098022,-0.8550927639007568,0.2527868747711181
2501909244.0,-0.4247143566608429,0.3563474714756012,9.682281494140623,-1.0620301961898804,-0.5738996863365173,0.1582959741353988
2501917577.0,-0.6194218993186951,0.1205110996961593,9.577485084533691,-1.162002444267273,-0.7812725305557251,0.211266204714775
2501925910.0,-0.5661975741386414,-0.0195485856384038,9.551929473876951,-0.99584299325943,-1.2450950145721436,0.2651585340499878
2501934243.0,-0.2861781120300293,0.1780886203050613,9.76490592956543,-0.9437437653541564,-1.3719114065170288,0.2842411696910858
2501942576.0,-0.2815645039081573,0.4937965273857116,9.75234317779541,-0.8396729826927185,-0.719260573387146,0.1825270354747772
2501950909.0,-0.4732607007026672,0.4271105527877807,9.67717456817627,-1.0683441162109375,-0.6966047883033752,0.117172323167324
2501959242.0,-0.4399673044681549,0.0434255301952362,9.513812065124512,-1.1393083333969116,-1.4148406982421875,0.3928711116313934
2501967575.0,-0.2382111251354217,0.0330890528857708,9.615645408630373,-1.0413979291915894,-1.26142418384552,0.2901452481746673
2501975908.0,-0.226938247680664,0.3258620798587799,9.755826950073242,-0.8354082703590393,-0.8362279534339905,0.2060537040233612
2501984241.0,-0.4741834104061126,0.3653028309345245,9.72599983215332,-0.9396966099739076,-0.4799723327159881,0.2279410809278488
2501992574.0,-0.6601072549819946,0.2300854921340942,9.64856243133545,-1.1706857681274414,-0.7690032720565796,0.1842431873083114
2502000907.0,-0.4617670178413391,0.1042224615812301,9.631482124328612,-1.0585850477218628,-1.3767138719558716,0.2339732348918914
2502009240.0,-0.2880879044532776,0.2445342391729354,9.711501121520996,-1.1203922033309937,-1.027796745300293,0.200623482465744
2502017573.0,-0.3126293122768402,0.3615189790725708,9.729167938232422,-1.055780291557312,-0.7664163112640381,0.163265123963356
2502025906.0,-0.4730748236179352,0.1782559305429458,9.609128952026367,-1.0589053630828855,-0.9421812891960144,0.1783263236284256
2502034239.0,-0.3637864291667938,-0.0143342977389693,9.548322677612305,-1.1418441534042358,-1.1815718412399292,0.2257894575595855
2502042572.0,-0.1900939345359802,0.2658640444278717,9.792743682861328,-0.9244816899299622,-1.097890019416809,0.1111145466566085
2502050905.0,-0.2807276248931885,0.3785499036312103,9.751785278320312,-0.9127504229545592,-0.5443409085273743,0.1724350303411483
2502059238.0,-0.563028872013092,0.2431537359952926,9.663662910461426,-1.1292803287506104,-0.5307782292366028,0.3057442903518677
2502067571.0,-0.6424612998962402,-0.0963703691959381,9.475034713745115,-1.0467385053634644,-1.032240867614746,0.2572181522846222
2502075904.0,-0.3984920382499695,0.0381103456020355,9.672138214111328,-0.9497886300086976,-1.3377161026000977,0.1802985817193985
2502084237.0,-0.1814962327480316,0.3719692826271057,9.78325080871582,-0.8528900742530823,-0.9093182682991028,0.1912358999252319
2502092570.0,-0.3656961619853973,0.4872446954250335,9.695301055908203,-0.9367765784263612,-0.6433911323547363,0.1894428580999374
2502100903.0,-0.4669949114322662,0.1835848093032837,9.588749885559082,-1.056958556175232,-1.013388752937317,0.1936948597431183
2502109236.0,-0.3282783329486847,-0.0388954952359199,9.581896781921388,-1.0705084800720217,-1.283772587776184,0.2576535642147064
2502117569.0,-0.225185677409172,0.1613968759775161,9.713603973388672,-0.98881196975708,-0.9824339151382446,0.3592780530452728
2502125902.0,-0.3939642906188965,0.3460760116577148,9.714311599731444,-0.8587300181388855,-0.4922159314155578,0.2348825186491012
2502134235.0,-0.6355299353599548,0.2973867654800415,9.665695190429688,-1.0118006467819214,-0.5919065475463867,0.2224852442741394
2502142568.0,-0.6066683530807495,0.0916708335280418,9.553257942199709,-1.1405634880065918,-1.17222261428833,0.1995348781347274
2502150901.0,-0.3241096138954162,0.2081691920757293,9.717537879943848,-1.085415959358215,-1.244966983795166,0.2102672755718231
2502159234.0,-0.2519733011722564,0.3028727769851684,9.67230987548828,-1.0608904361724854,-0.8484460115432739,0.2095372527837753
2502167567.0,-0.3985278010368347,0.2626023292541504,9.6494779586792,-1.0415260791778564,-0.6547511219978333,0.2425539940595626
2502175900.0,-0.452775090932846,0.03107182495296,9.55760669708252,-1.1455711126327517,-1.1819688081741333,0.2699868679046631
2502184233.0,-0.2512793838977813,0.1116415709257125,9.661309242248535,-1.083443522453308,-1.133545160293579,0.2391600906848907
2502192566.0,-0.194986492395401,0.3824553489685058,9.773151397705078,-0.88767409324646,-0.821999192237854,0.2767618000507355
2502200899.0,-0.5088174939155579,0.3872191607952118,9.71890354156494,-0.9579596519470216,-0.4079963862895965,0.2588318586349487
2502209232.0,-0.7023875713348389,0.0666717290878295,9.53681468963623,-1.2235662937164309,-0.7770589590072632,0.2440908402204513
2502217565.0,-0.5111810564994812,-0.042874775826931,9.571104049682615,-1.0259398221969604,-1.3251909017562866,0.1819123178720474
2502225898.0,-0.2710354924201965,0.2490620464086532,9.742351531982422,-0.812393844127655,-1.157135844230652,0.1313498020172119
2502234231.0,-0.2483251690864563,0.4894190728664398,9.78707790374756,-0.7766876220703125,-0.7635218501091003,0.1554271578788757
2502242564.0,-0.3967824280261993,0.3468843400478363,9.630709648132324,-1.060390830039978,-0.7386248707771301,0.2836776375770569
2502250897.0,-0.3780548870563507,0.031398095190525,9.53707504272461,-1.2345677614212036,-1.220479965209961,0.1733059287071228
2502259230.0,-0.1942069381475448,0.0894175842404365,9.656201362609863,-1.002349019050598,-1.1579811573028564,0.2714084386825561
2502267563.0,-0.264269083738327,0.3186662495136261,9.753880500793455,-0.8568986654281616,-0.6122571229934692,0.2198854237794876
2502275896.0,-0.5453042984008789,0.3789431750774383,9.710655212402344,-0.9661176800727844,-0.4394890367984772,0.2396083176136016
2502284229.0,-0.6712227463722229,0.1631278246641159,9.615961074829102,-1.1945455074310305,-0.866657555103302,0.2036715894937515
2502292562.0,-0.4445781111717224,0.1300810426473617,9.644886016845703,-1.0966734886169434,-1.3214126825332642,0.2265707105398178
2502300895.0,-0.230414479970932,0.3214345276355743,9.744282722473145,-1.0066522359848022,-1.1159480810165403,0.1825526356697082
2502309228.0,-0.3423709571361542,0.3727630376815796,9.67758083343506,-0.8993541598320007,-0.7997404336929321,0.2521977424621582
2502317561.0,-0.4498566091060638,0.142942413687706,9.588107109069824,-1.1467877626419067,-0.9304500222206116,0.1781214028596878
2502325894.0,-0.3475351929664612,0.0099995760247111,9.549180030822754,-1.06430983543396,-1.2585426568984983,0.198638379573822
2502334227.0,-0.1571694165468216,0.2705848813056946,9.73984718322754,-0.8543883562088013,-1.1144753694534302,0.1809773743152618
2502342560.0,-0.317679226398468,0.4298644065856933,9.740962982177734,-1.0385291576385498,-0.4419735968112945,0.1789282262325287
2502350893.0,-0.6114606261253357,0.2257867902517318,9.59136962890625,-1.1305227279663086,-0.5345562696456909,0.2332944720983505
2502359226.0,-0.6356691718101501,-0.0637241080403328,9.560731887817385,-1.176628351211548,-1.1840564012527466,0.1896477788686752
2502367559.0,-0.3160054385662079,0.0770861878991127,9.668455123901367,-0.897830069065094,-1.366647481918335,0.2108435630798339
2502375892.0,-0.2250642627477646,0.4355435967445373,9.800294876098633,-0.7749330997467041,-0.9736227989196776,0.2337426841259002
2502384225.0,-0.412869244813919,0.4157017767429352,9.638205528259276,-0.8974458575248718,-0.530931830406189,0.242707684636116
2502392558.0,-0.5183380842208862,0.1445302516222,9.586017608642578,-1.210464596748352,-0.9815502762794496,0.2891846597194671
2502400891.0,-0.2994126677513122,-0.0169905871152877,9.566401481628418,-1.0459188222885132,-1.3016513586044312,0.3006086647510528
2502409224.0,-0.1713678985834121,0.2668224275112152,9.78131866455078,-0.9349835515022278,-0.9592914581298828,0.2814491987228393
2502417557.0,-0.3894937634468078,0.3655102849006653,9.739954948425291,-0.9371095299720764,-0.3423982560634613,0.2388271242380142
2502425890.0,-0.610502302646637,0.2596839666366577,9.658934593200684,-1.0560364723205566,-0.64408278465271,0.1554015576839447
2502434223.0,-0.5702100396156311,0.0341996625065803,9.559958457946776,-1.1483501195907593,-1.2068274021148682,0.2514293193817138
2502442556.0,-0.3044836223125458,0.1460752040147781,9.70726490020752,-1.0690484046936035,-1.3653539419174194,0.1989969760179519
2502450889.0,-0.2680670917034149,0.3426569402217865,9.770955085754396,-0.921792209148407,-0.7855757474899292,0.1517899483442306
2502459222.0,-0.4589049518108368,0.2437474280595779,9.604086875915527,-1.016641616821289,-0.7286608815193176,0.181067019701004
2502467555.0,-0.4431676268577575,0.0356257036328315,9.568747520446776,-1.173682689666748,-1.2724766731262207,0.2228950560092926
2502475888.0,-0.2255221307277679,0.0991137474775314,9.641222953796388,-1.0596864223480225,-1.2612704038619995,0.3562811911106109
2502484221.0,-0.158650055527687,0.3780348896980285,9.779352188110352,-0.9366357922554016,-0.7899942398071289,0.2199110090732574
2502492554.0,-0.4662080109119415,0.2865643501281738,9.66268253326416,-1.0448943376541138,-0.431023508310318,0.3540399372577667
2502500887.0,-0.6643059849739075,0.0389114655554294,9.567091941833496,-1.0467127561569214,-0.8809118270874023,0.2807064056396484
2502509220.0,-0.4915394783020019,-0.0692184716463089,9.527832984924316,-1.0522838830947876,-1.390417456626892,0.1873425096273422
2502517553.0,-0.2459147423505783,0.2900120317935943,9.78867244720459,-0.7718337178230286,-1.1830445528030396,0.1798503398895263
2502525886.0,-0.2822940945625305,0.4920798242092132,9.73036289215088,-0.912379026412964,-0.674089789390564,0.1907620131969452
2502534219.0,-0.4686328172683716,0.3084806501865387,9.61452293395996,-1.0672811269760132,-0.7113456130027771,0.1775834858417511
2502542552.0,-0.4097576141357422,-0.0350412167608737,9.538329124450684,-1.0647708177566528,-1.284669041633606,0.2598307728767395
2502550885.0,-0.2466944754123687,0.1099605932831764,9.681994438171388,-0.9510435461997986,-1.0584441423416138,0.1665437519550323
2502559218.0,-0.2708640396595001,0.3612684607505798,9.790867805480955,-0.8570650815963745,-0.6053028702735901,0.290286123752594
2502567551.0,-0.5911681652069092,0.3930058181285858,9.658483505249023,-0.9701007604599,-0.4452394247055053,0.2310147732496261
2502575884.0,-0.6800565719604492,0.1733992248773574,9.619193077087402,-1.2119503021240234,-1.0707134008407593,0.2079875767230987
2502584217.0,-0.4022786319255829,0.0856557115912437,9.613911628723145,-1.1598381996154783,-1.3372423648834229,0.2272110432386398
2502592550.0,-0.2137341052293777,0.3123074173927307,9.754668235778809,-0.9375065565109252,-1.0282065868377686,0.2775174081325531
2502600883.0,-0.3551889061927795,0.3336584866046905,9.64806079864502,-0.95404052734375,-0.6398051381111145,0.2924377024173736
2502609216.0,-0.470542699098587,0.1663035452365875,9.579751968383787,-1.1518337726593018,-0.863263726234436,0.149049237370491
2502617549.0,-0.3790935277938843,0.0346626751124858,9.559481620788574,-0.9713045358657836,-1.2747820615768433,0.1809133291244506
2502625882.0,-0.1865389943122863,0.2915641963481903,9.770218849182127,-0.9438717365264891,-1.1133098602294922,0.2975605428218841
2502634215.0,-0.3417626619338989,0.3857386410236358,9.707839965820312,-0.9162851572036744,-0.4030015468597412,0.2862646877765655
2502642548.0,-0.6173475980758667,0.2280898541212082,9.62602424621582,-1.0395665168762207,-0.5328401327133179,0.2555276155471802
2502650881.0,-0.6240640878677368,-0.0552628636360168,9.511300086975098,-1.093740463256836,-1.2441728115081787,0.2414909750223159
2502659214.0,-0.3270279765129089,0.1026076301932334,9.68045139312744,-0.8889548778533936,-1.390609622001648,0.1813744008541107
2502667547.0,-0.1800942867994308,0.4596703052520752,9.83244800567627,-0.8449110984802246,-0.8662734031677246,0.1485753506422042
2502675880.0,-0.3869544863700866,0.4626959562301636,9.71242332458496,-0.9953179955482484,-0.7175571918487549,0.2702685892581939
2502684213.0,-0.4820229411125183,0.1375491768121719,9.594008445739746,-1.182762861251831,-1.031946301460266,0.1903009414672851
2502692546.0,-0.2792899012565613,-0.0377813167870044,9.586390495300291,-1.040642261505127,-1.2924814224243164,0.2185918688774109
2502700879.0,-0.2028618603944778,0.2132476270198822,9.758687019348145,-0.8682073950767517,-0.9861608743667604,0.2459479123353958
2502709212.0,-0.3981629908084869,0.4377539753913879,9.760275840759276,-0.8560020327568054,-0.3878763318061828,0.192068338394165
2502717545.0,-0.6711512804031372,0.3100471198558807,9.644986152648926,-1.133263349533081,-0.5717225074768066,0.2900043725967407
2502725878.0,-0.5746093392372131,0.1130721420049667,9.594615936279297,-1.1932517290115356,-1.1714541912078855,0.1189268827438354
2502734211.0,-0.3469271957874298,0.1970393657684326,9.707345008850098,-1.056971311569214,-1.1593769788742063,0.2034666538238525
2502742544.0,-0.259025901556015,0.3513691127300262,9.72672176361084,-0.9209213256835938,-0.8763269782066345,0.2561679482460022
2502750877.0,-0.4421958923339844,0.2552635073661804,9.628155708312988,-1.0585980415344238,-0.7211815714836121,0.2443342059850692
2502759210.0,-0.4239633083343506,0.0697616785764694,9.572850227355955,-1.046892166137695,-1.1151797771453855,0.2878271341323852
2502767543.0,-0.2297850847244262,0.1380212604999542,9.645866394042969,-0.9931278824806212,-1.2939671277999878,0.3155417740345001
2502775876.0,-0.172955647110939,0.3907813727855682,9.808401107788086,-1.000171780586243,-0.8514811396598816,0.3254801034927368
2502784209.0,-0.4780244827270508,0.3357759118080139,9.704927444458008,-1.0917171239852903,-0.436658650636673,0.1122159510850906
2502792542.0,-0.6759436726570129,0.0327171050012111,9.549924850463867,-1.2094528675079346,-0.8682457208633423,0.1919146478176117
2502800875.0,-0.4955024719238281,-0.035314954817295,9.573042869567873,-1.102078199386597,-1.3981786966323853,0.2398388683795929
2502809208.0,-0.2521234154701233,0.2709210813045501,9.77631950378418,-0.8771337866783142,-1.1831470727920532,0.1635340601205825
2502817541.0,-0.2948687076568603,0.469970554113388,9.787908554077148,-0.958945631980896,-0.617815375328064,0.201929822564125
2502825874.0,-0.4499781429767608,0.3150040805339813,9.635995864868164,-1.095200538635254,-0.7703608870506287,0.1693100929260254
2502834207.0,-0.4001586437225342,-0.0379672907292842,9.546942710876465,-1.108340620994568,-1.2310584783554075,0.2597283124923706
2502842540.0,-0.1923613995313644,0.0810631662607193,9.677889823913574,-1.0301148891448977,-1.1739131212234497,0.294281929731369
2502850873.0,-0.2063882797956466,0.3235801458358764,9.753923416137695,-0.8574492931365967,-0.5796372890472412,0.2831397354602813
2502859206.0,-0.5510693192481995,0.3645660877227783,9.70103645324707,-0.979065716266632,-0.4359414577484131,0.2254308760166168
2502867539.0,-0.6648783683776855,0.1475128829479217,9.602396965026855,-0.9642606973648072,-0.8280698657035828,0.2752762138843536
2502875872.0,-0.4252580106258392,0.0958265289664268,9.613341331481934,-0.9842782020568848,-1.2575052976608276,0.233537808060646
2502884205.0,-0.2329394817352295,0.3045322895050049,9.7327299118042,-1.0340594053268433,-1.0664101839065552,0.2504303157329559
2502892538.0,-0.3521344661712646,0.3200182020664215,9.657010078430176,-0.9814991354942322,-0.6193650364875793,0.1904674619436264
2502900871.0,-0.4584471583366394,0.1300458312034607,9.597370147705078,-1.1953010559082031,-0.8295298218727112,0.2080644220113754
2502909204.0,-0.336602509021759,0.0297497753053903,9.575111389160156,-1.088797092437744,-1.2640752792358398,0.23511303961277
2502917537.0,-0.1600663214921951,0.2921435534954071,9.773923873901367,-0.9723803400993348,-1.0172566175460815,0.3234821856021881
2502925870.0,-0.3152472376823425,0.4349286258220672,9.766606330871582,-0.9769781827926636,-0.4191001057624817,0.2490856051445007
2502934203.0,-0.6262456774711609,0.1975686699151992,9.588135719299316,-1.0223408937454224,-0.5547786951065063,0.2526459991931915
2502942536.0,-0.6149306297302246,-0.0316639207303524,9.565342903137209,-1.1460576057434082,-1.2301236391067505,0.172601506114006
2502950869.0,-0.3339304625988006,0.1020496115088462,9.672066688537598,-0.9390690326690674,-1.3416223526000977,0.2304128259420395
2502959202.0,-0.1983554810285568,0.4573241770267486,9.832490921020508,-0.7992794513702393,-0.9376475214958192,0.1409807652235031
2502967535.0,-0.4104229807853699,0.4430614113807678,9.650623321533203,-0.8971000909805298,-0.608709454536438,0.2568851411342621
2502975868.0,-0.4966218769550323,0.1477419734001159,9.588171005249023,-1.104267954826355,-0.9623908400535583,0.199125051498413
2502984201.0,-0.2896279394626617,-0.0259725768119096,9.560044288635254,-1.1402305364608765,-1.3452467918395996,0.2048114091157913
2502992534.0,-0.1761459112167358,0.2326247543096542,9.781848907470703,-0.9283623099327089,-0.8846900463104248,0.2306177616119384
2503000867.0,-0.3906882703304291,0.3808245062828064,9.707674026489258,-0.8548752069473267,-0.3991210460662842,0.1222695559263229
2503009200.0,-0.6368462443351746,0.2808492183685303,9.648104667663574,-1.0101357698440552,-0.6592975854873657,0.2664648592472076
2503017533.0,-0.5619970560073853,0.047678455710411,9.555803298950195,-1.074978232383728,-1.2709527015686035,0.2399157285690307
2503025866.0,-0.2907630801200866,0.1820327043533325,9.699984550476074,-0.9750570058822632,-1.3093740940093994,0.135998785495758
2503034199.0,-0.2760496735572815,0.3347673416137695,9.737987518310549,-0.9649010300636292,-0.8513787388801575,0.2105490267276764
2503042532.0,-0.4870800077915191,0.2481964975595474,9.567220687866213,-1.009482502937317,-0.7383303046226501,0.2035179138183593
2503050865.0,-0.4625242948532104,0.0422160774469375,9.551262855529783,-1.1309452056884766,-1.1143217086791992,0.2622257173061371
2503059198.0,-0.2377390414476394,0.162462517619133,9.651009559631348,-0.9703441858291626,-1.308682560920715,0.2504687905311584
2503067531.0,-0.1845004260540008,0.411452978849411,9.786884307861328,-0.9174890518188475,-0.8012516498565674,0.2225877195596695
2503075864.0,-0.4820157885551452,0.3137737512588501,9.689799308776855,-1.0671659708023071,-0.3896693587303161,0.2528252899646759
2503084197.0,-0.6684689521789551,0.0317085534334182,9.556469917297363,-1.1948144435882568,-0.882525622844696,0.2244831323623657
2503092530.0,-0.4842045605182647,-0.0005507689202204,9.59969425201416,-0.8802973031997681,-1.3567732572555542,0.2998402416706085
2503100863.0,-0.2347276955842971,0.3126650750637054,9.772936820983888,-0.784640908241272,-1.1866307258605957,0.2286198884248733
2503109196.0,-0.3152186274528503,0.5438807010650635,9.74858856201172,-0.9395557045936584,-0.755389392375946,0.185331791639328
2503117529.0,-0.4646916091442108,0.3265487253665924,9.623298645019531,-1.0857362747192385,-0.8373036980628967,0.2425796389579773
2503125862.0,-0.4003522992134094,-0.0211313087493181,9.521133422851562,-1.10328209400177,-1.297770857810974,0.3128394782543182
2503134195.0,-0.2169100493192672,0.1298740804195404,9.695963859558104,-0.9066926836967468,-1.14165198802948,0.2363297045230865
2503142528.0,-0.2629241943359375,0.3799804747104645,9.76873779296875,-0.8386869430541992,-0.5826214551925659,0.2434889376163482
2503150861.0,-0.587928056716919,0.3718404173851013,9.679046630859377,-0.9724956750869752,-0.5407933592796326,0.1673506200313568
2503159194.0,-0.6249653100967407,0.1935917884111404,9.609966278076172,-1.07712984085083,-1.1279484033584597,0.1456169337034225
2503167527.0,-0.3718003630638122,0.1121609583497047,9.665203094482422,-1.1319185495376587,-1.3708739280700684,0.2619695961475372
2503175860.0,-0.2034984678030014,0.268503338098526,9.705198287963867,-1.0449711084365845,-1.0424097776412964,0.2616750299930572
2503184193.0,-0.3244028985500335,0.2861494719982147,9.674978256225586,-1.0951238870620728,-0.5834794044494629,0.2511475384235382
2503192526.0,-0.4734180569648742,0.0898540169000625,9.590689659118652,-1.1543183326721191,-1.0425634384155271,0.2666698098182678
2503200859.0,-0.3165466487407684,0.0358450748026371,9.587676048278809,-1.0590076446533203,-1.4033141136169434,0.2309379279613495
2503209192.0,-0.1716324090957641,0.3044823110103607,9.749382972717283,-0.8056572675704956,-1.0554728507995603,0.2789133787155151
2503217525.0,-0.3326785862445831,0.341548353433609,9.729255676269531,-0.8865470290184021,-0.3353031277656555,0.2624178528785705
2503225858.0,-0.6250798106193542,0.1445517987012863,9.578436851501465,-1.139346718788147,-0.5181503295898438,0.282665878534317
2503234191.0,-0.6121904850006104,-0.089575171470642,9.496514320373535,-1.109506130218506,-1.174130916595459,0.2168885469436645
2503242524.0,-0.318136990070343,0.1002113297581672,9.715069770812988,-0.961391806602478,-1.3418657779693604,0.2286326885223388
2503250857.0,-0.2266093492507934,0.4762576222419739,9.798836708068848,-0.7595003843307495,-0.8326290249824524,0.2718951106071472
2503259190.0,-0.4309087097644806,0.445815235376358,9.699026107788086,-0.9759792685508728,-0.6279842257499695,0.2354588806629181
2503267523.0,-0.4436121582984924,0.0729446932673454,9.53582000732422,-1.1290498971939087,-1.0034120082855225,0.3235718309879303
2503275856.0,-0.2473381608724594,-0.0064017944969236,9.599701881408691,-0.985276997089386,-1.2587090730667114,0.251083493232727
2503284189.0,-0.198241040110588,0.2304932177066803,9.77195644378662,-0.7780324816703796,-0.7865875959396362,0.2606120705604553
2503292522.0,-0.416924774646759,0.3932777941226959,9.675737380981444,-0.7585142850875854,-0.360597163438797,0.1777243614196777
2503300855.0,-0.6457515358924866,0.2690971195697784,9.651267051696776,-1.0890276432037354,-0.7734858989715576,0.0957716181874275
2503309188.0,-0.5573352575302124,0.0965348929166793,9.654014587402344,-1.0622862577438354,-1.260105013847351,0.2492265105247497
2503317521.0,-0.3326429724693298,0.2344773411750793,9.701601028442385,-1.031549334526062,-1.1967352628707886,0.1224872544407844
2503325854.0,-0.3127653002738952,0.3623843193054199,9.712142944335938,-0.906193196773529,-0.8143661618232727,0.1727423965930938
2503334187.0,-0.4694340527057647,0.1941352486610412,9.58010196685791,-1.1017578840255735,-0.8927456736564636,0.2245600074529647
2503342520.0,-0.373029887676239,0.0228240378201007,9.556368827819824,-1.118407130241394,-1.4142515659332275,0.2221266329288482
2503350853.0,-0.1658099889755249,0.1996359229087829,9.72231674194336,-0.8052730560302734,-1.1931238174438477,0.1929520219564438
2503359186.0,-0.2155295014381408,0.4474460184574127,9.761691093444824,-0.939210057258606,-0.4645525515079498,0.1045829206705093
2503367519.0,-0.5536229014396667,0.308065801858902,9.660886764526367,-1.15027117729187,-0.3977762460708618,0.1767638325691223
2503375852.0,-0.6611803770065308,-0.0731021910905838,9.508502006530762,-1.1930214166641235,-1.048736333847046,0.3068841397762298
2503384185.0,-0.4094256162643432,0.0406248867511749,9.647879600524902,-1.1541645526885986,-1.331158995628357,0.2793744504451751
2503392518.0,-0.2318379431962967,0.3425496518611908,9.774481773376465,-0.833474338054657,-1.0105199813842771,0.1686697155237198
2503400851.0,-0.3570554852485657,0.4836325347423553,9.756986618041992,-0.959906280040741,-0.7307356595993042,0.2259175330400467
2503409184.0,-0.4853203892707824,0.2628741264343261,9.604165077209473,-1.151206135749817,-0.7947584986686707,0.2592032253742218
2503417517.0,-0.3393108248710632,-0.033169612288475,9.555501937866213,-1.0912432670593262,-1.2953885793685913,0.2936800122261047
2503425850.0,-0.1895931512117386,0.1607173383235931,9.739497184753418,-0.9627237915992736,-1.0406678915023804,0.2966640591621399
2503434183.0,-0.2955626249313354,0.3676990568637848,9.744890213012695,-0.927555501461029,-0.5380654335021973,0.1222055181860923
2503442516.0,-0.5754104256629944,0.2995467483997345,9.682853698730469,-1.1316368579864502,-0.5140776634216309,0.2076417803764343
2503450849.0,-0.5811541676521301,0.1264193505048751,9.543058395385742,-1.0791661739349363,-1.238179326057434,0.169950470328331
2503459182.0,-0.3069010078907013,0.1862888187170028,9.710619926452637,-1.037363886833191,-1.3333362340927124,0.2354460656642913
2503467515.0,-0.2670157253742218,0.3393665552139282,9.720097541809082,-0.9586766958236694,-0.8866238594055176,0.2584476172924042
2503475848.0,-0.4373965263366699,0.2971718311309814,9.659512519836426,-0.9612637758255004,-0.7187226414680481,0.2649024128913879
2503484181.0,-0.470263659954071,0.0098923817276954,9.529095649719238,-1.154190182685852,-1.149272322654724,0.2187711745500564
2503492514.0,-0.2399396449327469,0.0865206271409988,9.557515144348145,-1.0019391775131226,-1.3459128141403198,0.172537475824356
2503500847.0,-0.1403030157089233,0.417082279920578,9.852118492126465,-0.94907146692276,-0.9238669872283936,0.3053216934204101
2503509180.0,-0.3936781585216522,0.3387729525566101,9.71070671081543,-1.092690348625183,-0.442165732383728,0.2073984593153
2503517513.0,-0.6404369473457336,0.073810189962387,9.537886619567873,-1.1952115297317505,-0.6370515823364258,0.2268780767917633
2503525846.0,-0.5662588477134705,0.0236621648073196,9.571152687072754,-1.0229300260543823,-1.3483846187591553,0.1400970518589019
2503534179.0,-0.3076866865158081,0.0985161066055297,9.626996994018556,-0.948059618473053,-1.1919585466384888,0.1846273988485336
2503542512.0,-0.2810280323028564,0.5112637281417847,9.824172019958496,-0.828159511089325,-0.6822863817214966,0.1446051597595214
2503550845.0,-0.4884032607078552,0.330404132604599,9.59103298187256,-1.081368923187256,-0.8260206580162048,0.2256358116865158
2503559178.0,-0.4194641709327698,0.0480313412845134,9.598077774047852,-1.015719652175903,-1.180316686630249,0.1904674470424652
2503567511.0,-0.2011808604001999,0.0418441295623779,9.57642650604248,-1.055677890777588,-1.1853883266448977,0.2464089542627334
2503575844.0,-0.2267379760742187,0.353758156299591,9.852840423583984,-0.9143129587173462,-0.6132432222366333,0.2122907638549804
2503584177.0,-0.521477997303009,0.2893682718276977,9.638728141784668,-0.9569351077079772,-0.4713915884494781,0.2036331743001938
2503592510.0,-0.6309522390365601,0.1910525113344192,9.62652587890625,-1.1389881372451782,-0.89537113904953,0.1710390448570251
2503600843.0,-0.4542295336723327,0.10484529286623,9.664870262145996,-1.1037046909332275,-1.2456845045089722,0.235522910952568
2503609176.0,-0.2824013233184814,0.2824658155441284,9.728174209594728,-1.010776162147522,-1.0776292085647583,0.1634187996387481
2503617509.0,-0.3824982643127441,0.337664246559143,9.666301727294922,-1.0284370183944702,-0.725600004196167,0.233922004699707
2503625842.0,-0.4808211922645569,0.0988022908568382,9.567965507507324,-1.0286548137664795,-0.9378010034561156,0.1856775879859924
2503634175.0,-0.3152146637439728,0.0388209670782089,9.600082397460938,-1.0241467952728271,-1.3729612827301023,0.1854726672172546
2503642508.0,-0.1514614522457122,0.2759066224098205,9.728996276855469,-1.0098155736923218,-1.053513526916504,0.2108692079782486
2503650841.0,-0.301578164100647,0.3869330286979675,9.745613098144531,-0.9524396657943726,-0.5034733414649963,0.2341269105672836
2503659174.0,-0.6086781620979309,0.1979836970567703,9.592957496643066,-1.1364140510559082,-0.5930079817771912,0.2473054677248001
2503667507.0,-0.600743293762207,-0.0664639174938201,9.522546768188477,-1.0709949731826782,-1.2988593578338623,0.1986127644777298
2503675840.0,-0.3551422357559204,0.0952976197004318,9.712735176086426,-0.9624676704406738,-1.3705536127090454,0.2259431630373001
2503684173.0,-0.2255578339099884,0.4326539635658264,9.799623489379885,-0.835139274597168,-0.8555538058280945,0.1494846642017364
2503692506.0,-0.4489696323871612,0.4237773418426513,9.744338989257812,-1.0236856937408447,-0.7535580396652222,0.2264810502529144
2503700839.0,-0.4914002120494842,0.0881302803754806,9.531671524047852,-1.174988865852356,-1.0137218236923218,0.2425155490636825
2503709172.0,-0.2450388222932815,0.0179326012730598,9.616903305053713,-0.9986350536346436,-1.3407642841339111,0.2056054472923278
2503717505.0,-0.19512240588665,0.2589686810970306,9.730941772460938,-0.8594856262207031,-0.883460521697998,0.1813872158527374
2503725838.0,-0.3628422617912292,0.3807100653648376,9.75441074371338,-0.8880711197853088,-0.4798314571380615,0.1515466123819351
2503734171.0,-0.6159599423408508,0.2488688677549362,9.62273406982422,-1.1431630849838257,-0.7206563949584961,0.2440396249294281
2503742504.0,-0.5253405570983887,0.1303319483995437,9.627519607543944,-1.0952774286270142,-1.2172012329101562,0.1698479801416397
2503750837.0,-0.2897831797599792,0.2445391416549682,9.715782165527344,-1.141818642616272,-1.2968615293502808,0.2190273404121399
2503759170.0,-0.3132301568984985,0.3873622119426727,9.745920181274414,-0.9799365401268004,-0.7417243123054504,0.2524795234203338
2503767503.0,-0.4659790098667145,0.2206938862800598,9.58803653717041,-1.090666890144348,-0.8614963293075562,0.2067068666219711
2503775836.0,-0.4002277851104736,0.0302378870546817,9.579106330871582,-1.1056256294250488,-1.3197094202041626,0.1965380162000656
2503784169.0,-0.1893858164548874,0.1524843126535415,9.67536449432373,-1.0069595575332642,-1.2946072816848757,0.1889818161725998
2503792502.0,-0.2318093329668045,0.3858887255191803,9.790160179138184,-0.9507619142532348,-0.6647021770477295,0.2498156130313873
2503800835.0,-0.5224078893661499,0.3211411833763122,9.685028076171877,-1.0788843631744385,-0.4899362623691559,0.2529405653476715
2503809168.0,-0.6550144553184509,0.0147992316633462,9.513652801513672,-1.1675608158111572,-1.047583818435669,0.1271746754646301
2503817501.0,-0.4289202392101288,0.013282828964293,9.642396926879885,-0.9799622297286988,-1.354544758796692,0.1064527556300163
2503825834.0,-0.2439834326505661,0.3203258514404297,9.762236595153809,-0.813264787197113,-1.0431013107299805,0.236496239900589
2503834167.0,-0.3619839251041412,0.4681750237941742,9.738001823425291,-0.8419654965400696,-0.5410750508308411,0.2693464756011963
2503842500.0,-0.4985102415084839,0.2638755440711975,9.589200973510742,-1.129690170288086,-0.8483946919441223,0.3478541076183319
2503850833.0,-0.3567784428596496,-0.0185246653854846,9.531343460083008,-1.215356945991516,-1.307747483253479,0.2165683507919311
2503859166.0,-0.1952510625123977,0.1810886114835739,9.737359046936035,-0.9540660977363586,-1.0758106708526611,0.2635192275047302
2503867499.0,-0.3033878207206726,0.3966036736965179,9.774767875671388,-0.9020180702209472,-0.5076356530189514,0.1521741598844528
2503875832.0,-0.5746451020240784,0.2572663128376007,9.635458946228027,-1.0476607084274292,-0.5625014305114746,0.1643409579992294
2503884165.0,-0.6255089640617371,0.1270201802253723,9.613263130187988,-1.079729676246643,-1.103115439414978,0.272100031375885
2503892498.0,-0.3580537140369415,0.1322533339262008,9.726656913757324,-0.9934736490249634,-1.371565341949463,0.2936799824237823
2503900831.0,-0.2819507718086242,0.3117137551307678,9.75089168548584,-0.9652725458145142,-0.961686372756958,0.1790819317102432
2503909164.0,-0.414664626121521,0.3188093602657318,9.66782569885254,-1.1002721786499023,-0.6338882446289062,0.2255589365959167
2503917497.0,-0.464727371931076,0.0430458076298236,9.558451652526855,-1.072506546974182,-1.1077772378921509,0.1766357570886612
2503925830.0,-0.2510401904582977,0.080194741487503,9.640710830688477,-1.098479151725769,-1.3122812509536743,0.1665693521499633
2503934163.0,-0.1591435521841049,0.339094877243042,9.767014503479004,-0.9348554611206056,-0.980833113193512,0.1994068324565887
2503942496.0,-0.3818117976188659,0.3659178912639618,9.713452339172363,-0.9433082342147828,-0.4032064974308014,0.2585757076740265
2503950829.0,-0.6460448503494263,0.1175211519002914,9.557849884033203,-1.092139720916748,-0.7562859654426575,0.2138404250144958
2503959162.0,-0.5630646347999573,-0.0356068536639213,9.561083793640137,-1.0411930084228516,-1.304302453994751,0.1520589143037796
2503967495.0,-0.3169496357440948,0.1854088455438614,9.725956916809082,-0.9283239841461182,-1.2705814838409424,0.1967429667711258
2503975828.0,-0.2735962569713592,0.5056559443473816,9.799530982971191,-0.903170645236969,-0.8080650568008423,0.1679012924432754
2503984161.0,-0.4682464897632599,0.356447696685791,9.647612571716309,-1.06792151927948,-0.8093970417976379,0.1759441941976547
2503992494.0,-0.439990371465683,0.0288967359811067,9.537755966186523,-1.2552382946014404,-1.2512681484222412,0.2251235246658325
2504000827.0,-0.1941853761672973,0.0774295255541801,9.691408157348633,-0.968423068523407,-1.2259997129440308,0.2081925123929977
2504009160.0,-0.1929122805595398,0.3209908604621887,9.808771133422852,-0.8859066963195801,-0.6874732971191406,0.2090377807617187
2504017493.0,-0.5016646385192871,0.3590011894702911,9.709239959716797,-1.013965129852295,-0.3391324877738952,0.2078723460435867
2504025826.0,-0.6778892278671265,0.1849510669708252,9.627283096313477,-1.212347388267517,-0.8347935080528259,0.23517706990242
2504034159.0,-0.4630893468856811,0.0816926211118698,9.66568660736084,-1.0005944967269895,-1.2886778116226196,0.2706784307956695
2504042492.0,-0.2660071849822998,0.2179112434387207,9.717244148254396,-0.9926283955574036,-1.1028207540512085,0.3098169267177582
2504050825.0,-0.3430861234664917,0.3557752668857574,9.733338356018066,-0.9900543093681335,-0.6821967959403992,0.1242546588182449
2504059158.0,-0.4914146065711975,0.1325779408216476,9.578192710876465,-0.9946902990341188,-0.809857964515686,0.2725610733032226
2504067491.0,-0.3551078140735626,0.013148134574294,9.583932876586914,-1.1172291040420532,-1.257697343826294,0.238058716058731
2504075824.0,-0.1717683672904968,0.2486113607883453,9.722609519958496,-0.9062572717666626,-1.2073012590408323,0.2361120134592056
2504084157.0,-0.2563219666481018,0.3964035809040069,9.772701263427734,-0.9400295615196228,-0.6070700883865356,0.2604199051856994
2504092490.0,-0.565546452999115,0.2127543091773986,9.63195514678955,-1.061223387718201,-0.4969673454761505,0.2955242395401001
2504100823.0,-0.607841432094574,-0.0681737437844276,9.540597915649414,-1.0839303731918335,-1.1069575548171997,0.0758693590760231
2504109156.0,-0.376246690750122,0.0689605623483657,9.65713882446289,-0.886009156703949,-1.3917109966278076,0.22758249938488
2504117489.0,-0.2311369627714157,0.428004652261734,9.819830894470217,-0.8185669779777527,-0.9275042414665222,0.1520973294973373
2504125822.0,-0.3875767886638641,0.4702064394950866,9.708918571472168,-0.8939880132675171,-0.6217343211174011,0.1654039323329925
2504134155.0,-0.4910570979118347,0.1580777466297149,9.568936347961426,-1.2179824113845823,-1.009917974472046,0.2343830466270446
2504142488.0,-0.3057561814785003,-0.0189843773841857,9.595815658569336,-1.0107249021530151,-1.3529053926467896,0.2766593396663666
2504150821.0,-0.1776193082332611,0.2187197357416153,9.730076789855955,-0.9617760181427002,-0.9953306317329408,0.2893383800983429
2504159154.0,-0.3464622497558594,0.4210950136184692,9.7825288772583,-0.846614420413971,-0.3725205957889557,0.1834235340356826
2504167487.0,-0.6480332612991333,0.2971362471580505,9.645672798156738,-1.0187933444976809,-0.6148825287818909,0.190467432141304
2504175820.0,-0.5826492309570312,0.0899040028452873,9.59490203857422,-1.095187783241272,-1.187424659729004,0.1505220383405685
2504184153.0,-0.3333125114440918,0.1583452224731445,9.717401504516602,-1.0918837785720823,-1.243443250656128,0.2862006723880768
2504192486.0,-0.2697837650775909,0.3184517323970794,9.735054969787598,-0.8820773959159851,-0.8360229730606079,0.1832057982683181
2504200819.0,-0.4559866786003113,0.2265805602073669,9.626245498657228,-1.0634902715682983,-0.8941033482551575,0.1495871394872665
2504209152.0,-0.4316954314708709,0.0361434035003185,9.544124603271484,-1.1415112018585205,-1.0516819953918457,0.2072191685438156
2504217485.0,-0.2315090000629425,0.1281144767999649,9.713202476501465,-0.8725873231887817,-1.2185587882995603,0.2286326587200164
2504225818.0,-0.1718828231096267,0.3598094582557678,9.8031644821167,-0.9355727434158324,-0.7331945896148682,0.2431046813726425
2504234151.0,-0.4554072022438049,0.309639424085617,9.662482261657717,-1.0228787660598757,-0.4364665448665619,0.2403255403041839
2504242484.0,-0.6896770000457764,0.0209221728146076,9.530055046081545,-1.074235439300537,-0.892579197883606,0.2871995866298675
2504250817.0,-0.4904632568359375,-0.0338328182697296,9.599581718444824,-0.9718680381774902,-1.3426084518432615,0.2419776767492294
2504259150.0,-0.2687036991119385,0.252781480550766,9.765740394592283,-0.7432866096496582,-1.1049596071243286,0.1770711839199066
2504267483.0,-0.3052761852741241,0.4887466132640838,9.750926971435549,-0.930155336856842,-0.6551609039306641,0.3016204237937927
2504275816.0,-0.4791403412818908,0.2962922155857086,9.631296157836914,-1.0166417360305786,-0.6720790863037109,0.2658501267433166
2504284149.0,-0.4226114153861999,0.0036837141960859,9.535125732421877,-1.1319057941436768,-1.1840564012527466,0.1688234210014343
2504292482.0,-0.201989084482193,0.1095172390341758,9.70676612854004,-1.0514514446258545,-1.249167799949646,0.1256634294986724
2504300815.0,-0.2624665796756744,0.3630353212356567,9.759796142578123,-0.8150321841239929,-0.4784611463546753,0.2744821608066559
2504309148.0,-0.5390310883522034,0.4031556844711303,9.673032760620115,-0.9145179390907288,-0.3998766243457794,0.2031977474689483
2504317481.0,-0.6474610567092896,0.1798367798328399,9.611239433288574,-1.0514003038406372,-0.9452292323112488,0.1623686403036117
2504325814.0,-0.4457710981369018,0.1602637618780136,9.65713119506836,-1.0553961992263794,-1.3471423387527466,0.2165427356958389
2504334147.0,-0.2875873148441314,0.3451317250728607,9.733330726623535,-0.9310646057128906,-1.1304714679718018,0.2764800190925598
2504342480.0,-0.4078836143016815,0.3425711691379547,9.710685729980469,-1.1165627241134644,-0.7416985034942627,0.2042734920978546
2504350813.0,-0.4730461239814758,0.1398953050374984,9.570375442504885,-1.1273081302642822,-1.0278223752975464,0.2837544679641723
2504359146.0,-0.2914363145828247,0.0853484794497489,9.610352516174316,-1.135184407234192,-1.329801321029663,0.1953853815793991
2504367479.0,-0.1596872210502624,0.3106837272644043,9.761348724365234,-0.9055528044700624,-1.033675193786621,0.2205129414796829
2504375812.0,-0.3599595129489898,0.4074904322624206,9.777036666870115,-0.9621731638908386,-0.4593656659126282,0.2069245874881744
2504384145.0,-0.6297005414962769,0.1599661856889724,9.595510482788086,-1.1933798789978027,-0.6666488647460938,0.1769174933433532
2504392478.0,-0.5796878337860107,-0.0331748872995376,9.541706085205078,-1.0533726215362549,-1.192713975906372,0.2544774115085602
2504400811.0,-0.3223071098327636,0.1533641070127487,9.687602996826172,-0.8176576495170593,-1.2146525382995603,0.1765204966068267
2504409144.0,-0.2394199520349502,0.478153258562088,9.808135986328123,-0.7834113240242004,-0.9694987535476683,0.17739138007164
2504417477.0,-0.4221537411212921,0.3985061645507812,9.670992851257324,-0.9365204572677612,-0.7833985090255737,0.1936948448419571
2504425810.0,-0.4315810799598694,0.0782807096838951,9.541441917419434,-1.2259868383407593,-1.0948163270950315,0.2441804856061935
2504434143.0,-0.2001794278621673,0.0441760346293449,9.63547420501709,-0.9831767082214355,-1.263601303100586,0.1625095009803772
2504442476.0,-0.1986344456672668,0.2802269160747528,9.745583534240724,-0.8680536150932312,-0.8410561680793762,0.1973064541816711
2504450809.0,-0.4370386898517608,0.3435724973678589,9.682982444763184,-0.8979966640472412,-0.4527444243431091,0.0977695435285568
2504459142.0,-0.6240997314453125,0.2172247618436813,9.666638374328612,-1.13605535030365,-0.744567334651947,0.2362401038408279
2504467475.0,-0.474634051322937,0.144938051700592,9.67574405670166,-1.1384247541427612,-1.1747968196868896,0.3074092268943786
2504475808.0,-0.2698696255683899,0.1724908053874969,9.690414428710938,-1.002835750579834,-1.1412293910980225,0.225456491112709
2504484141.0,-0.3446382880210876,0.3675130605697632,9.746027946472168,-1.02276349067688,-0.8215893507003784,0.2435145229101181
2504492474.0,-0.5104268789291382,0.1558175235986709,9.582928657531738,-1.0714690685272217,-0.8969081044197083,0.2133794128894806
2504500807.0,-0.3890695571899414,-0.0517258383333683,9.555850982666016,-1.16213059425354,-1.2229644060134888,0.1838589757680893
2504509140.0,-0.1288656145334243,0.2595480680465698,9.737529754638672,-0.9614046216011048,-1.147825002670288,0.1004206016659736
2504517473.0,-0.2376031428575515,0.3817543685436249,9.772464752197266,-1.0685489177703855,-0.6365137100219727,0.2496107071638107
2504525806.0,-0.5342816114425659,0.2110303193330764,9.634071350097656,-0.9925131797790528,-0.5361955761909485,0.3133389353752136
2504534139.0,-0.6482120752334595,-0.0748974159359932,9.50592803955078,-1.102987289428711,-1.1059074401855469,0.2436938136816024
2504542472.0,-0.40720334649086,0.0261510945856571,9.712079048156738,-0.932370901107788,-1.398268222808838,0.2157743126153946
2504550805.0,-0.286471426486969,0.2835744321346283,9.773865699768066,-0.86226487159729,-1.042819619178772,0.1885207742452621
2504559138.0,-0.4323965013027191,0.4622667729854584,9.724297523498535,-0.9592658281326294,-0.6063273549079895,0.2480994760990142
2504567471.0,-0.513359546661377,0.1410039961338043,9.588542938232422,-1.0820988416671753,-0.9734689593315125,0.2695769965648651
2504575804.0,-0.3127152919769287,-0.0514973551034927,9.53480052947998,-0.9960607886314392,-1.3409053087234497,0.2401462793350219
2504584137.0,-0.1171422079205513,0.203090563416481,9.722615242004396,-0.9060651659965516,-1.0821117162704468,0.3065767884254455
2504592470.0,-0.3001976609230041,0.3159982860088348,9.730727195739746,-0.8587300181388855,-0.4546398520469665,0.1970247030258178
2504600803.0,-0.5617914199829102,0.3016926050186157,9.681644439697266,-1.0155659914016724,-0.6043038368225098,0.0927747562527656
2504609136.0,-0.6048300266265869,0.083623968064785,9.59758472442627,-1.0856465101242063,-1.13244366645813,0.1645970642566681
2504617469.0,-0.3632785975933075,0.1819182485342025,9.711092948913574,-1.0498634576797483,-1.2435071468353271,0.2005594670772552
2504625802.0,-0.3243885934352875,0.3625919222831726,9.732758522033691,-1.0258501768112185,-0.92152339220047,0.3043611645698547
2504634135.0,-0.4883889555931091,0.2618727385997772,9.58753490447998,-1.007049322128296,-0.7230642437934875,0.2325900942087173
2504642468.0,-0.4946834743022918,0.0720434337854385,9.548379898071287,-1.005563735961914,-1.0752856731414795,0.1589235365390777
2504650801.0,-0.2186955213546753,0.1003334447741508,9.627052307128906,-1.0058581829071045,-1.3614349365234375,0.2640571296215057
2504659134.0,-0.138994038105011,0.3885639011859894,9.812620162963867,-0.8767368197441101,-0.9237645268440248,0.1346796452999115
2504667467.0,-0.399979829788208,0.3563617765903473,9.697395324707031,-1.007587194442749,-0.4710201621055603,0.2063866853713989
2504675800.0,-0.6384913921356201,0.0786168947815895,9.57961654663086,-0.995932638645172,-0.7506763935089111,0.1407374292612075
2504684133.0,-0.5123095512390137,-0.0341837145388126,9.56614875793457,-0.9880690574645996,-1.349639654159546,0.1930416673421859
2504692466.0,-0.2740897238254547,0.2850265502929687,9.762386322021484,-0.7779555320739746,-1.1892945766448977,0.1832570433616638
2504700799.0,-0.3048112392425537,0.504311203956604,9.7901029586792,-0.7531097531318665,-0.6193265318870544,0.1779036670923233
2504709132.0,-0.4773163497447967,0.368185430765152,9.662882804870604,-1.0842633247375488,-0.7900583148002625,0.1967685520648956
2504717465.0,-0.3958432674407959,0.0490607917308807,9.522518157958984,-1.2006545066833496,-1.315995454788208,0.2111637741327285
2504725798.0,-0.1816465407609939,0.1372700333595276,9.699511528015137,-0.9698060750961304,-1.2633196115493774,0.3791034817695617
2504734131.0,-0.2137698680162429,0.3592801392078399,9.76502513885498,-0.919346034526825,-0.6845147609710693,0.2257510423660278
2504742464.0,-0.4952199161052704,0.3746587634086609,9.69880485534668,-1.0049617290496826,-0.4612739384174347,0.3046813309192657
2504750797.0,-0.652632474899292,0.2143564820289611,9.593615531921388,-1.2158693075180054,-0.92906653881073,0.19635871052742
2504759130.0,-0.4111534655094147,0.157889261841774,9.67485809326172,-1.091614842414856,-1.2714779376983645,0.2351642996072769
2504767463.0,-0.275427371263504,0.3150755763053894,9.744661331176758,-1.0496840476989746,-0.9878514409065248,0.1698479950428009
2504775796.0,-0.364058256149292,0.3330864310264587,9.668232917785645,-1.0244925022125244,-0.6036506295204163,0.2365090101957321
2504784129.0,-0.4864149093627929,0.1338224560022354,9.55495262145996,-1.0783464908599854,-0.9569606184959412,0.2391344755887985
2504792462.0,-0.3202970921993255,0.0464578233659267,9.597679138183594,-1.0872857570648191,-1.2470929622650146,0.2205129414796829
2504800795.0,-0.1689071804285049,0.2890035510063171,9.710156440734863,-0.961315095424652,-1.0422048568725586,0.234831303358078
2504809128.0,-0.289203941822052,0.4019395709037781,9.75496768951416,-1.0083556175231934,-0.479472815990448,0.2998786270618438
2504817461.0,-0.6370751261711121,0.1674909740686416,9.61033821105957,-1.147799372673035,-0.5781388878822327,0.2086407393217086
2504825794.0,-0.6055310964584351,-0.0761420130729675,9.52016258239746,-0.988824725151062,-1.1798045635223389,0.2599076330661773
2504834127.0,-0.3530929386615753,0.0835309997200965,9.692646980285645,-0.860318124294281,-1.2667391300201416,0.1885463744401931
2504842460.0,-0.2199142277240753,0.4399497807025909,9.8119535446167,-0.8953455090522766,-0.8601515889167786,0.1700401157140731
2504850793.0,-0.4356726109981537,0.3960314393043518,9.691279411315918,-1.1092627048492432,-0.6759724020957947,0.1918506175279617
2504859126.0,-0.4606382250785827,0.0701170787215232,9.54526424407959,-1.361870527267456,-1.1398975849151611,0.2306049913167953
2504867459.0,-0.2763454020023346,-0.0229899380356073,9.603309631347656,-1.108186960220337,-1.2380000352859497,0.2611883282661438
2504875792.0,-0.1976188123226165,0.2058373093605041,9.740862846374512,-0.9399014711380004,-0.9903103113174438,0.1929007768630981
2504884125.0,-0.4207087755203247,0.3764183521270752,9.724383354187012,-0.9416689276695251,-0.4324835240840912,0.2175929099321365
2504892458.0,-0.6360522508621216,0.2104080319404602,9.616775512695312,-1.0968656539916992,-0.8495088815689087,0.2312453091144561
2504900791.0,-0.5291386842727661,0.0458139590919017,9.63412857055664,-1.0729418992996216,-1.2184051275253296,0.2644926011562347
2504909124.0,-0.2869004905223846,0.1792861521244049,9.695658683776855,-0.9539124369621276,-1.3030858039855957,0.313543826341629
2504917457.0,-0.3112631142139435,0.3035237491130829,9.73508358001709,-1.0441385507583618,-0.6638184785842896,0.2071039080619812
2504925790.0,-0.5003198981285095,0.1869967728853225,9.618034362792969,-1.0353529453277588,-0.7620747089385986,0.2647615373134613
2504934123.0,-0.4034704267978668,0.0133686633780598,9.558237075805664,-0.9867372512817384,-1.1975680589675903,0.1720636337995529
2504942456.0,-0.1902871280908584,0.1715107560157776,9.69721508026123,-0.8695265054702759,-1.2501283884048462,0.2783627212047577
2504950789.0,-0.1902942359447479,0.4036921560764313,9.79071807861328,-0.8776461482048035,-0.547145664691925,0.274110734462738
2504959122.0,-0.5164211392402649,0.2778949737548828,9.658833503723145,-1.0708414316177368,-0.4602237641811371,0.226045623421669
2504967455.0,-0.6623461246490479,-0.0188763532787561,9.532307624816896,-1.076425313949585,-0.90365731716156,0.175431877374649
2504975788.0,-0.4357869625091553,0.0099925212562084,9.610530853271484,-0.8840880990028381,-1.3561583757400513,0.057299043983221
2504984121.0,-0.2169099152088165,0.3584505319595337,9.828872680664062,-0.7667236924171448,-1.0053460597991943,0.1686953455209732
2504992454.0,-0.3476138710975647,0.4929667711257934,9.75539779663086,-0.8047481179237366,-0.5563412308692932,0.2397364377975464
2505000787.0,-0.4644054770469665,0.2548200190067291,9.603757858276367,-1.0290262699127195,-0.9696524143218994,0.291221022605896
2505009120.0,-0.3428263962268829,-0.0037661027163267,9.548040390014648,-1.110633373260498,-1.3894699811935425,0.1591284424066543
2505017453.0,-0.1283434629440307,0.1758383363485336,9.73167896270752,-0.9371095299720764,-1.0818811655044556,0.1969990730285644
2505025786.0,-0.2848047614097595,0.3698448836803436,9.743931770324709,-0.7483838796615601,-0.4988244175910949,0.2212301343679428
2505034119.0,-0.5604824423789978,0.3573560416698456,9.694025993347168,-0.9236364364624025,-0.375415027141571,0.1112426221370697
2505042452.0,-0.6242786645889282,0.1161550134420394,9.6162748336792,-1.1703015565872192,-1.0622351169586182,0.2799123525619507
2505050785.0,-0.332331895828247,0.1611974835395813,9.71943473815918,-1.0474941730499268,-1.3408796787261963,0.2164018899202346
2505059118.0,-0.2640186548233032,0.3343882262706756,9.761018753051758,-0.995676577091217,-0.8509818315505981,0.167376235127449
2505067451.0,-0.3940858840942383,0.2959989607334137,9.647017478942873,-0.9387490153312684,-0.7953605055809021,0.2981241047382355
2505075784.0,-0.4659433364868164,0.0847969502210617,9.570590019226074,-1.1486574411392212,-1.116409182548523,0.2965103685855865
2505084117.0,-0.2126059979200363,0.1206055879592895,9.656673431396484,-1.0079715251922607,-1.406375288963318,0.3453439474105835
2505092450.0,-0.1524628549814224,0.3618694841861725,9.799201965332031,-0.963978946208954,-0.8145711421966553,0.1978699713945388
2505100783.0,-0.3950731456279754,0.3855881690979004,9.75092601776123,-1.037466287612915,-0.4462128281593323,0.2475616037845611
2505109116.0,-0.6614090800285339,0.1080293878912925,9.554818153381348,-1.1388602256774902,-0.7586168646812439,0.2302847951650619
2505117449.0,-0.5493994355201721,-0.0445755235850811,9.568546295166016,-1.0727624893188477,-1.321630358695984,0.2754298746585846
2505125782.0,-0.2966784536838531,0.197654515504837,9.753802299499512,-0.9440125226974488,-1.189243197441101,0.2805911004543304
2505134115.0,-0.2732171416282654,0.5064427256584167,9.783465385437012,-0.9480084180831908,-0.7013433575630188,0.3117636442184448
2505142448.0,-0.4655570983886719,0.3727775514125824,9.635430335998535,-1.1075210571289062,-0.7390603423118591,0.3222014904022217
2505150781.0,-0.4508436918258667,0.0591039396822452,9.554696083068848,-1.1072648763656616,-1.1363115310668943,0.1736645102500915
2505159114.0,-0.2043924331665039,0.0686959847807884,9.672124862670898,-1.0110065937042236,-1.097736358642578,0.1956415176391601
2505167447.0,-0.2058874368667602,0.3260838091373443,9.75107765197754,-0.9039647579193116,-0.6616796851158142,0.2449233084917068
2505175780.0,-0.4832819700241089,0.3452747762203216,9.706743240356444,-0.981012523174286,-0.4244919419288635,0.2409275025129318
2505184113.0,-0.676258385181427,0.1936560720205307,9.60400104522705,-1.1755139827728271,-0.8767751455307007,0.3303595781326294
2505192446.0,-0.459132969379425,0.1088751852512359,9.642777442932127,-1.1568667888641355,-1.4061702489852903,0.3140945434570312
2505200779.0,-0.2767148911952972,0.2965354025363922,9.746356964111328,-1.0359933376312256,-1.1569437980651855,0.1764948964118957
2505209112.0,-0.3275358378887176,0.3304255902767181,9.702452659606934,-1.050324559211731,-0.708374559879303,0.1768406927585601
2505217445.0,-0.4718873500823974,0.1298455595970153,9.576361656188965,-1.1679195165634155,-0.9296814203262328,0.1842687875032425
2505225778.0,-0.3289021253585815,-0.017715161666274,9.578376770019531,-1.1600942611694336,-1.3355517387390137,0.1258043050765991
2505234111.0,-0.1731417179107666,0.2236550897359848,9.716836929321287,-0.9920265078544616,-1.2227596044540403,0.183577224612236
2505242444.0,-0.2569299936294555,0.3773554861545563,9.764426231384276,-0.9595220685005188,-0.4636816382408142,0.1975113749504089
2505250777.0,-0.6116539239883423,0.1791715621948242,9.611825942993164,-1.0798577070236206,-0.5089676380157471,0.2876990735530853
2505259110.0,-0.6027414202690125,-0.0659705474972724,9.546856880187988,-1.00081205368042,-1.138949632644653,0.2672845423221588
2505267443.0,-0.3594303727149963,0.0461859069764614,9.654807090759276,-0.8600107431411743,-1.3420705795288086,0.1653655022382736
2505275776.0,-0.1937920600175857,0.3885422945022583,9.800129890441896,-0.8256492018699646,-0.9541046619415284,0.2196933031082153
2505284109.0,-0.3956666588783264,0.3879201412200928,9.69607162475586,-0.893065869808197,-0.609874963760376,0.2034410685300827
2505292442.0,-0.4463087320327759,0.1174640581011772,9.547686576843262,-1.029961109161377,-0.9450755715370178,0.192362904548645
2505300775.0,-0.2783814966678619,-0.0144845070317387,9.594115257263184,-1.0069211721420288,-1.2721565961837769,0.1925037801265716
2505309108.0,-0.1604309678077697,0.1973685920238495,9.742853164672852,-0.9250581860542296,-0.856053352355957,0.2508274018764496
2505317441.0,-0.3972188234329223,0.3701667785644531,9.739618301391602,-0.8047481179237366,-0.3705867826938629,0.2486246228218078
2505325774.0,-0.6467030048370361,0.2286189794540405,9.661465644836426,-1.02578604221344,-0.7173651456832886,0.2798099219799042
2505334107.0,-0.5526309013366699,0.0772930085659027,9.619300842285156,-1.1693284511566162,-1.244429349899292,0.2197189331054687
2505342440.0,-0.275427371263504,0.2075898051261901,9.727745056152344,-0.9452549815177916,-1.1413062810897827,0.2353948205709457
2505350773.0,-0.2714933156967163,0.3371778726577759,9.735269546508787,-1.149425983428955,-0.6761518120765686,0.2206410020589828
2505359106.0,-0.4511154890060425,0.2377318888902664,9.632397651672363,-1.072083830833435,-0.7806962728500366,0.1966532766819
2505367439.0,-0.4118464887142181,0.0425951071083545,9.548608779907228,-1.1970171928405762,-1.0329580307006836,0.1614465117454528
2505375772.0,-0.1889566481113433,0.167390838265419,9.694884300231934,-0.9746344089508056,-1.2516523599624634,0.2317831963300705
2505384105.0,-0.1875548064708709,0.3705886602401733,9.8007173538208,-0.9184623956680298,-0.6774836778640747,0.191287100315094
2505392438.0,-0.4778528213500976,0.3143388330936432,9.648805618286133,-1.0266057252883911,-0.3946256935596466,0.2281716018915176
2505400771.0,-0.6765945553779602,0.0252638421952724,9.525304794311523,-1.0620687007904053,-0.7703225016593933,0.3446267545223236
2505409104.0,-0.4872588217258453,0.0141483237966895,9.610610008239746,-0.919243574142456,-1.3339381217956543,0.1929904520511627
2505417437.0,-0.2497558146715164,0.3073934316635132,9.78023910522461,-0.756567656993866,-1.0952903032302856,0.1389956623315811
2505425770.0,-0.3232369720935821,0.4964788258075714,9.765110969543455,-0.9596630334854126,-0.6864358186721802,0.1338728070259094
2505434103.0,-0.4658216536045074,0.2691258192062378,9.623828887939451,-1.1376818418502808,-0.9250836968421936,0.2128414809703827
2505442436.0,-0.3928404450416565,-0.0065856170840561,9.540375709533691,-1.2095425128936768,-1.3014464378356934,0.2733038961887359
2505450769.0,-0.1660174876451492,0.1394518315792083,9.673290252685549,-1.0168466567993164,-1.1254254579544067,0.1609086096286773
2505459102.0,-0.3020860254764557,0.4051370322704315,9.750319480895996,-0.8806557655334473,-0.5332244038581848,0.1945144981145858
2505467435.0,-0.5723347067832947,0.3719621300697326,9.70298194885254,-1.0714049339294434,-0.5433675646781921,0.208115667104721
2505475768.0,-0.6697922348976135,0.1379711925983429,9.594995498657228,-1.2184051275253296,-0.996483325958252,0.2469212114810943
2505484101.0,-0.3752038776874542,0.1056115552783012,9.643671989440918,-1.169469118118286,-1.335193157196045,0.2858164310455322
2505492434.0,-0.287601500749588,0.2980374991893768,9.727816581726074,-0.9684742093086244,-1.0020544528961182,0.2682707011699676
2505500767.0,-0.3709321320056915,0.3198679983615875,9.673490524291992,-1.0840585231781006,-0.701458752155304,0.2243038713932037
2505509100.0,-0.4965861141681671,0.1118990778923034,9.53020477294922,-1.1599791049957275,-1.031984806060791,0.2193603068590164
2505517433.0,-0.2560845613479614,0.1027443185448646,9.639104843139648,-1.0480960607528689,-1.394093036651611,0.199483647942543
2505525766.0,-0.1561250984668731,0.3050616085529327,9.752694129943848,-0.9250453114509584,-0.9640044569969176,0.241337314248085
2505534099.0,-0.375688761472702,0.3803309798240661,9.717881202697754,-1.0728009939193726,-0.384085476398468,0.2619183659553528
2505542432.0,-0.6578112244606018,0.1013700887560844,9.554030418395996,-1.283055543899536,-0.719260573387146,0.2091146260499954
2505550765.0,-0.5403566360473633,-0.0632009878754615,9.571599960327148,-1.13605535030365,-1.3508306741714478,0.1592949330806732
2505559098.0,-0.3053834438323974,0.1770687103271484,9.749683380126951,-0.7578099370002747,-1.3239870071411133,0.1743817031383514
2505567431.0,-0.2326891273260116,0.4977878034114837,9.814308166503906,-0.920024871826172,-0.8347551226615906,0.1338855922222137
2505575764.0,-0.463475614786148,0.3421991467475891,9.680871963500977,-1.0622096061706543,-0.8955121040344238,0.1891867369413375
2505584097.0,-0.4527392089366913,0.0250635612756013,9.503731727600098,-1.1179460287094116,-1.1594154834747314,0.2666954100131988
2505592430.0,-0.2019605189561844,0.0376382581889629,9.664098739624023,-1.017960786819458,-1.191112995147705,0.2567186653614044
2505600763.0,-0.1929550915956497,0.2898117303848266,9.769603729248049,-0.9282086491584778,-0.7088994979858398,0.1939381659030914
2505609096.0,-0.4618091285228729,0.3565905392169952,9.713716506958008,-0.9603032469749452,-0.483314961194992,0.199419617652893
2505617429.0,-0.6479332447052002,0.1867821365594864,9.651623725891112,-1.1475688219070437,-0.8091024160385132,0.145399197936058
2505625762.0,-0.4416021704673767,0.0827084258198738,9.626096725463867,-1.011045217514038,-1.2427771091461182,0.2035691291093826
2505634095.0,-0.2703416347503662,0.2451494485139846,9.722574234008787,-1.0351994037628174,-1.1577377319335938,0.1282120496034622
2505642428.0,-0.3260981142520904,0.3194674253463745,9.716543197631836,-1.0205351114273071,-0.6676477789878845,0.2278129905462265
2505650761.0,-0.4906134009361267,0.1465976238250732,9.567178726196287,-1.0170003175735474,-0.9736868143081664,0.2851120233535766
2505659094.0,-0.336097776889801,0.0282394234091043,9.611454010009766,-1.0585721731185913,-1.2706581354141235,0.241977646946907
2505667427.0,-0.1592652052640915,0.2449347972869873,9.742901802062988,-0.9612125158309937,-1.165460467338562,0.2153388708829879
2505675760.0,-0.2738036811351776,0.3767688572406769,9.794702529907228,-0.9344712495803832,-0.4373246133327484,0.2162865847349167
2505684093.0,-0.6112889051437378,0.1791931539773941,9.58947467803955,-1.0466872453689575,-0.4604286551475525,0.2701533138751983
2505692426.0,-0.6149227619171143,-0.0598979070782661,9.534103393554688,-1.1804190874099731,-1.0775524377822876,0.2872892320156097
2505700759.0,-0.3923549056053161,0.083988681435585,9.64980697631836,-0.8547341227531433,-1.361691117286682,0.2169525623321533
2505709092.0,-0.2531462609767914,0.4209233522415161,9.820603370666504,-0.8087822198867798,-0.8532741665840149,0.2903629541397095
2505717425.0,-0.4407939612865448,0.428963154554367,9.67117977142334,-0.9697933793067932,-0.6741027235984802,0.2058872431516647
2505725758.0,-0.4674241244792938,0.1442512720823288,9.61157512664795,-0.9712276458740234,-0.8983807563781738,0.337390661239624
2505734091.0,-0.293788731098175,0.0313366055488586,9.585932731628418,-1.042051076889038,-1.299090027809143,0.1898527145385742
2505742424.0,-0.1466475874185562,0.2277107536792755,9.711736679077148,-0.8152370452880859,-1.0413082838058472,0.2821664214134216
2505750757.0,-0.3683357834815979,0.3877055048942566,9.710491180419922,-0.8683225512504578,-0.395611822605133,0.2064123004674911
2505759090.0,-0.6300581693649292,0.3123717904090881,9.70821762084961,-1.0182427167892456,-0.6235785484313965,0.2789261937141418
2505767423.0,-0.5351756811141968,0.0935806408524513,9.590596199035645,-1.0372099876403809,-1.2630763053894043,0.2114967256784439
2505775756.0,-0.3100257813930511,0.2024110406637191,9.719246864318848,-0.9522475600242616,-1.2353360652923584,0.2641595602035522
2505784089.0,-0.3527925312519073,0.4178333282470703,9.744861602783203,-0.8862653970718384,-0.7450540661811829,0.2048370242118835
2505792422.0,-0.4889110326766968,0.151311308145523,9.577549934387209,-1.1109020709991455,-0.8034800887107849,0.2379306256771087
2505800755.0,-0.4178047180175781,0.0765640288591384,9.57192039489746,-1.0898728370666504,-1.113617181777954,0.2344726920127868
2505809088.0,-0.1901440173387527,0.1958090811967849,9.675729751586914,-0.9774518609046936,-1.2561860084533691,0.0790455192327499
2505817421.0,-0.1443872898817062,0.3986636996269226,9.860480308532717,-0.8503028154373169,-0.6405478715896606,0.3150294423103332
2505825754.0,-0.4619949758052826,0.2597125768661499,9.542157173156738,-1.1263731718063354,-0.4621448516845703,0.2061689794063568
2505834087.0,-0.6606508493423462,0.0769145935773849,9.56086254119873,-1.1405891180038452,-0.8362663984298706,0.1878548115491867
2505842420.0,-0.446176677942276,-0.0347812697291374,9.585619926452637,-1.1251949071884155,-1.4017006158828735,0.2247136831283569
2505850753.0,-0.2241486459970474,0.378349632024765,9.792420387268066,-0.8554257750511169,-0.9656181931495668,0.1626504063606262
2505859086.0,-0.387798547744751,0.4942113757133484,9.75019073486328,-0.906295657157898,-0.5386033058166504,0.2897225618362427
2505867419.0,-0.4940397143363952,0.2371525019407272,9.59544563293457,-1.1094037294387815,-0.9322044253349304,0.169681504368782
2505875752.0,-0.3448913097381592,0.0046303290873765,9.564719200134276,-1.1792025566101074,-1.3629333972930908,0.3038232028484344
2505884085.0,-0.1377279907464981,0.1475631445646286,9.71782398223877,-0.9757230281829834,-1.1029489040374756,0.0797499194741249
2505892418.0,-0.2730454802513122,0.3976050913333893,9.762364387512209,-0.8681944608688354,-0.4374911189079284,0.2170422226190567
2505900751.0,-0.5388880372047424,0.3096823394298553,9.678762435913086,-1.143214464187622,-0.4728899598121643,0.1600377261638641
2505909084.0,-0.6029849648475647,0.1167938038706779,9.591702461242676,-1.23012375831604,-1.1699813604354858,0.2491624504327774
2505917417.0,-0.3444244563579559,0.1544561088085174,9.670520782470703,-1.146557331085205,-1.2980910539627075,0.2106514871120453
2505925750.0,-0.3147751688957214,0.2781454622745514,9.710549354553224,-1.026067852973938,-0.8336793184280396,0.2303744107484817
2505934083.0,-0.440987080335617,0.2908989787101745,9.66500759124756,-0.9955612421035768,-0.6734623312950134,0.2139813005924224
2505942416.0,-0.4764365553855896,0.0273024011403322,9.522286415100098,-1.0906925201416016,-1.025581121444702,0.2218192666769027
2505950749.0,-0.2407074719667434,0.1168273836374282,9.651138305664062,-0.960469663143158,-1.3160721063613892,0.2114454805850982
2505959082.0,-0.1637643426656723,0.3343167304992676,9.757951736450195,-0.942168354988098,-0.9201401472091676,0.2503150999546051
2505967415.0,-0.3779204487800598,0.3467841446399688,9.720885276794434,-0.9953436255455016,-0.4408466517925262,0.2849455773830414
2505975748.0,-0.6576610207557678,0.0306785441935062,9.526906967163086,-1.0935614109039309,-0.6892918944358826,0.339311808347702
2505984081.0,-0.5073283314704895,-0.0583075135946273,9.564691543579102,-1.035481095314026,-1.3064796924591064,0.2140966057777404
2505992414.0,-0.2868432998657226,0.2258295565843582,9.772314071655272,-0.901505708694458,-1.0989915132522583,0.2746102213859558
2506000747.0,-0.333372563123703,0.488074243068695,9.790925979614258,-0.8558099865913391,-0.6630885004997253,0.2767361998558044
2506009080.0,-0.4859642684459686,0.2987742125988006,9.612018585205078,-1.05362868309021,-0.8005088567733765,0.232526034116745
2506017413.0,-0.436609536409378,0.0009513281402178,9.504375457763672,-1.0609031915664673,-1.2187381982803345,0.3414890170097351
