SampleTimeFine,Acc_X,Acc_Y,Acc_Z,Gyr_X,Gyr_Y,Gyr_Z
3993232922.0,0.0,0.0,0.0,0.0,0.0,0.0
3993241255.0,-0.7782083749771118,-0.3760372400283813,9.777948379516602,-3.424905300140381,-2.853349208831787,-0.3990185856819153
3993249588.0,-0.5449289679527283,-0.3298545777797699,9.904513359069824,-3.3807334899902344,-3.001796245574951,-0.3731866180896759
3993257921.0,-0.5156753063201904,-0.1669135242700576,9.93942642211914,-3.284372568130493,-2.6551589965820312,-0.3356105387210846
3993266254.0,-0.6604516506195068,-0.1508873403072357,9.756044387817385,-3.267083168029785,-2.649421215057373,-0.3527977168560028
3993274587.0,-0.6393294334411621,-0.3956181108951568,9.706256866455078,-3.3307342529296875,-3.042036294937134,-0.3902456760406494
3993282920.0,-0.4038098156452179,-0.3915170133113861,9.90419864654541,-3.250805139541626,-3.122375249862671,-0.4312156736850738
3993291253.0,-0.3324359655380249,-0.1528763771057129,9.952445030212402,-3.1174566745758057,-2.584321975708008,-0.3716624677181244
3993299586.0,-0.5761826634407043,-0.1204007714986801,9.83059787750244,-3.206953287124634,-2.248622417449951,-0.3615961372852325
3993307919.0,-0.8350202441215515,-0.3697072267532348,9.703760147094728,-3.376916646957397,-2.600216150283813,-0.350492388010025
3993316252.0,-0.7053157091140747,-0.5233355760574341,9.849740028381348,-3.181211471557617,-3.14291787147522,-0.3562171757221222
3993324585.0,-0.4879535734653473,-0.2779757976531982,10.014697074890137,-3.139921188354492,-2.9181277751922607,-0.4187415242195129
3993332918.0,-0.5051341652870178,-0.0122210178524255,9.916060447692873,-3.083019256591797,-2.460951805114746,-0.392320454120636
3993341251.0,-0.6722090244293213,-0.1152213513851165,9.71592140197754,-3.18806266784668,-2.611307144165039,-0.3743904531002044
3993349584.0,-0.6116017699241638,-0.4320640861988067,9.775837898254396,-3.410881519317627,-3.1007699966430664,-0.4066900014877319
3993357917.0,-0.3913256227970123,-0.4224477708339691,9.949816703796388,-3.189728021621704,-2.9838407039642334,-0.3819723129272461
3993366250.0,-0.4027880728244781,-0.1452468186616897,9.978644371032717,-2.9145541191101074,-2.5242953300476074,-0.4265666306018829
3993374583.0,-0.684688925743103,-0.084116406738758,9.77968406677246,-3.2178778648376465,-2.3054988384246826,-0.3824589252471924
3993382916.0,-0.7972763776779175,-0.3000757396221161,9.725528717041016,-3.332860231399536,-2.7748284339904785,-0.3229058682918548
3993391249.0,-0.6350435018539429,-0.3563285171985626,9.87339210510254,-3.300599336624145,-3.149500846862793,-0.3113154470920563
3993399582.0,-0.4697147309780121,-0.1958131790161132,9.95889949798584,-3.231940031051636,-2.77411150932312,-0.3368400037288666
3993407915.0,-0.5922824144363403,-0.1351073235273361,9.809081077575684,-3.1653943061828613,-2.539151906967163,-0.3807427883148193
3993416248.0,-0.6820419430732727,-0.3104015588760376,9.672414779663086,-3.461789608001709,-2.7851128578186035,-0.4242229461669922
3993424581.0,-0.518811821937561,-0.4409477412700653,9.816285133361816,-3.308398962020874,-3.034095764160156,-0.2953449487686157
3993432914.0,-0.3232016861438751,-0.2402933239936828,9.975611686706545,-3.1238481998443604,-2.9109935760498047,-0.3227009773254394
3993441247.0,-0.4817155301570892,-0.0633259937167167,9.874232292175291,-3.0960564613342285,-2.353883981704712,-0.3722388446331024
3993449580.0,-0.7953338027000427,-0.2129653990268707,9.675610542297363,-3.310421943664551,-2.4100818634033203,-0.3926790356636047
3993457913.0,-0.779025673866272,-0.4752823710441589,9.76011085510254,-3.240469694137573,-2.9408087730407715,-0.3105342090129852
3993466246.0,-0.497102677822113,-0.3952568173408508,9.96744155883789,-3.228661298751831,-3.050283670425415,-0.3276957273483276
3993474579.0,-0.4504839181900024,-0.0852060616016388,10.008816719055176,-3.038424253463745,-2.6862027645111084,-0.3394526243209839
3993482912.0,-0.6233690977096558,-0.0238439738750457,9.754796028137209,-3.2678513526916504,-2.445941686630249,-0.3755943477153778
3993491245.0,-0.6762538552284241,-0.3250584602355957,9.687786102294922,-3.365403175354004,-3.018458604812622,-0.4191257357597351
3993499578.0,-0.4561135768890381,-0.4417705833911896,9.86916160583496,-3.334358692169189,-3.180827140808105,-0.3889009058475494
3993507911.0,-0.3459237217903137,-0.2013679444789886,9.979148864746094,-3.121004819869995,-2.7606122493743896,-0.3746978044509887
3993516244.0,-0.5465194582939148,-0.0381792783737182,9.82109260559082,-3.21142315864563,-2.222815990447998,-0.3570496439933777
3993524577.0,-0.7637901902198792,-0.2341928035020828,9.703542709350586,-3.3627779483795166,-2.5933003425598145,-0.3942159116268158
3993532910.0,-0.6919978857040405,-0.4055446088314056,9.82231330871582,-3.4325766563415527,-2.9220590591430664,-0.4497475922107696
3993541243.0,-0.5021682977676392,-0.277684211730957,9.956342697143556,-3.25422477722168,-2.8759536743164062,-0.5153456330299377
3993549576.0,-0.5421956181526184,-0.0995109304785728,9.877866744995115,-3.262651205062866,-2.543198823928833,-0.3777970969676971
3993557909.0,-0.7105603814125061,-0.1945589035749435,9.70098114013672,-3.160860776901245,-2.7756738662719727,-0.3478285074234009
3993566242.0,-0.602451741695404,-0.406609445810318,9.780939102172852,-3.350624084472656,-3.129239797592163,-0.4511435627937317
3993574575.0,-0.3667396306991577,-0.3403549790382385,9.955158233642578,-3.218621015548706,-3.070878028869629,-0.3609686195850372
3993582908.0,-0.3986634016036987,-0.0957619473338127,9.913219451904297,-3.222731590270996,-2.530020236968994,-0.3725334107875824
3993591241.0,-0.69583660364151,-0.1805834919214248,9.76950740814209,-3.289815187454224,-2.2834575176239014,-0.358932226896286
3993599574.0,-0.8427822589874268,-0.4528181850910187,9.710721015930176,-3.3062727451324463,-2.782820463180542,-0.4061521589756012
3993607907.0,-0.642509937286377,-0.4734212160110473,9.87069606781006,-3.172182083129883,-3.185142755508423,-0.3633507192134857
3993616240.0,-0.4577935338020324,-0.1610770225524902,9.98071575164795,-2.98197078704834,-2.8756203651428223,-0.4821495115756988
3993624573.0,-0.539333164691925,-0.0096065197139978,9.83135986328125,-3.192289113998413,-2.5439929962158203,-0.3840982615947723
3993632906.0,-0.6851105690002441,-0.2291856110095977,9.664801597595217,-3.390979051589966,-2.760023593902588,-0.2830757200717926
3993641239.0,-0.543172299861908,-0.5081732869148254,9.801515579223633,-3.250382423400879,-3.090447425842285,-0.3490323722362518
3993649572.0,-0.3869818747043609,-0.3269709050655365,9.9437255859375,-3.147643804550171,-2.9439079761505127,-0.3479822278022766
3993657905.0,-0.5166783332824707,-0.0887213125824928,9.910744667053224,-3.0210580825805664,-2.3826744556427,-0.371419221162796
3993666238.0,-0.7750283479690552,-0.127131313085556,9.72668743133545,-3.304838180541992,-2.526395797729492,-0.3835859596729278
3993674571.0,-0.7582169771194458,-0.3332494497299194,9.779256820678713,-3.439953565597534,-2.8560004234313965,-0.4379138052463531
3993682904.0,-0.5208898782730103,-0.3621771335601806,9.905986785888672,-3.3392767906188965,-2.990692377090454,-0.3548083901405334
3993691237.0,-0.469910591840744,-0.1806644201278686,9.911585807800291,-3.264636754989624,-2.763033628463745,-0.3303467929363251
3993699570.0,-0.5789687633514404,-0.1673054993152618,9.755629539489746,-3.2027008533477783,-2.458249092102051,-0.3584711849689483
3993707903.0,-0.6308467388153076,-0.4059574902057647,9.749759674072266,-3.366914749145508,-2.950990438461304,-0.3234821557998657
3993716236.0,-0.4492098987102508,-0.4010758399963379,9.869210243225098,-3.244965076446533,-2.983290195465088,-0.4432799816131592
3993724569.0,-0.3707592487335205,-0.1549916267395019,9.963814735412598,-3.1985902786254883,-2.5595407485961914,-0.4980047345161438
3993732902.0,-0.636390209197998,-0.0726169720292091,9.7795991897583,-3.2642393112182617,-2.3800361156463623,-0.3317683041095733
3993741235.0,-0.853648841381073,-0.3285796642303467,9.671133995056152,-3.3870344161987305,-2.602137565612793,-0.4347120225429535
3993749568.0,-0.7076032161712646,-0.5333186388015747,9.802180290222168,-3.3197715282440186,-3.082916736602783,-0.4428317546844482
3993757901.0,-0.4494883120059967,-0.3159105181694031,9.980062484741213,-3.022723197937012,-3.0914206504821777,-0.3929352164268493
3993766234.0,-0.465282678604126,-0.043100532144308,9.92414379119873,-3.057481050491333,-2.579493761062622,-0.4038467705249786
3993774567.0,-0.6442181468009949,-0.1159802824258804,9.688042640686035,-3.1870639324188232,-2.6189656257629395,-0.3997741639614105
3993782900.0,-0.6021201610565186,-0.4132205247879028,9.755090713500977,-3.319233655929565,-3.016012191772461,-0.3479822278022766
3993791233.0,-0.4080593585968017,-0.4450213015079498,9.916236877441406,-3.266365766525269,-2.960608720779419,-0.3405540585517883
3993799566.0,-0.436786025762558,-0.1685744822025299,9.924144744873049,-3.0394744873046875,-2.57065749168396,-0.4267203509807586
3993807899.0,-0.6849411725997925,-0.0862194523215293,9.76516819000244,-3.1281638145446777,-2.3085854053497314,-0.3959960639476776
3993816232.0,-0.8172155618667603,-0.2926001846790313,9.70642375946045,-3.241609573364258,-2.692004680633545,-0.4309083223342895
3993824565.0,-0.6605992913246155,-0.3934025466442108,9.861368179321287,-3.331259489059448,-3.057187080383301,-0.3851612508296966
3993832898.0,-0.5042524337768555,-0.1930386275053024,9.997424125671388,-3.088808298110962,-2.866066694259644,-0.3393758237361908
3993841231.0,-0.5744190216064453,-0.0941423922777175,9.806928634643556,-3.149282932281494,-2.524731159210205,-0.3483920097351074
3993849564.0,-0.6895420551300049,-0.2812820374965668,9.675488471984863,-3.458523988723755,-2.864504098892212,-0.3853277266025543
3993857897.0,-0.5042528510093689,-0.4362675845623016,9.85826587677002,-3.375610589981079,-3.231914758682251,-0.4669859707355499
3993866230.0,-0.3261054456233978,-0.2533011436462402,10.000506401062012,-3.23042893409729,-2.8755438327789307,-0.2474719434976577
3993874563.0,-0.4593415260314941,-0.0485705286264419,9.910100936889648,-2.9875035285949707,-2.3548829555511475,-0.2699100077152252
3993882896.0,-0.7739636898040771,-0.2023825645446777,9.681520462036133,-3.428299188613892,-2.417048931121826,-0.2297212779521942
3993891229.0,-0.8026416301727295,-0.5071961283683777,9.76648235321045,-3.337240219116211,-2.968651533126831,-0.3537710011005401
3993899562.0,-0.5568831562995911,-0.3911848068237304,9.929603576660156,-3.191162347793579,-3.134375810623169,-0.4241333603858948
3993907895.0,-0.4419924020767212,-0.0660309568047523,9.96577262878418,-3.073848962783813,-2.737738847732544,-0.3053344786167145
3993916228.0,-0.5805839896202087,-0.0260000359266996,9.77420139312744,-3.1158435344696045,-2.5691075325012207,-0.4359798431396484
3993924561.0,-0.6643916964530945,-0.3159575164318084,9.672280311584473,-3.277585029602051,-2.8539512157440186,-0.4277449548244476
3993932894.0,-0.4994675815105438,-0.4668741226196289,9.8488130569458,-3.2981019020080566,-3.056431531906128,-0.3213690519332886
3993941227.0,-0.3925613462924957,-0.2388727664947509,9.977775573730469,-3.111450672149658,-2.686689615249634,-0.2689878642559051
3993949560.0,-0.5908192992210388,-0.0556123331189155,9.82394313812256,-3.0678040981292725,-2.3181777000427246,-0.351901113986969
3993957893.0,-0.7996904253959656,-0.1832822561264038,9.697013854980469,-3.292287588119507,-2.618889331817627,-0.3386073708534241
3993966226.0,-0.6744832992553711,-0.3463526666164398,9.820964813232422,-3.347306728363037,-3.201024055480957,-0.3623517751693725
3993974559.0,-0.4679515063762665,-0.2745140790939331,9.951492309570312,-3.16810941696167,-2.953692674636841,-0.3725974559783935
3993982892.0,-0.4893148243427276,-0.1521075069904327,9.872556686401367,-3.151178359985352,-2.6270086765289307,-0.4361976087093353
3993991225.0,-0.6570929288864136,-0.2246973365545272,9.706953048706056,-3.231492042541504,-2.671564817428589,-0.3674362599849701
3993999558.0,-0.6209489107131958,-0.4120243191719055,9.780560493469238,-3.389378309249878,-3.1364634037017822,-0.4522961974143982
3994007891.0,-0.3916791379451751,-0.3097610175609588,9.96655559539795,-3.210078716278076,-3.013514995574951,-0.3647979497909546
3994016224.0,-0.4242726266384125,-0.0536068342626094,9.95322036743164,-3.190931558609009,-2.590277671813965,-0.3371985852718353
3994024557.0,-0.7205938100814819,-0.1292354762554168,9.733461380004885,-3.361445188522339,-2.1819868087768555,-0.2589470744132995
3994032890.0,-0.8444969654083252,-0.4771069288253784,9.699139595031738,-3.4413111209869385,-2.8409135341644287,-0.4356597661972046
3994041223.0,-0.6010699272155762,-0.5101796984672546,9.859305381774902,-3.2251267433166504,-3.13194227218628,-0.4006963074207306
3994049556.0,-0.411376029253006,-0.2300008535385131,9.98652458190918,-3.1173551082611084,-2.896329879760742,-0.3137231469154358
3994057889.0,-0.4925785958766937,0.0143316704779863,9.891656875610352,-3.1345672607421875,-2.457301139831543,-0.4292688965797424
3994066222.0,-0.657787561416626,-0.1931843608617782,9.68092155456543,-3.321756601333618,-2.795870780944824,-0.4121842980384826
3994074555.0,-0.572921872138977,-0.4670511186122894,9.789862632751465,-3.398266553878784,-3.125474691390991,-0.4707896709442138
3994082888.0,-0.4128433465957641,-0.3577803671360016,9.93393611907959,-3.185539960861206,-2.846433401107788,-0.3622877895832062
3994091221.0,-0.5111146569252014,-0.1181938648223877,9.8734712600708,-2.9858510494232178,-2.41198992729187,-0.3639014065265655
3994099554.0,-0.7450289726257324,-0.1457164883613586,9.696243286132812,-3.190880537033081,-2.331394672393799,-0.3350981771945953
3994107887.0,-0.7761282324790955,-0.3546413779258728,9.76491355895996,-3.372319221496582,-2.924479961395264,-0.3684608042240143
3994116220.0,-0.5344554781913757,-0.3327692151069641,9.908226013183594,-3.2654566764831543,-3.0035765171051025,-0.4490687847137451
3994124553.0,-0.4822171926498413,-0.1385590881109237,9.940838813781738,-3.2070045471191406,-2.653275966644287,-0.2842411398887634
3994132886.0,-0.6217348575592041,-0.1297000497579574,9.761164665222168,-3.130584239959717,-2.4625906944274902,-0.3771823644638061
3994141219.0,-0.6556512713432312,-0.3654429912567138,9.704174041748049,-3.3794267177581787,-2.931792497634888,-0.3860193490982055
3994149552.0,-0.4643484354019165,-0.4233205318450928,9.89358901977539,-3.2188515663146973,-3.061272382736206,-0.3904506266117096
3994157885.0,-0.362896054983139,-0.1825713217258453,9.985610008239746,-3.0404481887817383,-2.789198160171509,-0.3853020966053009
3994166218.0,-0.6145038604736328,-0.0427251197397708,9.808378219604492,-3.035274267196656,-2.1817052364349365,-0.2862262427806854
3994174551.0,-0.8619195222854614,-0.2935892343521118,9.644137382507324,-3.5051162242889404,-2.644196033477783,-0.3693188726902008
3994182884.0,-0.7500098347663879,-0.5148826241493225,9.792667388916016,-3.402172565460205,-3.1272804737091064,-0.4292049705982208
3994191217.0,-0.4709978401660919,-0.3387317955493927,9.998040199279783,-3.171311616897583,-3.116240978240967,-0.3490580320358276
3994199550.0,-0.4388315379619598,-0.0327836312353611,9.966623306274414,-3.074591875076294,-2.687201976776123,-0.3336637914180755
3994207883.0,-0.6112503409385681,-0.0851015076041221,9.707659721374512,-3.210897922515869,-2.5174694061279297,-0.4683562815189361
3994216216.0,-0.6156180500984192,-0.4098751842975616,9.710319519042969,-3.494934558868408,-2.860546588897705,-0.3550389111042022
3994224549.0,-0.4423335194587707,-0.4420469999313354,9.937271118164062,-3.2480900287628174,-2.8956124782562256,-0.5008863806724548
3994232882.0,-0.4524416625499725,-0.1492906361818313,9.952804565429688,-3.068751335144043,-2.498886108398437,-0.3309743106365204
3994241215.0,-0.6617971062660217,-0.0505106262862682,9.772526741027832,-3.1342086791992188,-2.402128458023072,-0.4440739750862121
3994249548.0,-0.812709629535675,-0.2596679329872131,9.727264404296877,-3.222117185592652,-2.8396453857421875,-0.3542704880237579
3994257881.0,-0.6453505754470825,-0.3935465514659881,9.862339973449709,-3.2925050258636475,-3.1140761375427246,-0.3705355226993561
3994266214.0,-0.4457627236843109,-0.2419977188110351,9.96456527709961,-3.2749338150024414,-2.909905195236206,-0.4056270718574524
3994274547.0,-0.5573194026947021,-0.1096655800938606,9.82639217376709,-3.3133292198181152,-2.526921033859253,-0.3776562511920929
3994282880.0,-0.6774629354476929,-0.2647193074226379,9.698528289794922,-3.331874132156372,-2.8465356826782227,-0.4441508650779724
3994291213.0,-0.5321100354194641,-0.4056223630905151,9.803678512573242,-3.2952330112457275,-3.175025701522827,-0.2911442220211029
3994299546.0,-0.3584955632686615,-0.2443474382162094,10.02460765838623,-3.1307895183563232,-2.8989553451538086,-0.4203168153762817
3994307879.0,-0.483638197183609,-0.0299097336828708,9.884010314941406,-3.119544744491577,-2.232882261276245,-0.310482919216156
3994316212.0,-0.7796725630760193,-0.1959287673234939,9.682639122009276,-3.3183369636535645,-2.299274682998657,-0.4108394980430603
3994324545.0,-0.8314119577407837,-0.5269224047660828,9.72805404663086,-3.3968698978424072,-2.8187057971954346,-0.3842007219791412
3994332878.0,-0.5536484122276306,-0.4289167821407318,9.938908576965332,-3.1916747093200684,-3.1864495277404785,-0.3406308889389038
3994341211.0,-0.4239073991775512,-0.0958989709615707,9.98167896270752,-3.034940958023072,-2.758742570877075,-0.4229550361633301
3994349544.0,-0.5431172847747803,-0.0261655151844024,9.811182022094728,-3.230530977249145,-2.411823511123657,-0.414066880941391
3994357877.0,-0.6798574328422546,-0.2699607908725738,9.69499969482422,-3.3717429637908936,-2.8669629096984863,-0.4851720929145813
3994366210.0,-0.5265954732894897,-0.4895723164081573,9.85571002960205,-3.350918292999268,-3.137756824493408,-0.2764672636985779
3994374543.0,-0.3909438252449035,-0.2703977823257446,9.968905448913574,-3.094698905944824,-2.662304878234864,-0.3953172862529754
3994382876.0,-0.5639206171035767,-0.0739106684923172,9.87524700164795,-3.038897752761841,-2.244882583618164,-0.4002479612827301
3994391209.0,-0.8150709867477417,-0.1629524528980255,9.700601577758787,-3.249216794967652,-2.4424965381622314,-0.3360075354576111
3994399542.0,-0.7583696842193604,-0.3831150829792022,9.789746284484863,-3.327173948287964,-2.9347639083862305,-0.2746486663818359
3994407875.0,-0.5080469250679016,-0.3332293033599853,9.954151153564451,-3.330657482147217,-3.013348340988159,-0.2338707745075225
3994416208.0,-0.4918085634708404,-0.1480371057987213,9.950135231018066,-3.211819887161255,-2.6150851249694824,-0.3960985243320465
3994424541.0,-0.6704891324043274,-0.1680792272090912,9.68227481842041,-3.214778423309326,-2.587357759475708,-0.3576899468898773
3994432874.0,-0.6234728097915649,-0.3989140391349792,9.713397026062012,-3.3988044261932373,-3.097913980484009,-0.3593933582305908
3994441207.0,-0.4115808308124542,-0.3833118081092834,9.93688678741455,-3.2665069103240967,-3.0585193634033203,-0.3662323653697967
3994449540.0,-0.3712385594844818,-0.1062622591853141,9.939379692077637,-3.14217495918274,-2.538037776947021,-0.3506844937801361
3994457873.0,-0.6428346633911133,-0.086048699915409,9.75953197479248,-3.218223810195923,-2.210892677307129,-0.4276808500289917
3994466206.0,-0.8780462741851807,-0.3893633782863617,9.674796104431152,-3.382270336151123,-2.655543327331543,-0.4073816239833832
3994474539.0,-0.6744593977928162,-0.4943020939826965,9.82240104675293,-3.28729248046875,-3.118468999862671,-0.3935755491256714
3994482872.0,-0.4405576288700104,-0.248286560177803,10.017595291137695,-3.0010406970977783,-2.909418821334839,-0.2941794991493225
3994491205.0,-0.4673321545124054,0.0154015514999628,9.913145065307615,-3.0030386447906494,-2.608604907989502,-0.3365966379642486
3994499538.0,-0.6627109050750732,-0.1216965094208717,9.679669380187988,-3.190163373947144,-2.6882524490356445,-0.4102760553359985
3994507871.0,-0.6218191981315613,-0.4158613681793213,9.746264457702637,-3.424738883972168,-3.0660624504089355,-0.3473418653011322
3994516204.0,-0.4095252156257629,-0.4093276858329773,9.97079849243164,-3.291954755783081,-3.040268898010254,-0.4586613476276397
3994524537.0,-0.4307592511177063,-0.1283620744943618,9.945716857910156,-3.0896270275115967,-2.4826464653015137,-0.4080475270748138
3994532870.0,-0.6925422549247742,-0.0536512769758701,9.738040924072266,-3.3039417266845703,-2.4500911235809326,-0.3885807394981384
3994541203.0,-0.7971630692481995,-0.2851567268371582,9.72049331665039,-3.2502546310424805,-2.804976463317871,-0.517010509967804
3994549536.0,-0.6213604807853699,-0.3849108517169952,9.89219856262207,-3.3209240436553955,-3.1328134536743164,-0.3840214312076568
3994557869.0,-0.4632461965084076,-0.2440007776021957,9.956964492797852,-3.209681272506714,-2.7699875831604004,-0.4269508719444275
3994566202.0,-0.5767817497253418,-0.1196605116128921,9.799323081970217,-3.210756778717041,-2.473553419113159,-0.4331494569778442
3994574535.0,-0.6926690936088562,-0.2994812428951263,9.67842960357666,-3.390133857727051,-2.836251735687256,-0.3816905319690704
3994582868.0,-0.516532838344574,-0.4248344004154205,9.850333213806152,-3.349522352218628,-3.177727699279785,-0.3226625025272369
3994591201.0,-0.3200928270816803,-0.2175667881965637,9.964365005493164,-3.00643253326416,-2.8086647987365723,-0.3835859596729278
3994599534.0,-0.4816460907459259,-0.0574560277163982,9.886977195739746,-3.106097221374512,-2.1947171688079834,-0.3698054850101471
3994607867.0,-0.7963857650756836,-0.2223664969205856,9.69528579711914,-3.440516948699951,-2.3976333141326904,-0.4431390464305877
3994616200.0,-0.8039492964744568,-0.5458877086639404,9.735280990600586,-3.3453218936920166,-2.9900777339935303,-0.5149229764938354
3994624533.0,-0.5369035601615906,-0.448778361082077,9.9608793258667,-3.221707344055176,-3.052781581878662,-0.3458434343338012
3994632866.0,-0.4512964189052582,-0.0685506537556648,10.022746086120604,-3.022364377975464,-2.633002281188965,-0.4082012772560119
3994641199.0,-0.626939594745636,-0.0091413464397192,9.7474946975708,-3.192545175552368,-2.53705096244812,-0.4186005890369415
3994649532.0,-0.7056703567504883,-0.2877486646175384,9.680893898010254,-3.425532817840576,-2.8987245559692383,-0.4095588624477386
3994657865.0,-0.4897058308124542,-0.4753342270851135,9.84462547302246,-3.349919557571411,-3.170081853866577,-0.3831505179405212
3994666198.0,-0.347693920135498,-0.2666700780391693,10.008066177368164,-3.1042399406433105,-2.641698122024536,-0.3073195517063141
3994674531.0,-0.5216510891914368,-0.0952324867248535,9.868653297424316,-3.072260618209839,-2.298762083053589,-0.3702921569347381
3994682864.0,-0.792021632194519,-0.1880154013633728,9.674601554870604,-3.327775955200196,-2.505610227584839,-0.4855434894561767
3994691197.0,-0.7270355224609375,-0.3856763839721679,9.801295280456545,-3.379030227661133,-2.96415638923645,-0.3438198864459991
3994699530.0,-0.4925365746021271,-0.2815344631671905,9.976712226867676,-3.2452471256256104,-2.8612382411956787,-0.3730969727039337
3994707863.0,-0.537581205368042,-0.0979533120989799,9.903697967529297,-3.213754177093506,-2.640840530395508,-0.4104808866977691
3994716196.0,-0.6987723112106323,-0.1956041902303695,9.69528579711914,-3.3849470615386963,-2.620310544967652,-0.4559846520423889
3994724529.0,-0.6249120831489563,-0.437818318605423,9.749761581420898,-3.3650832176208496,-3.0591721534729004,-0.3148117661476135
3994732862.0,-0.3613002300262451,-0.3721153736114502,9.924778938293455,-3.202202081680298,-3.03191876411438,-0.3264918625354767
3994741195.0,-0.3493825495243072,-0.1182306706905365,9.96613311767578,-3.0830442905426025,-2.574627161026001,-0.3498007655143738
3994749528.0,-0.6645051836967468,-0.088188886642456,9.75151824951172,-3.300957679748535,-2.16074013710022,-0.3546034395694732
3994757861.0,-0.8411392569541931,-0.4051392674446106,9.682085990905762,-3.462353229522705,-2.655965805053711,-0.3490707874298095
3994766194.0,-0.6526272892951965,-0.5082045197486877,9.881766319274902,-3.24332594871521,-3.179495334625244,-0.38531494140625
3994774527.0,-0.4380089044570923,-0.2478236258029937,10.018918991088867,-2.9948806762695312,-2.977130174636841,-0.4480570554733276
3994782860.0,-0.5076059103012085,-0.01555195171386,9.8801851272583,-3.176100969314575,-2.482057571411133,-0.363453209400177
3994791193.0,-0.7069652676582336,-0.1794316619634628,9.675016403198242,-3.287343978881836,-2.6291093826293945,-0.4190873503684997
3994799526.0,-0.5576381683349609,-0.4514043927192688,9.772382736206056,-3.31211256980896,-3.1141912937164307,-0.4261824786663055
3994807859.0,-0.36688032746315,-0.3378753960132599,9.940985679626465,-3.1815829277038574,-2.8981611728668213,-0.3821516036987304
3994816192.0,-0.4314768612384796,-0.0926699265837669,9.968585968017578,-3.0477864742279053,-2.4253861904144287,-0.3915135860443115
3994824525.0,-0.7085461020469666,-0.1050210520625114,9.719099044799805,-3.207760095596313,-2.365487575531006,-0.4576367139816284
3994832858.0,-0.7771909832954407,-0.3362086415290832,9.761631965637209,-3.377634286880493,-2.8513641357421875,-0.3824077546596527
3994841191.0,-0.6168848276138306,-0.3686855137348175,9.9234037399292,-3.2704129219055176,-3.114729404449463,-0.3458049893379211
3994849524.0,-0.5235998630523682,-0.1609179973602295,9.937328338623049,-3.058223962783813,-2.69247841835022,-0.3695493042469024
3994857857.0,-0.6364122629165649,-0.1105361878871917,9.776893615722656,-3.1947739124298096,-2.5970144271850586,-0.3830736577510834
3994866190.0,-0.69179368019104,-0.3156534135341644,9.690624237060549,-3.356886386871338,-2.9573044776916504,-0.3869926929473877
3994874523.0,-0.4610384404659271,-0.4091323018074035,9.855035781860352,-3.368438720703125,-3.153816938400269,-0.4064595103263855
3994882856.0,-0.3130539953708648,-0.1774774491786956,9.98581314086914,-3.132838487625122,-2.700777530670166,-0.3510558903217315
3994891189.0,-0.5147510170936584,-0.0849345326423645,9.860045433044434,-3.174589872360229,-2.268153190612793,-0.2829220294952392
3994899522.0,-0.8172340989112854,-0.3030107617378235,9.678126335144045,-3.3462438583374023,-2.488781690597534,-0.4127222001552582
3994907855.0,-0.7431046962738037,-0.5112807154655457,9.802001953125,-3.288214445114136,-3.006150722503662,-0.4306393563747406
3994916188.0,-0.4918768107891083,-0.3211575448513031,9.99518585205078,-3.1453895568847656,-3.0308940410614014,-0.4444710314273834
3994924521.0,-0.48868528008461,-0.0309477616101503,9.93698787689209,-3.190342664718628,-2.68579363822937,-0.4706488251686096
3994932854.0,-0.6585748791694641,-0.1003905832767486,9.701398849487305,-3.232529163360596,-2.5332605838775635,-0.4219048321247101
3994941187.0,-0.6287508010864258,-0.3898974657058716,9.726819038391112,-3.348318338394165,-2.9964046478271484,-0.4242997765541076
3994949520.0,-0.4307104647159576,-0.4430935680866241,9.930511474609377,-3.2664172649383545,-2.9696762561798096,-0.3704715073108673
3994957853.0,-0.4313488900661468,-0.204251691699028,9.9514741897583,-3.037066698074341,-2.554853200912476,-0.405076265335083
3994966186.0,-0.6718235015869141,-0.074349895119667,9.760126113891602,-3.1165218353271484,-2.304474115371704,-0.3949586451053619
3994974519.0,-0.817729651927948,-0.262345939874649,9.699613571166992,-3.2811195850372314,-2.7558741569519043,-0.4426780343055725
3994982852.0,-0.6603317260742188,-0.3683938384056091,9.851052284240724,-3.3378679752349854,-3.0856449604034424,-0.3453311324119568
3994991185.0,-0.4831065535545349,-0.2275904417037964,9.981223106384276,-3.284487724304199,-2.693413734436035,-0.2952552735805511
3994999518.0,-0.5662059783935547,-0.1343629211187362,9.806668281555176,-3.160489320755005,-2.573026657104492,-0.3355720937252044
3995007851.0,-0.681492269039154,-0.3185282945632934,9.68825626373291,-3.3088600635528564,-2.897905111312866,-0.429614782333374
3995016184.0,-0.5139559507369995,-0.4359696507453918,9.845272064208984,-3.287010908126831,-3.0738747119903564,-0.4121202528476715
3995024517.0,-0.3276620209217071,-0.2496297657489776,9.968284606933594,-3.215559959411621,-2.8792707920074463,-0.2751993834972381
3995032850.0,-0.4639601707458496,-0.0444840900599956,9.88831615447998,-3.128983497619629,-2.310992956161499,-0.3850075900554657
3995041183.0,-0.7760472893714905,-0.194472849369049,9.666581153869627,-3.242121458053589,-2.379997730255127,-0.3807043731212616
3995049516.0,-0.8177452683448792,-0.4935322403907776,9.709315299987791,-3.425724983215332,-3.0107741355896,-0.4385157227516174
3995057849.0,-0.5622500777244568,-0.4146430790424347,9.928338050842283,-3.2423908710479736,-3.1567623615264893,-0.3988777101039886
3995066182.0,-0.4579961001873016,-0.1036017760634422,9.978765487670898,-2.9990811347961426,-2.717785358428955,-0.5461338758468628
3995074515.0,-0.6000163555145264,-0.0183731913566589,9.790939331054688,-3.074899435043335,-2.547527551651001,-0.4228525757789612
3995082848.0,-0.6407563090324402,-0.2903448343276977,9.718326568603516,-3.369898557662964,-2.9306914806365967,-0.3590219616889953
3995091181.0,-0.4443972408771515,-0.4538250267505646,9.90183925628662,-3.4247255325317383,-3.080726623535156,-0.3543985486030578
3995099514.0,-0.3615781366825104,-0.2333793640136718,9.96866226196289,-3.0662286281585693,-2.5897014141082764,-0.3997101187705993
3995107847.0,-0.5653738975524902,-0.0777692198753357,9.85285472869873,-2.9966602325439453,-2.347108840942383,-0.3666421175003052
3995116180.0,-0.7777334451675415,-0.2076859474182129,9.733603477478027,-3.378402709960937,-2.5119755268096924,-0.3301803171634674
3995124513.0,-0.6880783438682556,-0.35894775390625,9.82203769683838,-3.266698837280273,-3.022543907165528,-0.3873513042926788
3995132846.0,-0.5115182399749756,-0.2395503371953964,9.96754264831543,-3.171004056930542,-2.899749279022217,-0.3022351861000061
3995141179.0,-0.5734056830406189,-0.0845396593213081,9.866229057312012,-3.134861707687378,-2.578315734863281,-0.39255091547966
3995149512.0,-0.6959000825881958,-0.2295423299074173,9.712735176086426,-3.303762674331665,-2.686997413635254,-0.4062289893627167
3995157845.0,-0.5616626739501953,-0.3909919559955597,9.788215637207031,-3.284679889678955,-3.0780246257781982,-0.3811782598495483
3995166178.0,-0.3379310071468353,-0.3013480603694916,9.950031280517578,-3.169339179992676,-2.98012638092041,-0.3222399055957794
3995174511.0,-0.3787296414375305,-0.0730506405234336,9.92267894744873,-3.1376540660858154,-2.486412286758423,-0.3479309678077698
3995182844.0,-0.7064042687416077,-0.1298224031925201,9.719511032104492,-3.18711519241333,-2.3988115787506104,-0.3444730043411255
3995191177.0,-0.8422891497612,-0.431313544511795,9.707305908203123,-3.419475078582764,-2.8174123764038086,-0.3369040787220001
3995199510.0,-0.6226062774658203,-0.4447773098945617,9.90579319000244,-3.28884220123291,-3.070276021957397,-0.3789882361888885
3995207843.0,-0.4651830494403839,-0.1527289152145385,10.005993843078612,-3.0363752841949463,-2.717093706130981,-0.3151191174983978
3995216176.0,-0.5728374123573303,-0.009326989762485,9.81985569000244,-3.220336437225342,-2.528188705444336,-0.3519780039787292
3995224509.0,-0.6742691993713379,-0.2542016804218292,9.680316925048828,-3.372332096099853,-2.8210623264312744,-0.3468039631843567
3995232842.0,-0.5070879459381104,-0.4733522236347198,9.836746215820312,-3.375802755355835,-3.1311612129211426,-0.3554487824440002
3995241175.0,-0.3500638604164123,-0.2979696989059448,9.93664836883545,-3.145991563796997,-2.783344984054565,-0.362262099981308
3995249508.0,-0.5307048559188843,-0.08400858938694,9.846363067626951,-3.0881543159484863,-2.3743879795074463,-0.3481998741626739
3995257841.0,-0.7614163756370544,-0.1785185188055038,9.685431480407717,-3.3720502853393555,-2.4481194019317627,-0.4742859899997711
3995266174.0,-0.7324960827827454,-0.3800543248653412,9.774163246154783,-3.443718910217285,-2.935737371444702,-0.3507485687732696
3995274507.0,-0.5349820852279663,-0.3375667035579681,9.926937103271484,-3.263471364974976,-3.030689477920532,-0.3207030892372131
3995282840.0,-0.5293318629264832,-0.1840552389621734,9.898843765258787,-3.2316839694976807,-2.726443290710449,-0.2545158565044403
3995291173.0,-0.6554825901985168,-0.220050573348999,9.72983455657959,-3.220592975616455,-2.6177620887756348,-0.2906319499015808
3995299506.0,-0.6160391569137573,-0.4170253276824951,9.75174617767334,-3.419641494750977,-2.9486210346221924,-0.3483408093452453
3995307839.0,-0.379302978515625,-0.3858911395072937,9.90660285949707,-3.210552215576172,-2.945573091506958,-0.3502362668514251
3995316172.0,-0.3697820007801056,-0.1485082954168319,9.965191841125488,-3.096274137496948,-2.496004819869995,-0.2258663326501846
3995324505.0,-0.6170513033866882,-0.1376795768737793,9.762906074523926,-3.230236291885376,-2.3042564392089844,-0.4255805015563965
3995332838.0,-0.8264523148536682,-0.454768419265747,9.681575775146484,-3.449033737182617,-2.5816333293914795,-0.389285147190094
3995341171.0,-0.6805290579795837,-0.5172969698905945,9.877838134765623,-3.173911571502685,-2.99450945854187,-0.4912298321723938
3995349504.0,-0.4892266094684601,-0.2648887038230896,9.99005126953125,-3.0437779426574707,-2.7488300800323486,-0.4141181707382202
3995357837.0,-0.5763108134269714,-0.0507656075060367,9.866551399230955,-3.0735669136047363,-2.41845703125,-0.356947124004364
3995366170.0,-0.6873580813407898,-0.2179803550243377,9.70090103149414,-3.245631217956543,-2.680350542068481,-0.3534764945507049
3995374503.0,-0.5673758387565613,-0.4702908396720886,9.783016204833984,-3.3529038429260254,-3.107775449752808,-0.3435125350952148
3995382836.0,-0.3987352550029754,-0.3361212313175201,9.917401313781738,-3.105534315109253,-2.8048226833343506,-0.3850972354412079
3995391169.0,-0.4863542914390564,-0.1066077128052711,9.849639892578123,-3.0847091674804688,-2.370302677154541,-0.349467784166336
3995399502.0,-0.7240915894508362,-0.1384137421846389,9.717483520507812,-3.259155035018921,-2.3841469287872314,-0.3704074025154114
3995407835.0,-0.785057783126831,-0.3410526514053345,9.742036819458008,-3.2800183296203613,-2.800955057144165,-0.3784887790679931
3995416168.0,-0.5891854166984558,-0.3148951530456543,9.915188789367676,-3.2650978565216064,-2.9799344539642334,-0.3562684059143066
3995424501.0,-0.5456035733222961,-0.1416104286909103,9.936615943908691,-3.1667516231536865,-2.6178133487701416,-0.3800255954265594
3995432834.0,-0.6794867515563965,-0.1194426342844963,9.744765281677246,-3.170773267745972,-2.6468594074249268,-0.3246988356113434
3995441167.0,-0.6368588209152222,-0.3342126905918121,9.69587516784668,-3.323972463607788,-3.039193153381348,-0.3474955260753631
3995449500.0,-0.3923084735870361,-0.3415966331958771,9.88826847076416,-3.2516121864318848,-3.039833307266236,-0.3971359431743622
3995457833.0,-0.3212611377239227,-0.124672494828701,9.952421188354492,-3.065063238143921,-2.567762851715088,-0.3388891220092773
3995466166.0,-0.5223926901817322,-0.0664623826742172,9.838233947753906,-3.2100908756256104,-2.300452470779419,-0.4044103026390075
3995474499.0,-0.8046916127204895,-0.3447487950325012,9.67975902557373,-3.3699493408203125,-2.502549409866333,-0.4056910574436188
3995482832.0,-0.683201789855957,-0.4471941590309143,9.840434074401855,-3.293004512786865,-3.141035318374634,-0.4119665324687958
3995491165.0,-0.4830595850944519,-0.2301651239395141,9.96045970916748,-3.122644424438477,-2.886711835861206,-0.3659121692180633
3995499498.0,-0.536446750164032,0.0208404194563627,9.896522521972656,-3.128202438354492,-2.463128566741944,-0.4188823699951172
3995507831.0,-0.6672859787940979,-0.108401745557785,9.706229209899902,-3.25724720954895,-2.756821632385254,-0.4374015033245086
3995516164.0,-0.5758938193321228,-0.4026145339012146,9.76474380493164,-3.320437431335449,-3.003333330154419,-0.4046664834022522
3995524497.0,-0.3801240026950836,-0.3506202101707458,9.913060188293455,-3.264265537261963,-2.9214189052581787,-0.3342017531394958
3995532830.0,-0.441279649734497,-0.1028771698474884,9.920706748962402,-3.0180351734161377,-2.498732328414917,-0.402617335319519
3995541163.0,-0.6909112334251404,-0.0746738389134407,9.754477500915527,-3.3154168128967285,-2.367997646331787,-0.3735707998275757
3995549496.0,-0.7578616738319397,-0.2948105037212372,9.74360179901123,-3.376840114593506,-2.71304702758789,-0.3554615378379822
3995557829.0,-0.5912050008773804,-0.310829222202301,9.899168968200684,-3.2406234741210938,-2.9815099239349365,-0.3618907332420349
3995566162.0,-0.5205482244491577,-0.1412407755851745,9.904765129089355,-3.2398037910461426,-2.696628332138061,-0.4571500718593597
3995574495.0,-0.664332926273346,-0.1413995921611786,9.739084243774414,-3.288304090499878,-2.537602186203003,-0.3175396919250488
3995582828.0,-0.6656739115715027,-0.3642838597297668,9.719009399414062,-3.3786075115203857,-3.021186590194702,-0.388222187757492
3995591161.0,-0.4438953995704651,-0.4014120399951935,9.871485710144045,-3.412623167037964,-3.1835803985595703,-0.3315891027450561
3995599494.0,-0.3794038295745849,-0.1812544614076614,9.967413902282717,-3.1605663299560547,-2.776711225509644,-0.3407717943191528
3995607827.0,-0.5816192030906677,-0.0764108896255493,9.820319175720217,-3.3352162837982178,-2.269254446029663,-0.3400929868221283
3995616160.0,-0.7844414114952087,-0.3499002456665039,9.696813583374023,-3.449815034866333,-2.597501277923584,-0.3905018270015716
3995624493.0,-0.7243444323539734,-0.5428170561790466,9.810587882995604,-3.321666955947876,-3.064064741134644,-0.3655279874801636
3995632826.0,-0.4894530773162842,-0.3332310914993286,9.996703147888184,-3.09549331665039,-2.833024263381958,-0.4034626483917236
3995641159.0,-0.4963005781173706,-0.0747862607240676,9.94076442718506,-3.0987205505371094,-2.5565693378448486,-0.3498263657093048
3995649492.0,-0.642465353012085,-0.1730648428201675,9.737022399902344,-3.198744058609009,-2.823393106460572,-0.3486481606960296
3995657825.0,-0.5894370079040527,-0.4529182910919189,9.778093338012695,-3.383410215377808,-3.0527560710906982,-0.3809092938899994
3995666158.0,-0.4075400531291961,-0.4157644808292389,9.959428787231444,-3.150883913040161,-2.997403621673584,-0.4576239585876465
3995674491.0,-0.4477631449699402,-0.1687745451927185,9.94890308380127,-2.990602731704712,-2.4553678035736084,-0.363017737865448
3995682824.0,-0.6713522672653198,-0.1224992051720619,9.786134719848633,-3.198333978652954,-2.403114557266236,-0.3707532286643982
3995691157.0,-0.7555017471313477,-0.3517159223556518,9.754023551940918,-3.285409927368164,-2.768745183944702,-0.4222763180732727
3995699490.0,-0.5948845148086548,-0.3968488574028015,9.87587547302246,-3.2992031574249268,-2.9665513038635254,-0.3692676126956939
3995707823.0,-0.487450510263443,-0.2168938070535659,9.935357093811035,-3.1641392707824707,-2.6206822395324707,-0.3242889940738678
3995716156.0,-0.6190934777259827,-0.1783706545829773,9.814242362976074,-3.148745059967041,-2.580339431762696,-0.3956758379936218
3995724489.0,-0.676417350769043,-0.3778434991836548,9.717074394226074,-3.325483560562134,-3.07397723197937,-0.4127606451511383
3995732822.0,-0.4485614597797394,-0.4396931529045105,9.863799095153809,-3.2143943309783936,-3.116471290588379,-0.3507485389709472
3995741155.0,-0.3071992397308349,-0.2314564883708953,9.983839988708496,-3.224883556365967,-2.8039391040802,-0.3896693587303161
3995749488.0,-0.502147376537323,-0.1157926693558693,9.849709510803224,-3.103407621383667,-2.0913381576538086,-0.4015671610832214
3995757821.0,-0.792090117931366,-0.2902773320674896,9.686040878295898,-3.18673038482666,-2.3973512649536133,-0.3434996604919433
3995766154.0,-0.7675318717956543,-0.5063377618789673,9.796961784362791,-3.1222472190856934,-3.0206868648529053,-0.3162589967250824
3995774487.0,-0.5289066433906555,-0.3223167359828949,9.96967887878418,-3.106942653656006,-3.0186760425567627,-0.5041266083717346
3995782820.0,-0.506830096244812,-0.0277615524828434,9.9197998046875,-3.0917532444000244,-2.680670738220215,-0.3696005940437317
3995791153.0,-0.6633375883102417,-0.0844097211956977,9.712074279785156,-3.159080266952514,-2.624690532684326,-0.3264022171497345
3995799486.0,-0.6201479434967041,-0.397092342376709,9.706599235534668,-3.326815605163574,-3.112629175186157,-0.4326116442680359
3995807819.0,-0.4196240901947021,-0.3796018362045288,9.902260780334473,-3.114652633666992,-3.066446781158448,-0.348801851272583
3995816152.0,-0.4020268619060516,-0.1383779048919677,9.92902374267578,-3.0181634426116943,-2.493225574493408,-0.3639910817146301
3995824485.0,-0.6155238151550293,-0.0367509126663208,9.761392593383787,-3.085324048995972,-2.2624669075012207,-0.3778995871543884
3995832818.0,-0.781755805015564,-0.2147998362779617,9.731154441833496,-3.286780595779419,-2.7763912677764893,-0.453282356262207
3995841151.0,-0.6189207434654236,-0.3143217265605926,9.863543510437012,-3.2592194080352783,-3.0955958366394043,-0.3949074745178222
3995849484.0,-0.5118935108184814,-0.1599301695823669,9.963544845581056,-3.2288920879364014,-2.85881781578064,-0.3596110343933105
3995857817.0,-0.6212804317474365,-0.0831999331712722,9.821487426757812,-3.20729923248291,-2.609001874923706,-0.3422189652919769
3995866150.0,-0.6828432083129883,-0.2559997737407684,9.702604293823242,-3.2903149127960205,-2.8626596927642822,-0.3146581053733825
3995874483.0,-0.5085505843162537,-0.356114774942398,9.857561111450195,-3.318490982055664,-3.1907527446746826,-0.3753382265567779
3995882816.0,-0.3197442889213562,-0.1833170801401138,10.018568992614746,-3.0807907581329346,-2.8657593727111816,-0.3656560480594635
3995891149.0,-0.4740980863571167,-0.0047523817047476,9.906781196594238,-3.126255750656128,-2.230372190475464,-0.4579440653324127
3995899482.0,-0.7558012008666992,-0.1891469061374664,9.687400817871094,-3.387034177780152,-2.430342435836792,-0.3910909295082092
3995907815.0,-0.786960780620575,-0.4380299150943756,9.765875816345217,-3.385139226913452,-3.015730381011963,-0.3225216567516327
3995916148.0,-0.5491059422492981,-0.3365828096866607,9.935660362243652,-3.183631896972656,-3.071979522705078,-0.3364813923835754
3995924481.0,-0.4791065454483032,-0.0346597321331501,9.947837829589844,-3.110374689102173,-2.638483762741089,-0.4021818935871124
3995932814.0,-0.62003493309021,-0.0488794483244419,9.774406433105469,-3.188139677047729,-2.4908435344696045,-0.4082524478435516
3995941147.0,-0.6393489837646484,-0.3615515530109405,9.70619297027588,-3.416068315505981,-2.864696502685547,-0.3487890958786011
3995949480.0,-0.4510624408721924,-0.418490469455719,9.89233112335205,-3.42341947555542,-3.0990664958953857,-0.3052960932254791
3995957813.0,-0.3926906585693359,-0.1931859254837036,9.94785213470459,-3.225433826446533,-2.5857696533203125,-0.4022843539714813
3995966146.0,-0.6048552393913269,-0.0752665624022483,9.793661117553713,-3.234194040298462,-2.330165386199951,-0.4963910579681396
3995974479.0,-0.7422977089881897,-0.2415771335363388,9.697547912597656,-3.318208932876587,-2.686408281326294,-0.4016696214675903
3995982812.0,-0.6611824035644531,-0.3923586905002594,9.872248649597168,-3.3970112800598145,-2.981292247772217,-0.3601361811161041
3995991145.0,-0.5321201086044312,-0.2509641945362091,9.95694637298584,-3.215944290161133,-2.76313591003418,-0.3393886387348175
3995999478.0,-0.602124810218811,-0.1204841881990432,9.848718643188477,-3.166123867034912,-2.4339921474456787,-0.4066771566867828
3996007811.0,-0.7132915258407593,-0.2843835949897766,9.714818954467772,-3.462045669555664,-2.838621139526367,-0.340592473745346
3996016144.0,-0.5421434044837952,-0.4412624835968017,9.85944652557373,-3.400917053222656,-3.1861166954040527,-0.4046408832073211
3996024477.0,-0.3140901923179626,-0.2950351536273956,9.96983528137207,-3.2160208225250244,-3.0645127296447754,-0.447916179895401
3996032810.0,-0.3877293169498443,-0.1054072976112365,9.88809299468994,-3.22762417793274,-2.4436235427856445,-0.3731481432914734
3996041143.0,-0.6951732039451599,-0.2616404294967651,9.711284637451172,-3.3524296283721924,-2.348146438598633,-0.4208290576934814
3996049476.0,-0.7753517627716064,-0.5464391112327576,9.756603240966797,-3.3965885639190674,-2.747677803039551,-0.4121715128421783
3996057809.0,-0.570739209651947,-0.4659633934497833,9.92232894897461,-3.212242841720581,-3.061400413513184,-0.3761578798294067
3996066142.0,-0.5119902491569519,-0.1462013125419616,9.950942039489746,-3.0086863040924072,-2.6435296535491943,-0.4213925302028656
3996074475.0,-0.640839159488678,-0.0731232613325119,9.768494606018066,-3.074002265930176,-2.492610216140747,-0.4034113585948944
3996082808.0,-0.6736882925033569,-0.3471243977546692,9.709794998168944,-3.3157501220703125,-2.920701742172241,-0.4482875764369964
3996091141.0,-0.4785111546516418,-0.4733266234397888,9.857958793640137,-3.267953872680664,-3.12907338142395,-0.3748771548271179
3996099474.0,-0.3642421960830688,-0.2923653423786163,9.978558540344238,-3.082224607467652,-2.651009321212769,-0.3309487104415893
3996107807.0,-0.5388467311859131,-0.1286410689353943,9.829731941223145,-3.0048699378967285,-2.337977647781372,-0.4262848794460296
3996116140.0,-0.7497023940086365,-0.2454522401094436,9.744178771972656,-3.2059030532836914,-2.5720534324646,-0.3261204361915588
3996124473.0,-0.6618187427520752,-0.3987340629100799,9.859899520874023,-3.2545833587646484,-2.921265125274658,-0.2947814464569092
3996132806.0,-0.5088509917259216,-0.2513799965381622,9.945920944213867,-3.215265274047852,-2.7895824909210205,-0.3408102393150329
3996141139.0,-0.5859299302101135,-0.1255228072404861,9.88083267211914,-3.167801856994629,-2.5206069946289062,-0.3887344300746918
3996149472.0,-0.7146543264389038,-0.2467144429683685,9.696661949157717,-3.221041202545166,-2.7814242839813232,-0.3473034203052521
3996157805.0,-0.6056831479072571,-0.4359259903430938,9.794036865234377,-3.270195245742798,-3.097862482070923,-0.4260928332805633
3996166138.0,-0.350150853395462,-0.2938721179962158,9.996091842651367,-3.128702163696289,-2.9231221675872803,-0.3175140619277954
3996174471.0,-0.4203154742717743,-0.0547743402421474,9.936784744262695,-3.033787965774536,-2.494250059127808,-0.3689346313476562
3996182804.0,-0.703169047832489,-0.1296657472848892,9.733859062194824,-3.239419460296631,-2.233548402786255,-0.3703178167343139
3996191137.0,-0.8222138285636902,-0.4187641739845276,9.724262237548828,-3.2262794971466064,-2.8187057971954346,-0.4347888827323913
3996199470.0,-0.6058861613273621,-0.4265503287315368,9.87208366394043,-3.2103347778320312,-3.1430463790893555,-0.4094948172569275
3996207803.0,-0.4760803282260895,-0.1445303708314895,9.965702056884766,-2.9466867446899414,-2.78434419631958,-0.4133369028568268
3996216136.0,-0.5940406918525696,0.0182903595268726,9.822103500366213,-3.058274984359741,-2.4694042205810547,-0.4388870298862457
3996224469.0,-0.6698240041732788,-0.2070369720458984,9.688464164733888,-3.2300961017608643,-2.8152732849121094,-0.4355829060077667
3996232802.0,-0.5284239053726196,-0.4144550859928131,9.83210277557373,-3.318183422088623,-3.035351037979126,-0.3302827775478363
3996241135.0,-0.3897198736667633,-0.2460475265979766,9.97079849243164,-3.150000095367432,-2.716325521469116,-0.3034134209156036
3996249468.0,-0.54464191198349,-0.0366656705737113,9.858254432678224,-3.136680841445923,-2.29007887840271,-0.480049192905426
3996257801.0,-0.776914656162262,-0.1065228357911109,9.70120334625244,-3.2788400650024414,-2.59135365486145,-0.3761578798294067
3996266134.0,-0.6889460682868958,-0.3429318070411682,9.801017761230469,-3.398445844650269,-2.963823080062866,-0.4201503396034241
3996274467.0,-0.5173094272613525,-0.2616249620914459,9.929163932800291,-3.237793207168579,-2.9795758724212646,-0.4672805070877075
3996282800.0,-0.5328698754310608,-0.0975008010864257,9.90241813659668,-3.1867051124572754,-2.6212453842163086,-0.3649387657642364
3996291133.0,-0.6669648885726929,-0.1564458459615707,9.714067459106444,-3.331733465194702,-2.6114866733551025,-0.4476471841335296
3996299466.0,-0.6025012135505676,-0.3499267697334289,9.754587173461914,-3.3677728176116943,-3.1154470443725586,-0.4346095621585846
3996307799.0,-0.3685130178928375,-0.3213549554347992,9.962567329406738,-3.2254343032836914,-3.089294672012329,-0.4056654572486877
3996316132.0,-0.3478088080883026,-0.0907850340008735,9.945313453674316,-3.1618847846984863,-2.488768577575684,-0.4632205963134765
3996324465.0,-0.6340658068656921,-0.1164468973875045,9.742535591125488,-3.192314386367798,-2.225531101226806,-0.3353543281555176
3996332798.0,-0.8305124640464783,-0.4097812175750732,9.664761543273926,-3.417515516281128,-2.68218207359314,-0.4005170166492462
3996341131.0,-0.6570597887039185,-0.4689287543296814,9.8624849319458,-3.3348584175109863,-2.9583544731140137,-0.3863011002540588
3996349464.0,-0.4570561051368713,-0.2159471660852432,10.010881423950195,-3.250997304916382,-2.905282020568848,-0.4085854589939117
3996357797.0,-0.515734851360321,-0.0197216905653476,9.865931510925291,-3.1814286708831787,-2.614022254943848,-0.4132472276687622
3996366130.0,-0.6493452787399292,-0.2124933004379272,9.727797508239746,-3.2580411434173584,-2.7039542198181152,-0.4206241369247436
3996374463.0,-0.5217922329902649,-0.4781316220760345,9.81411361694336,-3.4421308040618896,-3.116753339767456,-0.3461124002933502
3996382796.0,-0.3637292981147766,-0.4033341407775879,9.962495803833008,-3.1902916431427,-2.945547819137573,-0.3632226884365082
3996391129.0,-0.4879751205444336,-0.125293031334877,9.902786254882812,-3.089909315109253,-2.311722993850708,-0.4101735651493072
3996399462.0,-0.7412240505218506,-0.1405386477708816,9.73040771484375,-3.2095274925231934,-2.3814961910247803,-0.3964955508708954
3996407795.0,-0.7472199201583862,-0.359596312046051,9.76395034790039,-3.424072742462158,-2.910840034484864,-0.3051551878452301
3996416128.0,-0.5588036775588989,-0.3445350527763366,9.928606033325195,-3.311497926712036,-3.019239902496338,-0.4255165159702301
3996424461.0,-0.5102016925811768,-0.2136262357234954,9.935280799865724,-3.2126269340515137,-2.611896276473999,-0.2960365116596222
3996432794.0,-0.6576985716819763,-0.1698323935270309,9.783673286437988,-3.305504083633423,-2.5366671085357666,-0.3277212977409363
3996441127.0,-0.6912380456924438,-0.4001976251602173,9.718077659606934,-3.3705389499664307,-3.0496692657470703,-0.4224684238433838
3996449460.0,-0.4284530878067016,-0.4448723196983337,9.891592979431152,-3.192135572433472,-3.276329755783081,-0.3886575996875763
3996457793.0,-0.3152816295623779,-0.1652775853872299,9.969488143920898,-3.0208144187927246,-2.660473585128784,-0.4821110963821411
3996466126.0,-0.5216894745826721,-0.0965739861130714,9.818357467651367,-3.2008824348449707,-2.312555313110352,-0.3738140761852264
3996474459.0,-0.8232043385505676,-0.3421334326267242,9.685086250305176,-3.299574613571167,-2.460810661315918,-0.3436149358749389
3996482792.0,-0.7340852618217468,-0.5622477531433105,9.80123233795166,-3.263612031936645,-3.078498125076294,-0.3757864832878113
3996491125.0,-0.493245393037796,-0.3529352247714996,9.966605186462402,-3.1119887828826904,-3.030049085617065,-0.4069461822509765
3996499458.0,-0.5218406915664673,-0.0267311949282884,9.92696762084961,-3.098464250564575,-2.525294542312622,-0.4588149785995483
3996507791.0,-0.6973981857299805,-0.0908219814300537,9.71919059753418,-3.239957332611084,-2.584796190261841,-0.4705207049846649
3996516124.0,-0.649850070476532,-0.4031049907207489,9.719244956970217,-3.293414354324341,-3.126845359802246,-0.3877098858356476
3996524457.0,-0.405972808599472,-0.3956248164176941,9.878108024597168,-3.174487590789795,-3.166009426116944,-0.3270553648471832
3996532790.0,-0.3701854348182678,-0.1599653512239456,9.928145408630373,-3.159733533859253,-2.624549627304077,-0.3173987865447998
3996541123.0,-0.6203590035438538,-0.0794681683182716,9.77388858795166,-3.174333333969116,-2.2853147983551025,-0.3737244606018066
3996549456.0,-0.779313862323761,-0.2758807241916656,9.717126846313477,-3.240072727203369,-2.639982223510742,-0.4845957458019256
3996557789.0,-0.6302565336227417,-0.3574534356594085,9.873712539672852,-3.3182475566864014,-2.949069261550904,-0.4269381165504455
3996566122.0,-0.4656573235988617,-0.1643826365470886,9.973549842834473,-3.1463756561279297,-2.7715117931365967,-0.4411283731460571
3996574455.0,-0.6108061671257019,-0.0774939134716987,9.819087028503418,-3.1179311275482178,-2.551216125488281,-0.3569215536117553
3996582788.0,-0.7186850309371948,-0.2425865530967712,9.656347274780272,-3.297487258911133,-2.8230345249176025,-0.3845081031322479
3996591121.0,-0.5420085787773132,-0.4100000262260437,9.805776596069336,-3.364391565322876,-3.2513813972473145,-0.4383236467838287
3996599454.0,-0.2945906817913055,-0.2212032526731491,9.965925216674805,-3.199281930923462,-3.0379638671875,-0.4080988466739654
3996607787.0,-0.4326689839363098,-0.0228319577872753,9.91415309906006,-3.15122938156128,-2.4186112880706787,-0.3795132935047149
3996616120.0,-0.7581947445869446,-0.1615346521139145,9.701021194458008,-3.20809292793274,-2.362746477127075,-0.3460610806941986
3996624453.0,-0.7887372970581055,-0.455795407295227,9.721443176269531,-3.3672473430633545,-2.944253921508789,-0.4472757577896118
3996632786.0,-0.5497385263442993,-0.4106564223766327,9.922873497009276,-3.2639451026916504,-3.06005597114563,-0.3655663728713989
3996641119.0,-0.4629083275794983,-0.1165728643536567,9.98362636566162,-3.0208144187927246,-2.704427480697632,-0.3798078298568725
3996649452.0,-0.6230496764183044,-0.0087342476472258,9.778630256652832,-3.217672824859619,-2.5941712856292725,-0.4059984385967254
3996657785.0,-0.669579267501831,-0.2550847232341766,9.679055213928224,-3.4207046031951904,-2.841694593429565,-0.3546803295612335
3996666118.0,-0.4862397313117981,-0.436373621225357,9.854276657104492,-3.375571727752685,-3.162615299224853,-0.3596238493919372
3996674451.0,-0.3617482781410217,-0.232584461569786,9.964388847351074,-3.147592544555664,-2.81255841255188,-0.2534656822681427
3996682784.0,-0.5485175848007202,-0.0504835173487663,9.868870735168455,-3.0724401473999023,-2.3149502277374268,-0.3158875405788421
3996691117.0,-0.7990955710411072,-0.1857645809650421,9.736531257629396,-3.3583462238311768,-2.452806234359741,-0.2778759896755218
3996699450.0,-0.7229388356208801,-0.3984647095203399,9.818845748901367,-3.3806309700012207,-3.031303882598877,-0.4231087267398834
3996707783.0,-0.5177984833717346,-0.2636239230632782,9.922383308410645,-3.2314794063568115,-2.973543882369995,-0.3061285614967346
3996716116.0,-0.5332215428352356,-0.1005643531680107,9.89056396484375,-3.1928014755249023,-2.612408399581909,-0.3731865882873535
3996724449.0,-0.6907036900520325,-0.1785425245761871,9.69534397125244,-3.326866626739502,-2.785356044769287,-0.4653466641902923
3996732782.0,-0.6029773354530334,-0.4137455224990845,9.747483253479004,-3.3696680068969727,-3.142982244491577,-0.3930888772010803
3996741115.0,-0.3860555291175842,-0.3822941482067108,9.963861465454102,-3.2490122318267822,-3.02514386177063,-0.3766829669475555
3996749448.0,-0.3769896328449249,-0.1346729099750518,9.971932411193848,-3.1615519523620605,-2.5275230407714844,-0.3290788531303406
3996757781.0,-0.678124725818634,-0.1296544969081878,9.741266250610352,-3.190816164016724,-2.2323060035705566,-0.4343661665916443
3996766114.0,-0.8472163081169128,-0.4164797067642212,9.688111305236816,-3.274216413497925,-2.738110303878784,-0.5484263896942139
3996774447.0,-0.6569372415542603,-0.4938328266143799,9.851428031921388,-3.327148199081421,-3.103689670562744,-0.3812807202339172
3996782780.0,-0.4613023400306701,-0.2585956752300262,10.033368110656738,-3.070493698120117,-2.962094306945801,-0.4315871000289917
3996791113.0,-0.5335466861724854,-0.0382508412003517,9.861332893371582,-3.1029977798461914,-2.5728089809417725,-0.4149377644062042
3996799446.0,-0.6754928231239319,-0.250165730714798,9.672483444213867,-3.349445343017578,-2.6921329498291016,-0.4222250878810882
3996807779.0,-0.557668924331665,-0.4987436532974243,9.791420936584473,-3.3735358715057373,-3.2548136711120605,-0.4863502979278564
3996816112.0,-0.341387927532196,-0.3833538591861725,9.96790885925293,-3.141573190689087,-2.880640983581543,-0.4356597661972046
3996824445.0,-0.4549579918384552,-0.1052107661962509,9.921570777893066,-3.0721328258514404,-2.415409564971924,-0.4430622160434723
3996832778.0,-0.7110848426818848,-0.1367503851652145,9.713632583618164,-3.2746005058288574,-2.3761301040649414,-0.4433567821979522
3996841111.0,-0.7743852138519287,-0.3744975924491882,9.756952285766602,-3.411752223968506,-2.9676525592803955,-0.4310491979122162
3996849444.0,-0.5709242224693298,-0.370734691619873,9.898380279541016,-3.225843906402588,-2.9801266193389893,-0.3763371706008911
3996857777.0,-0.4996919631958008,-0.1703308671712875,9.972530364990234,-3.0810205936431885,-2.570324420928955,-0.3912446200847626
3996866110.0,-0.6320710182189941,-0.1364060491323471,9.764126777648926,-3.3215389251708984,-2.5365138053894043,-0.3364045619964599
3996874443.0,-0.6729145646095276,-0.3571795523166656,9.681206703186035,-3.367542266845703,-2.8719322681427,-0.3592268526554107
3996882776.0,-0.4408945441246032,-0.4144625961780548,9.884825706481934,-3.306656837463379,-3.024055242538452,-0.3251086771488189
3996891109.0,-0.3188146650791168,-0.192094624042511,9.979588508605955,-3.119621515274048,-2.6997532844543457,-0.404487133026123
3996899442.0,-0.5238010883331299,-0.0810182243585586,9.867393493652344,-3.155635118484497,-2.2132110595703125,-0.3209847807884216
3996907775.0,-0.8114213943481445,-0.2918497323989868,9.679757118225098,-3.341530561447144,-2.444084882736206,-0.3476363718509674
3996916108.0,-0.7579920291900635,-0.5151717066764832,9.804838180541992,-3.2813374996185303,-2.9629011154174805,-0.3866981267929077
3996924441.0,-0.4832853078842163,-0.3296352922916412,9.977304458618164,-3.028627395629883,-3.044713020324707,-0.3210488557815552
3996932774.0,-0.5089203715324402,-0.0146792149171233,9.912201881408691,-2.979895830154419,-2.597552299499512,-0.4507977068424225
3996941107.0,-0.6913089156150818,-0.0706521123647689,9.694541931152344,-3.11816143989563,-2.4835689067840576,-0.4209827482700348
3996949440.0,-0.6485632658004761,-0.3939063251018524,9.727494239807127,-3.254634618759156,-3.0323283672332764,-0.3757736682891845
3996957773.0,-0.3922441303730011,-0.4148977398872375,9.916840553283691,-3.27499794960022,-2.9724936485290527,-0.380870908498764
3996966106.0,-0.3781897127628326,-0.1363981217145919,9.96884536743164,-3.021390914916992,-2.475884437561035,-0.3494421541690826
3996974439.0,-0.6481993794441223,-0.0470029264688491,9.782014846801758,-3.112488031387329,-2.198162317276001,-0.3351366221904754
3996982772.0,-0.824550449848175,-0.2478576749563217,9.716806411743164,-3.364698886871338,-2.6512911319732666,-0.4051275849342346
3996991105.0,-0.6513617038726807,-0.3790636956691742,9.852498054504396,-3.3081939220428467,-3.0058434009552,-0.4073047637939453
3996999438.0,-0.4959215223789215,-0.2251600921154022,9.975937843322754,-3.228790044784546,-2.8524911403656006,-0.4174992740154266
3997007771.0,-0.6044239401817322,-0.0903604626655578,9.838876724243164,-3.146695613861084,-2.415127277374268,-0.3609941601753235
3997016104.0,-0.7063978910446167,-0.2372749149799347,9.683377265930176,-3.2694523334503174,-2.746307134628296,-0.2596515119075775
3997024437.0,-0.538748025894165,-0.413221538066864,9.818464279174805,-3.288662910461426,-3.2020609378814697,-0.350786954164505
3997032770.0,-0.3254010379314422,-0.279597520828247,9.943086624145508,-3.2140231132507324,-2.972609043121338,-0.3202804028987884
3997041103.0,-0.4298382401466369,-0.0745483040809631,9.90764331817627,-3.196298122406006,-2.462270736694336,-0.3756327629089355
3997049436.0,-0.7530640959739685,-0.191620871424675,9.708959579467772,-3.325303792953491,-2.375502586364746,-0.3641447424888611
3997057769.0,-0.8338098526000977,-0.4856600165367126,9.721367835998535,-3.3815019130706787,-2.82382869720459,-0.4391432702541351
3997066102.0,-0.5671318769454956,-0.400943398475647,9.936144828796388,-3.183375835418701,-3.0485424995422363,-0.3759785592556
3997074435.0,-0.4219961166381836,-0.0974642187356948,9.997446060180664,-3.147976875305176,-2.750495195388794,-0.3390684425830841
3997082768.0,-0.6044183969497681,-0.0160848554223775,9.780290603637695,-3.20492959022522,-2.560142755508423,-0.3894644379615783
3997091101.0,-0.7003602385520935,-0.2885525822639465,9.664207458496094,-3.329774141311645,-2.801454782485962,-0.4350834190845489
3997099434.0,-0.4932732582092285,-0.4977727830410003,9.844731330871582,-3.292210578918457,-3.1642162799835205,-0.3718802332878113
3997107767.0,-0.352672278881073,-0.2767018675804138,9.977395057678224,-3.0960822105407715,-2.752339124679565,-0.3782581984996795
3997116100.0,-0.5465995669364929,-0.0454364009201526,9.879941940307615,-3.081174373626709,-2.263132810592652,-0.3553078472614288
3997124433.0,-0.7894468307495117,-0.1535421162843704,9.716084480285645,-3.283731937408448,-2.518634796142578,-0.3041561841964721
3997132766.0,-0.7257781028747559,-0.3761564493179321,9.799095153808594,-3.387892723083496,-2.977782964706421,-0.387594610452652
3997141099.0,-0.5034329891204834,-0.323915421962738,9.955974578857422,-3.2757279872894287,-3.043227434158325,-0.3143122792243957
3997149432.0,-0.4957579970359802,-0.174728512763977,9.928449630737305,-3.1675329208374023,-2.5365519523620605,-0.3249677717685699
3997157765.0,-0.6652877330780029,-0.2046378999948501,9.71047019958496,-3.2100656032562256,-2.6036486625671387,-0.4085086286067962
3997166098.0,-0.6245912909507751,-0.4160723984241485,9.729266166687012,-3.372101068496704,-3.066190481185913,-0.4176785051822662
3997174431.0,-0.3935894072055816,-0.3686608076095581,9.925610542297363,-3.3001508712768555,-2.960890531539917,-0.4156550168991089
3997182764.0,-0.362478643655777,-0.1281878352165222,9.968812942504885,-3.158362865447998,-2.511885404586792,-0.3441784381866455
3997191097.0,-0.6514356732368469,-0.1170197650790214,9.764573097229004,-3.2930171489715576,-2.2774641513824463,-0.4231983721256256
3997199430.0,-0.877377450466156,-0.411373496055603,9.66465950012207,-3.293619394302368,-2.6391243934631348,-0.380435436964035
3997207763.0,-0.6818141341209412,-0.519005537033081,9.853199005126951,-3.2792751789093018,-3.201843500137329,-0.4684971272945404
3997216096.0,-0.457240343093872,-0.2572685778141022,9.993101119995115,-3.0811872482299805,-2.816361665725708,-0.3298088610172272
3997224429.0,-0.5177019834518433,-0.0056085027754306,9.882553100585938,-3.0711212158203125,-2.487654447555542,-0.4613635838031769
3997232762.0,-0.6846492886543274,-0.146244466304779,9.677573204040527,-3.321154832839966,-2.6649179458618164,-0.3946000933647156
3997241095.0,-0.582961916923523,-0.4781067371368408,9.788905143737791,-3.4092416763305664,-2.995520830154419,-0.3378645777702331
3997249428.0,-0.3613273203372955,-0.384595513343811,9.955965042114258,-3.0984132289886475,-3.005279779434204,-0.431920051574707
3997257761.0,-0.4318509697914123,-0.1262920647859573,9.960882186889648,-2.9898855686187744,-2.3672804832458496,-0.314478725194931
3997266094.0,-0.6946929693222046,-0.0779589936137199,9.732318878173828,-3.2554664611816406,-2.300286054611206,-0.4278857707977295
3997274427.0,-0.7886162400245667,-0.2917541563510895,9.730867385864258,-3.3395330905914307,-2.8746602535247803,-0.4896161258220672
3997282760.0,-0.6111766695976257,-0.3768253624439239,9.93913459777832,-3.2861146926879883,-3.0618107318878174,-0.3986727595329284
3997291093.0,-0.5002292990684509,-0.1581987738609314,9.993494987487791,-3.186397790908813,-2.6008565425872803,-0.3582278490066528
3997299426.0,-0.6289657950401306,-0.1122293695807457,9.820025444030762,-3.1678147315979004,-2.6185433864593506,-0.3930248022079468
3997307759.0,-0.6623284220695496,-0.3229224383831024,9.69932746887207,-3.4220235347747803,-2.9024646282196045,-0.4876566231250763
3997316092.0,-0.4443927109241485,-0.4111307263374328,9.867880821228027,-3.3099613189697266,-3.188344955444336,-0.4743372201919555
3997324425.0,-0.329484224319458,-0.1746723502874374,10.006853103637695,-3.18954873085022,-2.8291566371917725,-0.4400909841060638
3997332758.0,-0.5255163908004761,-0.0479545257985591,9.841832160949709,-3.169339179992676,-2.3087263107299805,-0.4157062172889709
3997341091.0,-0.8320722579956055,-0.2481632530689239,9.648100852966309,-3.357168197631836,-2.551011562347412,-0.4315614700317383
3997349424.0,-0.7583960890769958,-0.5030888915061951,9.775429725646973,-3.403786420822144,-3.036606311798096,-0.3828175961971283
3997357757.0,-0.4913752973079681,-0.3324999213218689,9.98676586151123,-3.1303927898406982,-3.0517570972442627,-0.3327801525592804
3997366090.0,-0.4535107612609863,-0.0289432574063539,9.949092864990234,-3.101576089859009,-2.6098852157592773,-0.3093943297863006
3997374423.0,-0.6487995386123657,-0.0421657115221023,9.738661766052246,-3.2039053440093994,-2.3657305240631104,-0.3523494005203247
3997382756.0,-0.6455574631690979,-0.3447127342224121,9.69560718536377,-3.4174001216888428,-2.890463829040528,-0.3339840471744537
3997391089.0,-0.4346543252468109,-0.4583737552165985,9.912372589111328,-3.222104549407959,-3.137423753738404,-0.3075373470783233
3997399422.0,-0.3805221021175384,-0.1846255213022232,9.962477684020996,-3.105098485946656,-2.684128522872925,-0.3739293813705444
3997407755.0,-0.598939061164856,-0.046096034348011,9.799585342407228,-3.198103189468384,-2.293536901473999,-0.4379649460315704
3997416088.0,-0.8096166253089905,-0.2211018055677414,9.696850776672363,-3.3503293991088867,-2.784280300140381,-0.3131724596023559
3997424421.0,-0.670933723449707,-0.3641520142555237,9.824461936950684,-3.3875982761383057,-3.000362157821656,-0.4568683207035064
3997432754.0,-0.5059949159622192,-0.2560158371925354,9.986357688903809,-3.234450578689575,-2.9762847423553467,-0.3421165645122528
3997441087.0,-0.5734369158744812,-0.1264363676309585,9.83004379272461,-3.17311692237854,-2.463500022888184,-0.4018104672431946
3997449420.0,-0.718731701374054,-0.2575477659702301,9.686127662658691,-3.261870622634888,-2.7293505668640137,-0.392025887966156
3997457753.0,-0.5680792927742004,-0.4119462668895721,9.771612167358398,-3.291903257369995,-3.1849639415740967,-0.4288207590579986
3997466086.0,-0.3106492459774017,-0.276439219713211,9.971853256225586,-3.228405475616455,-2.9947779178619385,-0.3602770566940307
3997474419.0,-0.4193577468395233,-0.0455735512077808,9.921493530273438,-3.25214958190918,-2.354780673980713,-0.4742859303951263
3997482752.0,-0.7413128018379211,-0.1938004791736602,9.694937705993652,-3.326802492141724,-2.36042857170105,-0.3817289471626282
3997491085.0,-0.8241744637489319,-0.5162708759307861,9.73566436767578,-3.466758728027344,-2.968280076980591,-0.4197148382663727
3997499418.0,-0.5877947211265564,-0.4733984768390655,9.920537948608398,-3.1837854385375977,-3.209501981735229,-0.3696006238460541
3997507751.0,-0.4626895487308502,-0.1174215599894523,10.030168533325195,-3.132710695266724,-2.833050012588501,-0.47438845038414
3997516084.0,-0.6054418683052063,0.0012348019517958,9.81091022491455,-3.177099704742432,-2.5011403560638428,-0.5379629135131836
3997524417.0,-0.7156597375869751,-0.2388373911380767,9.68331241607666,-3.314495086669922,-2.7870466709136963,-0.3482896089553833
3997532750.0,-0.5155771970748901,-0.46497243642807,9.810888290405272,-3.34813928604126,-3.1487069129943848,-0.3519139885902405
3997541083.0,-0.3388505280017853,-0.331594318151474,10.010777473449709,-3.230544090270996,-2.86728310585022,-0.4267331659793854
3997549416.0,-0.506177544593811,-0.1003292202949523,9.92029094696045,-3.105994939804077,-2.303065299987793,-0.4882457256317138
3997557749.0,-0.7718111276626587,-0.158352717757225,9.729853630065918,-3.3096022605896,-2.452319622039795,-0.3778227567672729
3997566082.0,-0.733237087726593,-0.3488173484802246,9.769739151000977,-3.2917494773864746,-2.983687162399292,-0.303413450717926
3997574415.0,-0.5270447731018066,-0.2850134372711181,9.925636291503906,-3.374765396118164,-3.0256943702697754,-0.3950099647045135
3997582748.0,-0.5049113035202026,-0.1292276233434677,9.915432929992676,-3.107736587524414,-2.6264965534210205,-0.3212153017520904
3997591081.0,-0.691883385181427,-0.2047509402036667,9.729866981506348,-3.221118211746216,-2.6656734943389893,-0.393870085477829
3997599414.0,-0.6577064394950867,-0.4195704460144043,9.724058151245115,-3.3907487392425537,-3.076000928878784,-0.3682686686515808
3997607747.0,-0.3871074914932251,-0.3819704055786133,9.923110961914062,-3.296385765075684,-3.2343738079071045,-0.4363769590854645
3997616080.0,-0.3643290102481842,-0.1079600304365158,9.991735458374023,-3.2201316356658936,-2.6210148334503174,-0.3996717035770416
3997624413.0,-0.6423013806343079,-0.07417743653059,9.758781433105469,-3.2995874881744385,-2.28485369682312,-0.3564604818820953
3997632746.0,-0.8390562534332275,-0.3717751502990722,9.676701545715332,-3.383140802383423,-2.608412981033325,-0.3901944756507873
3997641079.0,-0.6711825132369995,-0.531490683555603,9.845175743103027,-3.3360366821289062,-3.1159591674804688,-0.3150422871112823
3997649412.0,-0.4425682425498962,-0.2757804095745086,9.981650352478027,-3.182978868484497,-2.9941251277923584,-0.3778868019580841
3997657745.0,-0.4628705084323883,-0.0285854116082191,9.886940956115724,-3.1513447761535645,-2.556223630905152,-0.5273714661598206
3997666078.0,-0.6613933444023132,-0.1491593122482299,9.68181324005127,-3.259936809539795,-2.744270801544189,-0.4632974863052368
3997674411.0,-0.5843132734298706,-0.4258379340171814,9.749706268310549,-3.464799404144287,-3.034096002578736,-0.3558201789855957
3997682744.0,-0.390467494726181,-0.3880102336406708,9.933197975158691,-3.2300703525543213,-2.951413154602051,-0.3311024010181427
3997691077.0,-0.4567061364650726,-0.1277910619974136,9.945929527282717,-3.0764997005462646,-2.500871181488037,-0.3464837074279785
3997699410.0,-0.7335754632949829,-0.096011534333229,9.740436553955078,-3.2221038341522217,-2.361978054046631,-0.3904505372047424
3997707743.0,-0.7983489036560059,-0.3218268454074859,9.70496654510498,-3.349945068359375,-2.776647090911865,-0.3344066739082336
3997716076.0,-0.5777001976966858,-0.3526749312877655,9.90493869781494,-3.310985803604126,-3.1820180416107178,-0.3487506508827209
3997724409.0,-0.4436653256416321,-0.1803687065839767,9.959874153137209,-3.116727113723755,-2.856025695800781,-0.4268484711647033
3997732742.0,-0.5887749791145325,-0.1261900663375854,9.808612823486328,-3.27342176437378,-2.454586267471313,-0.2529917657375335
3997741075.0,-0.6831752061843872,-0.3237558603286743,9.703327178955078,-3.4530553817749023,-2.861699342727661,-0.4406673312187195
3997749408.0,-0.4854952394962311,-0.4182609319686889,9.845355033874512,-3.2044050693511963,-3.204840421676636,-0.3570240437984466
3997757741.0,-0.3536484837532043,-0.2196340411901474,10.00022792816162,-3.1043813228607178,-2.9132227897644043,-0.4345327317714691
3997766074.0,-0.5297096967697144,-0.0585216768085956,9.880192756652832,-3.1321983337402344,-2.38252067565918,-0.3719570934772491
3997774407.0,-0.8255872130393982,-0.2331976443529129,9.663585662841797,-3.2888550758361816,-2.5191216468811035,-0.3082288801670074
3997782740.0,-0.8014233708381653,-0.515695333480835,9.775671005249023,-3.2797107696533203,-3.003512620925904,-0.3238535821437835
3997791073.0,-0.5105535387992859,-0.3581058979034424,10.00379467010498,-3.1475670337677,-3.0568926334381104,-0.3682686388492584
3997799406.0,-0.4522841870784759,-0.0356584154069423,9.987754821777344,-3.0801243782043457,-2.733230829238892,-0.4483899772167206
3997807739.0,-0.6492995023727417,-0.042085375636816,9.7576904296875,-3.2184412479400635,-2.5034971237182617,-0.3367887735366821
3997816072.0,-0.6430709958076477,-0.346142053604126,9.712628364562988,-3.434420824050904,-3.086144208908081,-0.4583539366722107
3997824405.0,-0.4327951967716217,-0.4653899073600769,9.872243881225586,-3.3301711082458496,-3.0602993965148926,-0.4734407663345337
3997832738.0,-0.3867447972297668,-0.2208216339349746,10.003765106201172,-3.061298131942749,-2.6661217212677,-0.3036951720714569
3997841071.0,-0.6208880543708801,-0.0533976331353187,9.831326484680176,-3.153970241546631,-2.2648489475250244,-0.4300757944583893
3997849404.0,-0.7911242842674255,-0.2032916843891143,9.711560249328612,-3.414313793182373,-2.7248806953430176,-0.3845081329345703
3997857737.0,-0.6872499585151672,-0.3733006417751312,9.833207130432127,-3.44256591796875,-3.120748996734619,-0.4661150574684143
3997866070.0,-0.4881752729415893,-0.2645489275455475,9.983236312866213,-3.321052074432373,-3.033199548721313,-0.3674234449863434
3997874403.0,-0.5390529632568359,-0.1093161553144455,9.86696720123291,-3.2013697624206543,-2.643440008163452,-0.314004898071289
3997882736.0,-0.6717767119407654,-0.2210956513881683,9.681713104248049,-3.258886337280273,-2.74537205696106,-0.5550220608711243
3997891069.0,-0.558914840221405,-0.442243754863739,9.782479286193848,-3.304876804351806,-3.118994235992432,-0.3746850490570068
3997899402.0,-0.3365738987922668,-0.3018853664398193,9.945795059204102,-3.247795343399048,-2.959302425384521,-0.3339199721813202
3997907735.0,-0.396993488073349,-0.0579872950911521,9.9190092086792,-3.1159586906433105,-2.4241950511932373,-0.334124892950058
3997916068.0,-0.732821524143219,-0.142701044678688,9.717527389526367,-3.252175092697144,-2.3900256156921387,-0.4062801599502563
3997924401.0,-0.8231363296508789,-0.4698693454265594,9.693554878234863,-3.4098565578460693,-2.779746532440185,-0.4336873888969421
3997932734.0,-0.5978127121925354,-0.4459514319896698,9.904937744140623,-3.212652921676636,-3.1997430324554443,-0.3303852379322052
3997941067.0,-0.4436050057411194,-0.1733199059963226,10.01060676574707,-3.079074621200561,-2.8802311420440674,-0.2845613658428192
3997949400.0,-0.5861731767654419,-0.0195372775197029,9.834664344787598,-3.16728949546814,-2.5497562885284424,-0.4710073471069336
3997957733.0,-0.6798965930938721,-0.2426866441965103,9.682601928710938,-3.386996030807495,-2.8036317825317383,-0.3827535510063171
3997966066.0,-0.5322352051734924,-0.4471679329872131,9.81399154663086,-3.245554685592652,-3.1658172607421875,-0.3458690345287323
3997974399.0,-0.3715468347072601,-0.2801292538642883,9.988173484802246,-3.2227578163146973,-2.7123682498931885,-0.4128758907318115
3997982732.0,-0.5395036935806274,-0.0802703723311424,9.899537086486816,-3.193070411682129,-2.481686353683472,-0.4085469841957092
3997991065.0,-0.7815375924110413,-0.1765327304601669,9.72701644897461,-3.2065045833587646,-2.43290376663208,-0.3862754106521606
3997999398.0,-0.7087962031364441,-0.3629364669322967,9.785676956176758,-3.3757386207580566,-2.980203628540039,-0.4599420726299286
3998007731.0,-0.5261756777763367,-0.2953037619590759,9.952140808105469,-3.205070972442627,-2.960531949996948,-0.3507741689682007
3998016064.0,-0.5105670094490051,-0.1345774531364441,9.93952465057373,-3.220541477203369,-2.5304174423217773,-0.3388122916221618
3998024397.0,-0.6687572002410889,-0.1640799790620803,9.74575138092041,-3.326457023620605,-2.540022850036621,-0.3590475618839264
3998032730.0,-0.6341339349746704,-0.3995124399662018,9.761041641235352,-3.362957239151001,-3.148207426071167,-0.3893235921859741
3998041063.0,-0.4030439555644989,-0.3705689907073974,9.915034294128418,-3.316236734390259,-3.018317699432373,-0.3337919414043426
3998049396.0,-0.3733282387256622,-0.1075167879462242,9.976953506469728,-3.150153636932373,-2.540611743927002,-0.2845613360404968
3998057729.0,-0.6459543704986572,-0.1322446763515472,9.799039840698242,-3.266275882720948,-2.257356643676758,-0.2389295697212219
3998066062.0,-0.833223283290863,-0.3998450934886932,9.674036026000977,-3.3325273990631104,-2.6157901287078857,-0.5300738215446472
3998074395.0,-0.665131151676178,-0.5259464979171753,9.885321617126465,-3.394206285476685,-3.073081016540528,-0.4289487600326538
3998082728.0,-0.4759655892848968,-0.2541735768318176,9.990339279174805,-3.0764875411987305,-2.9104816913604736,-0.5125024318695068
3998091061.0,-0.5346320271492004,-0.019588490948081,9.878209114074709,-3.125615358352661,-2.5444540977478027,-0.5000795125961304
3998099394.0,-0.691008448600769,-0.1819739341735839,9.68529987335205,-3.3102173805236816,-2.6940925121307373,-0.4868369996547699
3998107727.0,-0.5723466873168945,-0.4545128345489502,9.790369033813477,-3.326251745223999,-3.1195192337036133,-0.355051726102829
3998116060.0,-0.3903267085552215,-0.3677012324333191,9.923298835754396,-3.244440078735352,-2.7939112186431885,-0.328899621963501
3998124393.0,-0.4968032240867615,-0.1232121214270591,9.88581371307373,-3.140343427658081,-2.3581361770629883,-0.4025917053222656
3998132726.0,-0.7496516704559326,-0.1222840920090675,9.721797943115234,-3.2276875972747803,-2.32145619392395,-0.4167307317256927
3998141059.0,-0.7758527398109436,-0.3491219878196716,9.72552490234375,-3.294772148132324,-2.837327480316162,-0.3664757013320923
3998149392.0,-0.5654032826423645,-0.3711977899074554,9.88450813293457,-3.2248449325561523,-3.0389626026153564,-0.3371473848819732
3998157725.0,-0.4593885242938995,-0.1505730748176574,9.934026718139648,-3.1154720783233643,-2.7566421031951904,-0.4582770466804504
3998166058.0,-0.6171393394470215,-0.1170274913311004,9.777361869812012,-3.1670591831207275,-2.612715721130371,-0.4337130188941955
3998174391.0,-0.6703270673751831,-0.3556295931339264,9.700946807861328,-3.389263153076172,-2.910097360610962,-0.4025661647319793
3998182724.0,-0.4573348760604858,-0.4308893978595733,9.869220733642578,-3.397305727005005,-3.1520237922668457,-0.3742624223232269
3998191057.0,-0.3454741835594177,-0.1942015886306762,9.98752498626709,-3.182607412338257,-2.7416329383850098,-0.2704991400241852
3998199390.0,-0.5824148654937744,-0.040149088948965,9.847663879394531,-3.204148769378662,-2.203477382659912,-0.3556408286094665
3998207723.0,-0.8357998728752136,-0.2590096294879913,9.700340270996094,-3.3882384300231934,-2.5142295360565186,-0.4001840353012085
3998216056.0,-0.7520615458488464,-0.5229682922363281,9.807512283325195,-3.333090782165528,-3.118238687515259,-0.3644009232521057
3998224389.0,-0.4510976374149322,-0.3456581830978393,9.98115348815918,-3.166085958480835,-3.1777150630950928,-0.3427056670188904
3998232722.0,-0.4269912242889404,-0.0310673415660858,9.982443809509276,-3.0585825443267822,-2.679978609085083,-0.4605054557323456
3998241055.0,-0.6376578211784363,-0.0671611726284027,9.73578643798828,-3.205019235610962,-2.485413312911988,-0.4129654765129089
3998249388.0,-0.6681514978408813,-0.3538064956665039,9.727404594421388,-3.4413111209869385,-2.957381248474121,-0.3930632770061493
3998257721.0,-0.4146999716758728,-0.4296403229236603,9.893481254577637,-3.23286247253418,-2.952232837677002,-0.4309723079204559
3998266054.0,-0.3692938685417175,-0.16991026699543,10.007718086242676,-3.0857598781585693,-2.595707893371582,-0.3642984330654144
3998274387.0,-0.6353866457939148,-0.0316205695271492,9.77413272857666,-3.1767539978027344,-2.282945394515991,-0.3203572332859039
3998282720.0,-0.8510732650756836,-0.2236822098493576,9.690415382385254,-3.374240159988404,-2.683885335922241,-0.4194843769073486
3998291053.0,-0.6865050196647644,-0.3963486552238464,9.849835395812988,-3.4684107303619385,-3.0520002841949463,-0.3387610912322998
3998299386.0,-0.4638966023921966,-0.2713005840778351,9.977197647094728,-3.267108678817749,-2.7136363983154297,-0.3512608110904693
3998307719.0,-0.5271363854408264,-0.0946808829903602,9.86141586303711,-3.19057297706604,-2.560386180877685,-0.3338943421840668
3998316052.0,-0.6844601035118103,-0.21730637550354,9.724441528320312,-3.278071403503418,-2.783102035522461,-0.3811782598495483
3998324385.0,-0.5757281184196472,-0.432340532541275,9.784272193908691,-3.414877414703369,-3.179508209228516,-0.277466207742691
3998332718.0,-0.3591424524784088,-0.315667986869812,9.963004112243652,-3.253725290298462,-2.923173427581787,-0.3050655722618103
3998341051.0,-0.4284904599189758,-0.0815001651644706,9.89428997039795,-3.087463140487671,-2.3647830486297607,-0.3490451872348785
3998349384.0,-0.7451750040054321,-0.1720730066299438,9.731094360351562,-3.265174388885498,-2.270957946777344,-0.323635846376419
3998357717.0,-0.8670623898506165,-0.4760133922100067,9.696734428405762,-3.4123926162719727,-2.8115596771240234,-0.3301547169685364
3998366050.0,-0.6003210544586182,-0.4828789532184601,9.900115966796877,-3.1915721893310547,-3.210859775543213,-0.3239560425281524
3998374383.0,-0.4379127323627472,-0.1644770205020904,10.003168106079102,-3.0362343788146973,-2.771408796310425,-0.4151811301708221
3998382716.0,-0.5899243354797363,-0.0238905977457761,9.823314666748049,-3.1081464290618896,-2.494967222213745,-0.4536665081977844
3998391049.0,-0.6974025368690491,-0.2303556352853775,9.637250900268556,-3.369335174560547,-2.76637601852417,-0.3946001231670379
3998399382.0,-0.5260117053985596,-0.4747219383716583,9.841252326965332,-3.234860181808472,-3.041959762573242,-0.4202399253845215
3998407715.0,-0.3637969493865967,-0.3181647360324859,9.97271728515625,-3.112488269805908,-2.728684425354004,-0.2988156676292419
3998416048.0,-0.4879859089851379,-0.0562929287552833,9.863019943237305,-3.097080945968628,-2.344201803207397,-0.3631201684474945
3998424381.0,-0.7659563422203064,-0.1427290290594101,9.68146800994873,-3.265776395797729,-2.393509149551392,-0.4352754652500152
3998432714.0,-0.7443960905075073,-0.3680474162101745,9.768196105957031,-3.365569829940796,-2.9979543685913086,-0.3200370967388153
3998441047.0,-0.5021181702613831,-0.3353234529495239,9.973766326904297,-3.260922431945801,-3.0064966678619385,-0.4418711960315704
3998449380.0,-0.4745655357837677,-0.1408556401729583,9.96356964111328,-3.1589393615722656,-2.653468370437622,-0.3505948483943939
3998457713.0,-0.64185631275177,-0.1291906386613845,9.73786735534668,-3.316441535949707,-2.682361125946045,-0.4516942501068115
3998466046.0,-0.6365291476249695,-0.3530326187610626,9.76882266998291,-3.3909406661987305,-2.9786794185638428,-0.4071382582187652
3998474379.0,-0.398967832326889,-0.3824798464775085,9.912469863891602,-3.335127353668213,-3.0633344650268555,-0.3942543268203735
3998482712.0,-0.3578793704509735,-0.1372495889663696,10.00163459777832,-3.2005114555358887,-2.589816808700561,-0.3911677300930023
3998491045.0,-0.6460762023925781,-0.0650723502039909,9.816648483276367,-3.244234561920166,-2.0849857330322266,-0.3748002648353576
3998499378.0,-0.8715792894363403,-0.3212944567203522,9.691088676452637,-3.4176692962646484,-2.665891408920288,-0.4376832842826843
3998507711.0,-0.678497850894928,-0.5035558938980103,9.8392972946167,-3.306912899017334,-3.0468006134033203,-0.3213434219360351
3998516044.0,-0.4328837692737579,-0.3129914402961731,10.038477897644045,-3.138256072998047,-2.930473566055298,-0.4192282259464264
3998524377.0,-0.4756856560707092,-0.0085495896637439,9.934662818908691,-2.993022918701172,-2.4742321968078613,-0.4193305969238281
3998532710.0,-0.6938415169715881,-0.0864403024315834,9.634318351745604,-3.304249286651612,-2.512564420700073,-0.4707256555557251
3998541043.0,-0.6582129597663879,-0.4309556186199188,9.72000503540039,-3.46061110496521,-3.11118221282959,-0.4798315167427063
3998549376.0,-0.4221213757991791,-0.46567502617836,9.957686424255373,-3.2206573486328125,-3.0875399112701416,-0.3723029196262359
3998557709.0,-0.4152711629867553,-0.158555805683136,9.969155311584473,-3.084440231323242,-2.550332307815552,-0.2459478825330734
3998566042.0,-0.7379213571548462,-0.0558563768863678,9.762882232666016,-3.140061855316162,-2.3092386722564697,-0.3490067720413208
3998574375.0,-0.9058550596237184,-0.2585932612419128,9.663676261901855,-3.4875192642211914,-2.845959424972534,-0.3346884548664093
3998582708.0,-0.6550775170326233,-0.3982705771923065,9.830530166625977,-3.347639560699463,-3.151357650756836,-0.3862242400646209
3998591041.0,-0.4097674489021301,-0.2716716527938843,9.988786697387695,-3.258245944976806,-2.9026691913604736,-0.3849435746669769
3998599374.0,-0.54415363073349,-0.1288145631551742,9.873181343078612,-3.20022964477539,-2.4371817111968994,-0.4652441442012787
3998607707.0,-0.7545955181121826,-0.2290413826704025,9.671035766601562,-3.2098608016967773,-2.700316905975342,-0.4581490457057953
3998616040.0,-0.5914395451545715,-0.4320373237133026,9.778604507446287,-3.271962404251098,-3.205109119415283,-0.346227616071701
3998624373.0,-0.3166257739067077,-0.3287190198898315,9.97706127166748,-3.1406641006469727,-3.027372121810913,-0.3256337940692901
3998632706.0,-0.3999549746513366,-0.0523150153458118,9.97633171081543,-3.154264450073242,-2.295111894607544,-0.3754790127277374
3998641039.0,-0.7743488550186157,-0.1223239675164222,9.6963472366333,-3.2476155757904053,-2.2018887996673584,-0.3942670226097107
3998649372.0,-0.9084845185279846,-0.4857863187789917,9.711912155151367,-3.4304893016815186,-2.865515947341919,-0.4247865080833435
3998657705.0,-0.5842057466506958,-0.5035154223442078,9.899295806884766,-3.2757790088653564,-3.22800874710083,-0.3083953857421875
3998666038.0,-0.3819166123867035,-0.1508612185716629,9.985758781433104,-2.975925922393799,-2.755387306213379,-0.4049226343631744
3998674371.0,-0.5037481784820557,0.0509331189095974,9.856563568115234,-3.0553297996521,-2.482032060623169,-0.4438050091266632
3998682704.0,-0.7076053619384766,-0.1480500102043151,9.632911682128906,-3.3755338191986084,-2.6721668243408203,-0.4682666659355163
3998691037.0,-0.5784662961959839,-0.5038120746612549,9.761078834533691,-3.3449246883392334,-3.274639129638672,-0.4292561709880829
3998699370.0,-0.3317914605140686,-0.4133040010929107,9.938763618469238,-3.1789443492889404,-3.010249137878418,-0.320370078086853
3998707703.0,-0.3976581394672394,-0.0879928618669509,9.95097541809082,-3.107941150665283,-2.377064943313598,-0.3690114319324493
3998716036.0,-0.7269828915596008,-0.0219137892127037,9.750920295715332,-3.157120704650879,-2.256344795227051,-0.3224959969520569
3998724369.0,-0.8182975053787231,-0.2812367677688598,9.729108810424805,-3.408499240875244,-2.7581536769866943,-0.3451134264469147
3998732702.0,-0.5863574743270874,-0.3875915706157684,9.894426345825195,-3.3015596866607666,-3.095749616622925,-0.4240308701992035
3998741035.0,-0.4073900580406189,-0.2025916278362274,9.979229927062988,-3.2536098957061768,-2.85115909576416,-0.2282868772745132
3998749368.0,-0.5539664030075073,-0.1047333031892776,9.860152244567873,-3.13084077835083,-2.4044723510742188,-0.4238515198230743
3998757701.0,-0.7345948815345764,-0.2806331813335418,9.696080207824709,-3.3506112098693848,-2.7587687969207764,-0.3642728924751282
3998766034.0,-0.5217785239219666,-0.468259185552597,9.821175575256348,-3.3928234577178955,-3.202535390853882,-0.3530538380146026
3998774367.0,-0.2880794405937195,-0.2598902583122253,9.999691009521484,-3.108069658279419,-2.881588697433472,-0.2844076454639435
3998782700.0,-0.4370500147342682,-0.0359047874808311,9.920379638671877,-3.094749927520752,-2.25685715675354,-0.3372753858566284
3998791033.0,-0.8195620179176331,-0.1585116684436798,9.66588020324707,-3.2758171558380127,-2.1886978149414062,-0.4933941960334778
3998799366.0,-0.892490029335022,-0.5281434655189514,9.727309226989746,-3.304659128189087,-2.820063591003418,-0.5110936760902405
3998807699.0,-0.5494096279144287,-0.5535107851028442,9.926183700561523,-3.193877458572388,-3.3517892360687256,-0.2923224568367004
3998816032.0,-0.3625738024711609,-0.137164756655693,10.01734447479248,-2.9676010608673096,-2.785048484802246,-0.3808196187019348
3998824365.0,-0.5631803274154663,0.061381209641695,9.845849990844728,-2.970059871673584,-2.26408052444458,-0.4292561411857605
3998832698.0,-0.8026980757713318,-0.1688128858804702,9.605216026306152,-3.3305037021636963,-2.6218090057373047,-0.3068201243877411
3998841031.0,-0.6573935747146606,-0.5199697613716125,9.74933624267578,-3.5244548320770264,-3.321308135986328,-0.3832273483276367
3998849364.0,-0.3420521914958954,-0.4347950518131256,10.008233070373535,-3.1262047290802,-3.1139864921569824,-0.3808708786964416
3998857697.0,-0.4270875751972198,-0.0987085998058319,9.948681831359863,-3.026590585708618,-2.3127732276916504,-0.458251416683197
3998866030.0,-0.7999282479286194,-0.0599846504628658,9.713305473327637,-3.2195425033569336,-2.1126747131347656,-0.4160135686397552
3998874363.0,-0.9084368944168092,-0.312411367893219,9.674115180969238,-3.4107277393341064,-3.0107614994049072,-0.4041798710823059
3998882696.0,-0.6008099317550659,-0.4365673661231994,9.881220817565918,-3.3052098751068115,-3.27242374420166,-0.3807556629180908
3998891029.0,-0.3696617782115936,-0.2368947267532348,9.970643043518066,-3.1688268184661865,-2.929410457611084,-0.4546399116516113
3998899362.0,-0.5392364263534546,-0.0797583237290382,9.78902816772461,-3.108350992202759,-2.431315898895264,-0.3156057894229889
3998907695.0,-0.7517709136009216,-0.2345379590988159,9.654854774475098,-3.355195999145508,-2.733922481536865,-0.4006194472312927
3998916028.0,-0.6012730598449707,-0.493967741727829,9.818035125732422,-3.3414156436920166,-3.4003539085388184,-0.3966492414474487
3998924361.0,-0.314910739660263,-0.3201985955238342,9.968228340148926,-3.1406126022338867,-3.059441328048706,-0.3371858298778534
3998932694.0,-0.3987148106098175,-0.0162125080823898,9.910799980163574,-3.13724422454834,-2.3898468017578125,-0.4210595786571502
3998941027.0,-0.7490410208702087,-0.11597291380167,9.701340675354004,-3.292158842086792,-2.3369786739349365,-0.2160944938659668
3998949360.0,-0.8826261758804321,-0.4705200493335724,9.686927795410156,-3.490490198135376,-2.972365617752075,-0.3659889996051788
3998957693.0,-0.5373766422271729,-0.5574486255645752,9.94304370880127,-3.347921371459961,-3.2739474773406982,-0.3666037321090698
3998966026.0,-0.3002505302429199,-0.1738386750221252,10.044092178344728,-2.9457008838653564,-2.9330220222473145,-0.4337130188941955
3998974359.0,-0.4748991131782532,0.0784020945429802,9.840106964111328,-3.0318925380706787,-2.3426904678344727,-0.3782581686973572
3998982692.0,-0.7375145554542542,-0.11993008852005,9.61971378326416,-3.3345766067504883,-2.637894868850708,-0.4471349120140075
3998991025.0,-0.6194778680801392,-0.5231991410255432,9.785901069641112,-3.46724534034729,-3.1602587699890137,-0.4917164742946625
3998999358.0,-0.2877082228660583,-0.4719021022319793,10.02480125427246,-3.2292380332946777,-3.075322151184082,-0.3412840962409973
3999007691.0,-0.3367463648319244,-0.1014413610100746,9.978184700012209,-3.075437068939209,-2.3975815773010254,-0.4525907039642334
3999016024.0,-0.6992856860160828,0.0026819542981684,9.747167587280272,-3.2244350910186768,-1.9991014003753664,-0.4344302117824554
3999024357.0,-0.883095920085907,-0.2775694727897644,9.687807083129885,-3.549057483673096,-2.779349565505981,-0.438899964094162
3999032690.0,-0.6338353157043457,-0.4771676063537597,9.933085441589355,-3.29437518119812,-3.150576591491699,-0.3564476668834686
3999041023.0,-0.3737773299217224,-0.3022410273551941,10.041387557983398,-3.1448006629943848,-2.9578423500061035,-0.3288739919662475
3999049356.0,-0.4744328260421753,-0.1044895946979522,9.84198760986328,-3.151498317718506,-2.281023979187012,-0.3666933476924896
3999057689.0,-0.7269077897071838,-0.2101492881774902,9.64724063873291,-3.2414684295654297,-2.6028542518615723,-0.4287438690662384
3999066022.0,-0.6480709314346313,-0.4597913920879364,9.802093505859377,-3.285858154296875,-3.0224156379699707,-0.292578637599945
3999074355.0,-0.3557604551315307,-0.3797829449176788,10.024946212768556,-3.149616003036499,-3.044623374938965,-0.3120710849761963
3999082688.0,-0.4034237563610077,-0.0624985881149768,9.964529991149902,-3.124488115310669,-2.426833391189575,-0.3687809407711029
3999091021.0,-0.7368137836456299,-0.0874886512756347,9.663756370544434,-3.195913314819336,-2.1405303478240967,-0.4035522639751434
3999099354.0,-0.9476728439331056,-0.4264982938766479,9.683778762817385,-3.347050666809082,-2.895138502120972,-0.4424731433391571
3999107687.0,-0.6770492196083069,-0.5858269929885864,9.914320945739746,-3.206787109375,-3.3532235622406006,-0.2584860622882843
3999116020.0,-0.3889689147472381,-0.2283637970685959,10.055182456970217,-3.030036211013794,-2.874788284301758,-0.463233470916748
3999124353.0,-0.5067547559738159,0.0869703665375709,9.860658645629885,-3.0296003818511963,-2.3677029609680176,-0.3828815519809723
3999132686.0,-0.7914172410964966,-0.0447454191744327,9.608929634094238,-3.335601329803467,-2.509798288345337,-0.3613528311252594
3999141019.0,-0.7175307869911194,-0.4604264199733734,9.712569236755373,-3.5206639766693115,-3.121645450592041,-0.319294273853302
3999149352.0,-0.3798345923423767,-0.4990378022193908,10.000507354736328,-3.282028913497925,-3.1732194423675537,-0.4101607501506805
3999157685.0,-0.313768208026886,-0.1563239693641662,9.986268997192385,-2.992946147918701,-2.58501410484314,-0.3778611719608307
3999166018.0,-0.6459373831748962,0.0506191439926624,9.72040843963623,-2.936787366867065,-2.215311050415039,-0.4851208031177521
3999174351.0,-0.9275050759315492,-0.1312144845724105,9.58942413330078,-3.3218204975128174,-2.6132540702819824,-0.3889393806457519
3999182684.0,-0.7158532738685608,-0.439036101102829,9.868809700012209,-3.419116258621216,-3.264355182647705,-0.4483515918254852
3999191017.0,-0.3642475008964538,-0.3079178631305694,10.051630020141602,-3.283386468887329,-3.1693263053894043,-0.3689218461513519
3999199350.0,-0.402157187461853,-0.0998596101999282,9.90056037902832,-3.134784698486328,-2.528777599334717,-0.4411666989326477
3999207683.0,-0.6856884360313416,-0.1182875484228134,9.666492462158203,-3.3682336807250977,-2.4415106773376465,-0.5001564025878906
3999216016.0,-0.7080148458480835,-0.3711150288581848,9.735329627990724,-3.4839842319488525,-3.1020760536193848,-0.3995692729949951
3999224349.0,-0.4067830741405487,-0.4266676306724548,9.975034713745115,-3.216904640197754,-3.1693902015686035,-0.4541532099246979
3999232682.0,-0.2795807421207428,-0.1037913709878921,9.9976167678833,-3.1446211338043213,-2.618991136550904,-0.192068338394165
3999241015.0,-0.5620726346969604,-0.0650943517684936,9.786786079406738,-3.2329134941101074,-2.1025569438934326,-0.3897589743137359
3999249348.0,-0.857952356338501,-0.3321714699268341,9.668118476867676,-3.383166551589966,-2.503676176071167,-0.3536685705184936
3999257681.0,-0.7173888683319092,-0.6332049369812012,9.864219665527344,-3.4480221271514893,-3.2880353927612305,-0.3867878019809723
3999266014.0,-0.3605693280696869,-0.3910435438156128,10.06972599029541,-3.014577865600586,-3.079586744308472,-0.4245687127113342
3999274347.0,-0.3556127846240997,0.0065054930746555,9.974435806274414,-2.9532058238983154,-2.479137659072876,-0.4047433137893677
3999282680.0,-0.6996327638626099,0.0443896614015102,9.62064266204834,-3.1468238830566406,-2.26077651977539,-0.4001583456993103
3999291013.0,-0.7849165797233582,-0.3707499504089355,9.639296531677246,-3.5154900550842285,-2.8458826541900635,-0.3222399055957794
3999299346.0,-0.5156266689300537,-0.5899303555488586,9.921171188354492,-3.3739452362060547,-3.2649569511413574,-0.352182924747467
3999307679.0,-0.2878622710704803,-0.2935930788516998,10.020394325256348,-3.060529947280884,-2.9128894805908203,-0.4117616713047027
3999316012.0,-0.4957649409770965,-0.0096465069800615,9.852072715759276,-3.014859437942505,-2.1420798301696777,-0.3984422087669372
3999324345.0,-0.8520880341529846,-0.0813404694199562,9.62529468536377,-3.170978307723999,-2.3295247554779053,-0.44280606508255
3999332678.0,-0.860376238822937,-0.3963759243488312,9.738332748413086,-3.4410295486450195,-2.9760541915893555,-0.3596366643905639
3999341011.0,-0.5090410709381104,-0.4530774652957916,9.956130027770996,-3.3552727699279785,-3.209425210952759,-0.2964207231998443
3999349344.0,-0.3761231601238251,-0.1565917134284973,9.93982219696045,-3.1617186069488525,-2.710216522216797,-0.3904377520084381
3999357677.0,-0.5976701974868774,-0.0826575383543968,9.725914001464844,-3.2545955181121826,-2.336402177810669,-0.4248120784759521
3999366010.0,-0.7827024459838867,-0.2871566116809845,9.629719734191896,-3.4315900802612305,-2.575383186340332,-0.3996333181858063
3999374343.0,-0.611119270324707,-0.4885833263397217,9.825746536254885,-3.3925671577453613,-3.1988978385925293,-0.4270021319389343
3999382676.0,-0.342412918806076,-0.2626054883003235,9.959637641906738,-3.119596242904663,-2.8463690280914307,-0.3653230369091034
3999391009.0,-0.4513844549655914,-0.0248721651732921,9.864752769470217,-3.0963122844696045,-2.3638734817504883,-0.3243914246559143
3999399342.0,-0.8080822825431824,-0.1461229771375656,9.69372272491455,-3.300778150558472,-2.312094449996948,-0.4081116020679474
3999407675.0,-0.8668084144592285,-0.5024601817131042,9.78799533843994,-3.2758944034576416,-2.9341495037078857,-0.4902436733245849
3999416008.0,-0.5510559678077698,-0.5387999415397644,9.914227485656738,-3.2143943309783936,-3.2825284004211426,-0.417857825756073
3999424341.0,-0.3572482168674469,-0.1304434239864349,9.955949783325195,-3.102844715118408,-2.894370079040528,-0.4085854589939117
3999432674.0,-0.5160475969314575,0.0732735022902488,9.776753425598145,-3.028947114944458,-2.29855751991272,-0.4434208273887634
3999441007.0,-0.7737930417060852,-0.1411510109901428,9.646198272705078,-3.3503293991088867,-2.5174310207366943,-0.3845337033271789
3999449340.0,-0.6580364108085632,-0.5582568645477295,9.835030555725098,-3.4314754009246826,-3.2057368755340576,-0.4149121940135956
3999457673.0,-0.3245725929737091,-0.4965245425701141,9.991125106811523,-3.20509672164917,-3.1697745323181152,-0.4376064240932464
3999466006.0,-0.3274520337581634,-0.098420925438404,9.944764137268066,-2.93186902999878,-2.50995135307312,-0.3769005835056305
3999474339.0,-0.6474100351333618,0.0308807045221328,9.760724067687988,-3.1231558322906494,-2.1770687103271484,-0.4645012617111206
3999482672.0,-0.878865659236908,-0.2021518945693969,9.674663543701172,-3.4730212688446045,-2.7645058631896973,-0.392499715089798
3999491005.0,-0.6870613694190979,-0.4908345639705658,9.910245895385742,-3.3872907161712646,-3.192110061645508,-0.4729540646076202
3999499338.0,-0.3652650415897369,-0.3380834758281708,9.941473960876465,-3.2133443355560303,-3.026821613311768,-0.4184469580650329
3999507671.0,-0.3978935778141022,-0.0900329202413559,9.89704704284668,-3.058992862701416,-2.616839647293091,-0.5203403830528259
3999516004.0,-0.6693142652511597,-0.1079382970929145,9.717884063720703,-3.28096604347229,-2.2850584983825684,-0.4870162308216095
3999524337.0,-0.7415691614151001,-0.3635382950305938,9.786161422729492,-3.345219373703003,-2.82015323638916,-0.3673337697982788
3999532670.0,-0.4879935383796692,-0.4339891374111175,9.917969703674316,-3.3551831245422363,-3.210437297821045,-0.317334771156311
3999541003.0,-0.3265063464641571,-0.106272354722023,9.897014617919922,-3.1530356407165527,-2.847278594970703,-0.4427420794963836
3999549336.0,-0.5169326066970825,-0.0328171476721763,9.815500259399414,-3.256350517272949,-2.241873025894165,-0.417294293642044
3999557669.0,-0.8259026408195496,-0.2591440379619598,9.733067512512209,-3.3226397037506104,-2.3354415893554688,-0.3510046005249023
3999566002.0,-0.7941972017288208,-0.5547522902488708,9.872965812683104,-3.3019185066223145,-3.030689239501953,-0.3309231400489807
3999574335.0,-0.4886981248855591,-0.4184629321098327,9.91257095336914,-3.092777967453003,-3.115933418273926,-0.3815368413925171
3999582668.0,-0.3900010883808136,-0.0004060680512338,9.845514297485352,-3.112372636795044,-2.768322467803955,-0.3529513478279114
3999591001.0,-0.5711986422538757,0.0585315488278865,9.740715980529783,-3.2522008419036865,-2.353013277053833,-0.3997997343540191
3999599334.0,-0.749215304851532,-0.2531774342060089,9.722824096679688,-3.533970594406128,-2.7025325298309326,-0.3636709153652191
3999607667.0,-0.583264946937561,-0.5737941861152649,9.875651359558104,-3.475288391113281,-3.0905113220214844,-0.2912850975990295
3999616000.0,-0.370998203754425,-0.3731661438941955,9.897369384765623,-3.100449800491333,-2.871304750442505,-0.479114294052124
3999624333.0,-0.4553279280662536,-0.0568783693015575,9.839338302612305,-3.128535270690918,-2.4966065883636475,-0.4078426361083984
3999632666.0,-0.7611343860626221,-0.0218748375773429,9.74553680419922,-3.2423391342163086,-2.343945503234864,-0.3995179533958435
3999640999.0,-0.8461254835128784,-0.3385116457939148,9.8330078125,-3.523123025894165,-2.811072826385498,-0.4151683449745178
3999649332.0,-0.6015005707740784,-0.5139444470405579,9.94142723083496,-3.3820395469665527,-3.027333498001098,-0.3997997939586639
3999657665.0,-0.430123507976532,-0.2330125868320465,9.847455024719238,-3.1407277584075928,-2.893268823623657,-0.3170914351940155
3999665998.0,-0.5407264232635498,-0.0799795687198638,9.76123046875,-3.1987950801849365,-2.557337999343872,-0.4618374407291412
3999674331.0,-0.6657665967941284,-0.2315832674503326,9.767566680908203,-3.2369604110717773,-2.684436082839966,-0.3603538870811462
3999682664.0,-0.6235973238945007,-0.4897079765796661,9.88754940032959,-3.310563087463379,-3.06955885887146,-0.3317043483257293
3999690997.0,-0.3943785429000854,-0.3699488043785095,9.908547401428224,-3.1786112785339355,-2.941525936126709,-0.4123764038085937
3999699330.0,-0.4138292670249939,-0.0397177226841449,9.79845905303955,-3.0675480365753174,-2.5490646362304688,-0.3640423119068146
3999707663.0,-0.6793369650840759,-0.0828899219632148,9.766345977783203,-3.2317094802856445,-2.463308095932007,-0.3783606588840484
3999715996.0,-0.8282904028892517,-0.4328468143939972,9.803759574890137,-3.4145700931549072,-2.8473682403564453,-0.3766189217567444
3999724329.0,-0.6319822072982788,-0.6341841816902161,9.9459228515625,-3.1951839923858643,-3.233195304870605,-0.3521061241626739
3999732662.0,-0.4034588038921356,-0.2469480186700821,9.934309005737305,-2.956561326980591,-2.90315580368042,-0.3392220735549927
3999740995.0,-0.514091968536377,0.1459412425756454,9.75718879699707,-2.9690349102020264,-2.5127174854278564,-0.422058492898941
3999749328.0,-0.7127974033355713,0.0078273126855492,9.679605484008787,-3.380873918533325,-2.696922779083252,-0.4141565859317779
3999757661.0,-0.6301587224006653,-0.5197770595550537,9.880928993225098,-3.570996046066284,-3.0961334705352783,-0.3677563965320587
3999765994.0,-0.3448561429977417,-0.6234128475189209,10.04331874847412,-3.21150016784668,-3.006663084030152,-0.3166559636592865
3999774327.0,-0.3668362200260162,-0.1607804149389267,9.93250560760498,-2.8937039375305176,-2.509592771530152,-0.3980836272239685
3999782660.0,-0.6676527857780457,0.0789266377687454,9.70449924468994,-3.135733127593994,-2.2494547367095947,-0.3852508664131164
3999790993.0,-0.823587954044342,-0.1423554271459579,9.70956325531006,-3.504578113555908,-2.6919920444488525,-0.4023100137710571
3999799326.0,-0.6436276435852051,-0.4847639799118042,9.91901683807373,-3.440568208694458,-3.312471389770508,-0.373135358095169
3999807659.0,-0.3803783059120178,-0.391171932220459,10.019065856933594,-3.173949956893921,-2.921905755996704,-0.2434761524200439
3999815992.0,-0.519196629524231,-0.0648479759693145,9.773334503173828,-3.111732482910156,-2.3886427879333496,-0.3492116332054138
3999824325.0,-0.7497734427452087,-0.1239118576049804,9.648834228515623,-3.2479872703552246,-2.532043695449829,-0.5260394811630249
3999832658.0,-0.6723378896713257,-0.4482442438602447,9.799854278564451,-3.3851003646850586,-3.096632719039917,-0.3670263588428497
3999840991.0,-0.344036191701889,-0.4852012395858764,10.020594596862791,-3.2310054302215576,-3.1622567176818848,-0.335367202758789
3999849324.0,-0.2942514419555664,-0.0771291702985763,9.94660472869873,-3.0475428104400635,-2.522835254669189,-0.3840982019901275
3999857657.0,-0.6589307188987732,0.0431912243366241,9.679362297058104,-3.2037384510040283,-2.1323978900909424,-0.3408357799053192
3999865990.0,-0.8827603459358215,-0.3156288564205169,9.632704734802246,-3.4312191009521484,-2.7166588306427,-0.3897846639156341
3999874323.0,-0.6654583215713501,-0.65631502866745,9.932865142822266,-3.287062168121338,-3.326712846755981,-0.2932958304882049
3999882656.0,-0.3790023624897003,-0.3681469857692718,10.127060890197754,-2.9256703853607178,-2.8501341342926025,-0.3236998915672302
3999890989.0,-0.5142465829849243,0.1171933263540268,9.854641914367676,-2.9412569999694824,-2.396903276443481,-0.289671391248703
3999899322.0,-0.823798656463623,0.0237037725746631,9.570168495178224,-3.327391624450684,-2.487423896789551,-0.4516045451164245
3999907655.0,-0.7312808632850647,-0.3617124855518341,9.691122055053713,-3.535123348236084,-3.261716842651367,-0.3673849999904632
3999915988.0,-0.4124417304992676,-0.5029928684234619,9.98291301727295,-3.450980424880981,-3.375905036926269,-0.4478393495082855
3999924321.0,-0.2190531194210052,-0.2328850626945495,10.091146469116213,-2.972595930099488,-2.7693982124328613,-0.4647831320762634
3999932654.0,-0.5429473519325256,0.0099028442054986,9.758904457092283,-3.1087355613708496,-2.0839099884033203,-0.4131447672843933
3999940987.0,-0.8649010062217712,-0.1356592327356338,9.57640552520752,-3.4274027347564697,-2.461489677429199,-0.2817693948745727
3999949320.0,-0.7316166162490845,-0.4667851626873016,9.844452857971191,-3.543614387512207,-3.0977728366851807,-0.2999298870563507
3999957653.0,-0.4262197911739349,-0.3305914998054504,10.079593658447266,-3.2346296310424805,-3.00423002243042,-0.460018903017044
3999965986.0,-0.5021535158157349,-0.1149285659193992,9.940361976623535,-3.0850679874420166,-2.504521369934082,-0.4095588028430938
3999974319.0,-0.7725934386253357,-0.1691881269216537,9.587814331054688,-3.250945806503296,-2.5008585453033447,-0.441576600074768
3999982652.0,-0.6682212948799133,-0.4440206289291382,9.713825225830078,-3.4409525394439697,-3.1240015029907227,-0.5004637837409973
3999990985.0,-0.3433750867843628,-0.373573750257492,10.009435653686523,-3.2363204956054688,-3.1743085384368896,-0.4622472524642944
3999999318.0,-0.3361910879611969,-0.1112463027238845,10.027153968811035,-2.990192651748657,-2.4639997482299805,-0.4311003684997558
4000007651.0,-0.6854948997497559,-0.1302424520254135,9.677785873413086,-3.196080207824707,-2.1689748764038086,-0.3140177130699157
4000015984.0,-0.8988106846809387,-0.4176802635192871,9.582113265991213,-3.4231505393981934,-2.685204267501831,-0.4019257724285126
4000024317.0,-0.6029688715934753,-0.5101890563964844,9.937089920043944,-3.261435031890869,-3.288970232009888,-0.4609281718730926
4000032650.0,-0.3825075030326843,-0.2116906344890594,10.142043113708496,-3.0115551948547363,-2.8726491928100586,-0.4480057656764984
4000040983.0,-0.5351610779762268,-0.0262386631220579,9.852463722229004,-2.9673190116882324,-2.463231086730957,-0.4365561306476593
4000049316.0,-0.7214335799217224,-0.1716240495443344,9.500433921813965,-3.3180041313171387,-2.665660858154297,-0.4543581306934356
4000057649.0,-0.5858854055404663,-0.441480427980423,9.71169662475586,-3.4297332763671875,-3.11132287979126,-0.381818562746048
4000065982.0,-0.3434576690196991,-0.3745445609092712,10.088600158691406,-3.193519115447998,-2.9096875190734863,-0.4401934742927551
4000074315.0,-0.4539031088352203,-0.1499374657869339,10.060868263244627,-3.061630964279175,-2.346737861633301,-0.3302570879459381
4000082648.0,-0.7561677694320679,-0.1433419585227966,9.63613224029541,-3.079253673553467,-2.3352882862091064,-0.4443429112434387
4000090981.0,-0.7928899526596069,-0.2735860645771026,9.641304969787598,-3.3159289360046387,-2.866783618927002,-0.3741087317466736
4000099314.0,-0.5458866953849792,-0.2840140163898468,9.935070037841797,-3.362035036087036,-3.069648742675781,-0.3209079504013061
4000107647.0,-0.4654072225093841,-0.2235886454582214,10.044617652893066,-3.268696546554565,-2.7389943599700928,-0.358279138803482
4000115980.0,-0.5903640985488892,-0.226073682308197,9.762502670288086,-3.170722007751465,-2.550524473190308,-0.3448060154914856
4000124313.0,-0.5845320820808411,-0.359950304031372,9.643699645996094,-3.321948528289795,-2.9295642375946045,-0.4291536808013916
4000132646.0,-0.4144996106624603,-0.311867892742157,9.859756469726562,-3.271860122680664,-3.0821099281311035,-0.3239432573318481
4000140979.0,-0.3865435719490051,-0.1630114912986755,10.032180786132812,-3.187025308609009,-2.424002885818481,-0.3377236425876617
4000149312.0,-0.6424001455307007,-0.1264533698558807,9.828843116760254,-3.1410350799560547,-2.235213041305542,-0.3458817601203918
4000157645.0,-0.8213990330696106,-0.3466708064079284,9.663288116455078,-3.414057731628418,-2.731745481491089,-0.3858400285243988
4000165978.0,-0.6524707674980164,-0.4393433034420013,9.770059585571287,-3.22991681098938,-2.9566643238067627,-0.4940345883369446
4000174311.0,-0.5234382152557373,-0.258031815290451,9.979106903076172,-3.0957746505737305,-2.779823303222656,-0.397417664527893
4000182644.0,-0.5964877009391785,-0.0656770169734954,9.894606590270996,-3.1307127475738525,-2.63871431350708,-0.410557746887207
4000190977.0,-0.660293698310852,-0.1770415604114532,9.733613967895508,-3.340135097503662,-2.9056406021118164,-0.392755925655365
4000199310.0,-0.5078460574150085,-0.3517731726169586,9.785059928894045,-3.255070209503174,-3.118494749069214,-0.423954039812088
4000207643.0,-0.3892551362514496,-0.2812490165233612,9.932312965393066,-3.190317392349243,-2.685588836669922,-0.3977250754833221
4000215976.0,-0.5519922971725464,-0.1260808706283569,9.908445358276367,-3.1889336109161377,-2.3080854415893555,-0.3681918084621429
4000224309.0,-0.7085391283035278,-0.1809147894382476,9.788472175598145,-3.353210926055908,-2.618415355682373,-0.3904890120029449
4000232642.0,-0.6865478157997131,-0.3652244508266449,9.811257362365724,-3.3398661613464355,-2.946866512298584,-0.3399265110492706
4000240975.0,-0.5503783226013184,-0.2880080640316009,9.879581451416016,-3.12251615524292,-2.834484338760376,-0.3700104653835296
4000249308.0,-0.6144786477088928,-0.0848374515771865,9.840588569641112,-3.232990503311157,-2.5425586700439453,-0.405486136674881
4000257641.0,-0.6664591431617737,-0.1644358783960342,9.786748886108398,-3.2996647357940674,-2.757026672363281,-0.4313821494579315
4000265974.0,-0.5892574787139893,-0.4056145548820495,9.842647552490234,-3.310319662094116,-3.049823045730591,-0.4640403389930725
4000274307.0,-0.3833145797252655,-0.3795197904109955,9.897494316101074,-3.230787515640259,-3.108325958251953,-0.4776926636695862
4000282640.0,-0.3920612633228302,-0.1077036038041114,9.890931129455566,-3.0539209842681885,-2.4977335929870605,-0.4335337281227112
4000290973.0,-0.6578457355499268,-0.1145248860120773,9.770956039428713,-3.31564736366272,-2.377833366394043,-0.3897077739238739
4000299306.0,-0.8040319681167603,-0.3926479816436767,9.762938499450684,-3.3948464393615723,-2.7730355262756348,-0.3839702010154724
4000307639.0,-0.6339001655578613,-0.4623542428016662,9.853090286254885,-3.26365065574646,-3.0614776611328125,-0.3678588271141052
4000315972.0,-0.4558685421943664,-0.1503299474716186,9.90506076812744,-3.0328023433685303,-2.928552389144897,-0.4871571660041809
4000324305.0,-0.5702287554740906,-0.039477951824665,9.852704048156738,-3.149321317672729,-2.5902137756347656,-0.4784995317459106
4000332638.0,-0.6822824478149414,-0.2998357117176056,9.759845733642578,-3.366760969161988,-2.7024810314178467,-0.3156954944133758
4000340971.0,-0.5271996855735779,-0.4925915896892547,9.85411548614502,-3.286972761154175,-3.076167106628418,-0.4258110821247101
4000349304.0,-0.344640851020813,-0.2637202739715576,9.920562744140623,-3.122439384460449,-2.893576145172119,-0.4239027500152588
4000357637.0,-0.4934347569942474,-0.0365172140300273,9.827970504760742,-3.073439121246338,-2.3513739109039307,-0.4016183912754059
4000365970.0,-0.766502320766449,-0.1945384740829467,9.72438144683838,-3.405758142471313,-2.4276278018951416,-0.4141694009304046
4000374303.0,-0.7307464480400085,-0.4060662984848022,9.807178497314451,-3.27691912651062,-3.016832113265991,-0.3481358885765075
4000382636.0,-0.4958231449127197,-0.3226327300071716,9.937592506408691,-3.2880098819732666,-2.950900793075561,-0.3411176204681396
4000390969.0,-0.5051462650299072,-0.130572572350502,9.882879257202148,-3.2626256942749023,-2.500499725341797,-0.3230595290660858
4000399302.0,-0.6883349418640137,-0.2537883222103119,9.672978401184082,-3.23801064491272,-2.5364108085632324,-0.4303575456142425
4000407635.0,-0.6254337430000305,-0.3741238713264465,9.766493797302246,-3.344835042953491,-3.0786774158477783,-0.4028094708919525
4000415968.0,-0.3422792553901672,-0.2897168695926666,9.994664192199709,-3.2556848526000977,-3.1413938999176025,-0.4290768802165985
4000424301.0,-0.3661993443965912,-0.1011866331100463,9.94944953918457,-3.1595160961151123,-2.416754484176636,-0.3403619527816772
4000432634.0,-0.6598531007766724,-0.1937953233718872,9.705291748046877,-3.2862677574157715,-2.1915924549102783,-0.3088692426681518
4000440967.0,-0.7901009917259216,-0.4246502816677093,9.67470645904541,-3.4528887271881104,-2.701674461364746,-0.4049483239650726
4000449300.0,-0.5924369096755981,-0.3984273076057434,9.933703422546388,-3.340493679046631,-2.965808391571045,-0.4837120175361633
4000457633.0,-0.5257521271705627,-0.1602239161729812,9.997735977172852,-3.0190861225128174,-2.7369706630706787,-0.4560230374336242
4000465966.0,-0.6245641708374023,-0.0819348096847534,9.79392910003662,-3.162986516952514,-2.527010679244995,-0.332459956407547
4000474299.0,-0.6654506325721741,-0.2869247794151306,9.69127082824707,-3.299484968185425,-2.870574712753296,-0.3948562741279602
4000482632.0,-0.4746513366699219,-0.4182422757148742,9.8612642288208,-3.2918646335601807,-3.2131266593933105,-0.3764780163764953
4000490965.0,-0.379244863986969,-0.2761173248291015,9.97697639465332,-3.1140501499176025,-2.632528305053711,-0.418997585773468
4000499298.0,-0.54636549949646,-0.1243136748671531,9.839995384216309,-3.165099620819092,-2.4233882427215576,-0.4228653907775879
4000507631.0,-0.7312573194503784,-0.2245223075151443,9.751791954040527,-3.39255428314209,-2.614393949508667,-0.3660787045955658
4000515964.0,-0.6727969646453857,-0.3290971219539642,9.853583335876465,-3.3023793697357178,-2.9075870513916016,-0.3264662325382232
4000524297.0,-0.5320560932159424,-0.2219462841749191,9.931288719177246,-3.22292423248291,-2.813992738723755,-0.3785399794578552
4000532630.0,-0.6003601551055908,-0.167821392416954,9.879469871520996,-3.2456178665161133,-2.526574850082397,-0.3961881697177887
4000540963.0,-0.7211450934410095,-0.2761049568653106,9.747791290283203,-3.256760597229004,-2.8282599449157715,-0.4950847625732422
4000549296.0,-0.5527880787849426,-0.3801369965076446,9.779386520385742,-3.312701940536499,-3.240162372589112,-0.347136914730072
4000557629.0,-0.3440550565719604,-0.2366767525672912,9.87977409362793,-3.2602698802948,-2.944497346878052,-0.2964975833892822
4000565962.0,-0.4147406220436096,-0.1072268113493919,9.941356658935549,-3.2153804302215576,-2.33729887008667,-0.3321397602558136
4000574295.0,-0.7065610885620117,-0.2451953440904617,9.75212287902832,-3.264892816543579,-2.3492350578308105,-0.4507336914539337
4000582628.0,-0.7701737284660339,-0.4538531601428985,9.749608993530272,-3.239701509475708,-2.8453447818756104,-0.4916268289089203
4000590961.0,-0.5572373867034912,-0.3333196341991424,9.879958152770996,-3.134093761444092,-3.0758981704711914,-0.416653960943222
4000599294.0,-0.5271375775337219,-0.1241806074976921,9.957038879394531,-3.1073267459869385,-2.6144320964813232,-0.3515169322490692
4000607627.0,-0.6778971552848816,-0.1076380163431167,9.795123100280762,-3.116765260696411,-2.5795321464538574,-0.499810516834259
4000615960.0,-0.6049242615699768,-0.3717727959156036,9.731977462768556,-3.333282947540283,-3.032443761825561,-0.3033750355243683
4000624293.0,-0.3908244371414184,-0.4220989942550659,9.887592315673828,-3.213075399398804,-3.1022427082061768,-0.3477388620376587
4000632626.0,-0.4051290452480316,-0.1723894327878952,9.90727710723877,-3.0853753089904785,-2.563408374786377,-0.3234181404113769
4000640959.0,-0.6318086981773376,-0.0779660791158676,9.731111526489258,-3.243645668029785,-2.52424430847168,-0.3615064918994903
4000649292.0,-0.7202785611152649,-0.2712053954601288,9.751163482666016,-3.4029664993286133,-2.8127377033233643,-0.4046408832073211
4000657625.0,-0.5974248647689819,-0.3746489584445953,9.906347274780272,-3.296846866607666,-2.962836980819702,-0.4040005505084991
4000665958.0,-0.5511872172355652,-0.2191708832979202,9.972715377807615,-3.1765620708465576,-2.6833600997924805,-0.2660678625106811
4000674291.0,-0.6579501628875732,-0.1074561029672622,9.754018783569336,-3.107698440551758,-2.5267159938812256,-0.3396703898906708
4000682624.0,-0.741329550743103,-0.327487587928772,9.684854507446287,-3.3943090438842773,-2.817373991012573,-0.4586101174354553
4000690957.0,-0.5243460536003113,-0.4243574440479278,9.8812837600708,-3.292325735092163,-3.095505952835083,-0.3275292515754699
4000699290.0,-0.2820215225219726,-0.1969015598297119,9.96257209777832,-3.195709228515625,-2.9065754413604736,-0.4069846272468567
4000707623.0,-0.4080284833908081,-0.0625228583812713,9.842498779296877,-3.267441272735596,-2.3666656017303467,-0.3059492409229278
4000715956.0,-0.6962658762931824,-0.2805313169956207,9.700254440307615,-3.374713659286499,-2.3031935691833496,-0.4169356822967529
4000724289.0,-0.748002827167511,-0.5324453115463257,9.8040771484375,-3.2401368618011475,-2.9771554470062256,-0.4116336107254028
4000732622.0,-0.50466388463974,-0.2989431321620941,9.952448844909668,-3.134273052215576,-3.109222412109375,-0.4020026326179504
4000740955.0,-0.502476692199707,-0.0792090594768524,9.948073387145996,-3.1058027744293213,-2.509016752243042,-0.492920309305191
4000749288.0,-0.7628064155578613,-0.1426410973072052,9.732521057128906,-3.194453477859497,-2.428767204284668,-0.5678420066833496
4000757621.0,-0.6635655760765076,-0.3672942221164703,9.717188835144045,-3.3786582946777344,-2.938093662261963,-0.3944464027881622
4000765954.0,-0.3778690993785858,-0.3854463100433349,9.90276336669922,-3.242595672607422,-3.125820636749268,-0.34380704164505
4000774287.0,-0.3802229464054107,-0.1816161721944809,9.941346168518066,-3.061784505844116,-2.4694299697875977,-0.3666549623012543
4000782620.0,-0.6610416173934937,-0.1430386751890182,9.71486759185791,-3.1159846782684326,-2.381317138671875,-0.3154777288436889
4000790953.0,-0.7328469157218933,-0.3259468972682953,9.68601894378662,-3.310678243637085,-2.93468713760376,-0.3976738154888153
4000799286.0,-0.5612850189208984,-0.3413503170013428,9.947949409484863,-3.322640180587769,-3.133683919906616,-0.458020955324173
4000807619.0,-0.5534411668777466,-0.1791944801807403,9.96851634979248,-3.2003321647644043,-2.648345232009888,-0.3838933408260345
4000815952.0,-0.6999266743659973,-0.1571554392576217,9.75492000579834,-3.104022264480591,-2.635870933532715,-0.3561274409294128
4000824285.0,-0.6861917972564697,-0.3566828668117523,9.698115348815918,-3.4465878009796143,-2.9096620082855225,-0.3645033836364746
4000832618.0,-0.4771690368652344,-0.39890056848526,9.874817848205566,-3.179892301559448,-3.082711696624756,-0.4036931991577148
4000840951.0,-0.3549267053604126,-0.1758889108896255,9.970497131347656,-3.0543053150177,-2.74898362159729,-0.3459843099117279
4000849284.0,-0.5263537764549255,-0.1173153147101402,9.843507766723633,-3.163934230804444,-2.5511906147003174,-0.3919874429702759
4000857617.0,-0.7172592878341675,-0.3359185755252838,9.755712509155272,-3.311062812805176,-2.5402281284332275,-0.3670392036437988
4000865950.0,-0.7321599721908569,-0.4358175694942474,9.808197021484377,-3.27307677268982,-2.952924489974976,-0.3861730694770813
4000874283.0,-0.557340145111084,-0.213998332619667,9.90825366973877,-3.178367853164673,-3.0032691955566406,-0.3664628267288208
4000882616.0,-0.5609079003334045,-0.0833714827895164,9.907476425170898,-3.172118186950684,-2.6425435543060303,-0.3381335437297821
4000890949.0,-0.6892238259315491,-0.2205094844102859,9.759469985961914,-3.3620736598968506,-2.654736280441284,-0.4018361568450928
4000899282.0,-0.557245671749115,-0.3988122940063476,9.775900840759276,-3.203892469406128,-3.116394519805908,-0.2602534592151642
4000907615.0,-0.3181644082069397,-0.3138278722763061,9.897011756896973,-3.16892957687378,-2.8431930541992188,-0.3382488191127777
4000915948.0,-0.431738406419754,-0.1297059059143066,9.895718574523926,-3.151408672332764,-2.251478433609009,-0.3225472271442413
4000924281.0,-0.7235163450241089,-0.1324412673711776,9.72120475769043,-3.2746644020080566,-2.434671401977539,-0.3365838229656219
4000932614.0,-0.6982300281524658,-0.3257279396057129,9.77780532836914,-3.2868573665618896,-2.90802264213562,-0.3326649069786072
4000940947.0,-0.5211254954338074,-0.3277902007102966,9.967795372009276,-3.3476908206939697,-2.754977464675904,-0.3867877721786499
4000949280.0,-0.6106966733932495,-0.1334609538316726,9.890284538269045,-3.185399055480957,-2.5802881717681885,-0.4247736632823944
4000957613.0,-0.741276741027832,-0.1241124495863914,9.698369979858398,-3.241698741912842,-2.6198620796203613,-0.3413993120193481
4000965946.0,-0.6460514068603516,-0.3784351944923401,9.73891544342041,-3.4607138633728027,-3.144531726837158,-0.2495082765817642
4000974279.0,-0.4035555422306061,-0.3593023419380188,9.950793266296388,-3.336228847503662,-3.016178846359253,-0.389592558145523
