SampleTimeFine,Acc_X,Acc_Y,Acc_Z,Gyr_X,Gyr_Y,Gyr_Z
4199246849.0,0.0,0.0,0.0,0.0,0.0,0.0
4199255182.0,-0.6516597867012024,0.3560041487216949,9.561713218688965,-1.2364503145217896,-1.0378375053405762,0.2431943565607071
4199263515.0,-0.3010305166244507,0.0944461822509765,9.660768508911133,-1.3075811862945557,-1.4182345867156982,0.2201671749353408
4199271848.0,-0.0787957161664962,0.1820970773696899,9.792027473449709,-1.0061527490615845,-1.0277198553085327,0.1525455862283706
4199280181.0,-0.4505435228347778,0.4100938439369201,9.709604263305664,-0.9748008847236632,-0.2664648592472076,0.3672440648078918
4199288514.0,-0.7984001636505127,0.3049473166465759,9.549647331237791,-1.1134763956069946,-0.5502193570137024,0.2042351067066192
4199296847.0,-0.6445106863975525,-0.0497778840363025,9.586546897888184,-1.2905219793319702,-1.264728307723999,0.2522873878479004
4199305180.0,-0.2620944082736969,0.0230322908610105,9.737652778625488,-0.9182189702987672,-1.2363989353179932,0.2978807091712951
4199313513.0,-0.2374171614646911,0.4469024837017059,9.805810928344728,-0.7160459756851196,-0.6850783824920654,0.2356125563383102
4199321846.0,-0.5541307330131531,0.533194363117218,9.601253509521484,-1.1228512525558472,-0.6344133019447327,0.1464237719774246
4199330179.0,-0.5302219986915588,0.1119975745677948,9.52092170715332,-1.276280403137207,-1.2196474075317385,0.1844096779823303
4199338512.0,-0.2359483540058136,-0.1547241657972335,9.640945434570312,-1.2362453937530518,-1.2701330184936523,0.2482403516769409
4199346845.0,-0.1884775310754776,0.1451525539159774,9.80325698852539,-0.8344092965126038,-0.7152774333953857,0.1937844902276992
4199355178.0,-0.5615196228027344,0.5128015875816345,9.706107139587402,-0.6653296947479248,-0.3720723688602447,0.3084850311279297
4199363511.0,-0.7659835815429688,0.3845583796501159,9.608757972717283,-1.1053311824798584,-0.8412482738494873,0.1960641592741012
4199371844.0,-0.4801871478557586,0.0025336989201605,9.655110359191896,-1.1983107328414917,-1.4131628274917605,0.2167604565620422
4199380177.0,-0.2205865234136581,0.0327957831323146,9.714776992797852,-0.8913753628730774,-1.042858004570007,0.2945252954959869
4199388510.0,-0.3908025622367859,0.3157910704612732,9.653928756713867,-0.8566424250602722,-0.6599507331848145,0.3134798109531402
4199396843.0,-0.59193354845047,0.3594232201576233,9.552607536315918,-0.9193716645240784,-0.8926816582679749,0.2906319200992584
4199405176.0,-0.3692879676818847,0.1057024970650672,9.626803398132324,-1.1514623165130615,-1.3980506658554075,0.1898142844438552
4199413509.0,-0.1220704168081283,0.0456065274775028,9.710943222045898,-0.919166624546051,-1.30171537399292,0.2295419573783874
4199421842.0,-0.2824442982673645,0.3357043862342834,9.731836318969728,-0.7922482490539551,-0.5236573815345764,0.1993940025568008
4199430175.0,-0.6766946911811829,0.3807887434959411,9.540454864501951,-0.8997255563735962,-0.5222486257553101,0.0716814398765564
4199438508.0,-0.7121942639350891,0.0559566915035247,9.49636459350586,-1.1161401271820068,-1.153921127319336,0.183922991156578
4199446841.0,-0.3391744196414947,-0.0770818442106247,9.680216789245604,-1.018114686012268,-1.356120228767395,0.1286218911409378
4199455174.0,-0.1950151175260543,0.2769509255886078,9.782171249389648,-0.7121013402938843,-0.8710120320320129,0.250443160533905
4199463507.0,-0.4487550556659698,0.599429726600647,9.685649871826172,-0.8259310126304626,-0.5381550192832947,0.2469340413808822
4199471840.0,-0.574165940284729,0.3793509602546692,9.551090240478516,-1.194750428199768,-0.9607642889022828,0.1999319046735763
4199480173.0,-0.3102214336395263,-0.0242930520325899,9.6027193069458,-1.1972606182098389,-1.34922993183136,0.1870991885662078
4199488506.0,-0.1034157499670982,0.0683883875608444,9.746256828308104,-0.8893005847930908,-0.983894109725952,0.1805675327777862
4199496839.0,-0.3664186894893646,0.4590050876140594,9.755655288696287,-0.7541854977607727,-0.4176913201808929,0.3598415851593017
4199505172.0,-0.6735331416130066,0.5739297866821289,9.62203311920166,-1.0082018375396729,-0.6402021646499634,0.2202952206134796
4199513505.0,-0.6003308892250061,0.1945645660161972,9.62717628479004,-1.1505402326583862,-1.1482348442077637,0.1701937764883041
4199521838.0,-0.3405539989471435,0.0452345795929431,9.754961013793944,-1.12280011177063,-1.179919719696045,0.1678884923458099
4199530171.0,-0.379207968711853,0.2921793162822723,9.685277938842772,-0.9821779131889344,-0.7492163181304932,0.3015948235988617
4199538504.0,-0.5138459205627441,0.4564586877822876,9.58346462249756,-0.8647621273994446,-0.706619918346405,0.2554379403591156
4199546837.0,-0.5477613806724548,0.2047388255596161,9.496172904968262,-1.2487707138061523,-1.2461581230163574,0.1705267578363418
4199555170.0,-0.2067993879318237,0.0706872045993805,9.724674224853516,-1.1493107080459597,-1.2296881675720217,0.2619183659553528
4199563503.0,-0.2143706977367401,0.2683532238006592,9.75868797302246,-0.913326621055603,-0.7431713342666626,0.1905314624309539
4199571836.0,-0.5535299181938171,0.4793406128883362,9.64988613128662,-0.9560256600379944,-0.4114670753479004,0.2471901476383209
4199580169.0,-0.7275227904319763,0.253089040517807,9.547478675842283,-1.1872453689575195,-0.7558248043060303,0.3167328238487243
4199588502.0,-0.4846965372562408,-0.0369365103542804,9.608739852905272,-1.211348533630371,-1.3562482595443726,0.1908901035785675
4199596835.0,-0.2367590963840484,0.1450167447328567,9.803522109985352,-0.9676034450531006,-1.1810210943222046,0.1400202214717865
4199605168.0,-0.3421778082847595,0.5677425265312195,9.7618989944458,-0.7718081474304199,-0.5663819313049316,0.2529790103435516
4199613501.0,-0.5799238681793213,0.5307838916778564,9.617676734924316,-1.1598381996154783,-0.7408404350280762,0.2869178056716919
4199621834.0,-0.4342682659626007,0.0727404803037643,9.562126159667969,-1.2928016185760498,-1.3040462732315063,0.3636068701744079
4199630167.0,-0.1772045344114303,-0.0330318287014961,9.732558250427246,-1.1195982694625854,-1.1998732089996338,0.1944760680198669
4199638500.0,-0.2939675450325012,0.3459615409374237,9.791061401367188,-0.8626105189323425,-0.5968628525733948,0.189301997423172
4199646833.0,-0.577556312084198,0.5213993191719055,9.66864776611328,-0.9583821892738342,-0.3288355469703674,0.300698310136795
4199655166.0,-0.6633101105690002,0.2063416540622711,9.56560516357422,-1.342211365699768,-1.0040779113769531,0.130133107304573
4199663499.0,-0.3353863954544067,-0.0233023837208747,9.666486740112305,-1.264011263847351,-1.3683892488479614,0.2798739373683929
4199671832.0,-0.2840394079685211,0.1938849538564682,9.728918075561523,-1.0728521347045898,-0.7775456309318542,0.1948602646589279
4199680165.0,-0.5019793510437012,0.3742295801639557,9.607240676879885,-0.9094589948654176,-0.4662046432495117,0.1683495640754699
4199688498.0,-0.5722059607505798,0.2176896184682846,9.531935691833496,-1.1636289358139038,-0.925262987613678,0.1591284275054931
4199696831.0,-0.2529105544090271,-0.005819063168019,9.658979415893556,-1.1493107080459597,-1.2470033168792725,0.1554912030696869
4199705164.0,-0.135024219751358,0.1273277550935745,9.769495964050291,-0.9721114039421082,-0.8873282670974731,0.2596130967140198
4199713497.0,-0.4258373379707336,0.3642656803131103,9.66092300415039,-0.9144282937049866,-0.2505328357219696,0.3350726366043091
4199721830.0,-0.7304912209510803,0.2497558146715164,9.5272216796875,-0.9930638670921326,-0.5531393885612488,0.2564625144004822
4199730163.0,-0.5718197226524353,-0.0529668033123016,9.566076278686523,-1.1216984987258911,-1.1368108987808228,0.1367928087711334
4199738496.0,-0.2822368741035461,0.0483317598700523,9.753301620483398,-0.866657555103302,-1.0212395191192627,0.226852461695671
4199746829.0,-0.3019788563251495,0.4534329175949096,9.80130386352539,-0.6774197220802307,-0.6792383193969727,0.2413757592439651
4199755162.0,-0.5280658006668091,0.4572168886661529,9.625887870788574,-0.9367895126342772,-0.6729884147644043,0.2208843380212783
4199763495.0,-0.4625028371810913,0.0967994257807731,9.556048393249512,-1.2415730953216553,-1.1215705871582031,0.1121006980538368
4199771828.0,-0.2249855250120163,-0.0512501187622547,9.680328369140623,-1.093292474746704,-1.139910340309143,0.2481379210948944
4199780161.0,-0.2717794179916382,0.2468088418245315,9.791447639465332,-0.8541578650474548,-0.6710672974586487,0.1524431109428405
4199788494.0,-0.5560764670372009,0.528144359588623,9.69675064086914,-0.8388405442237854,-0.3526055216789245,0.1411216259002685
4199796827.0,-0.7031387090682983,0.314689427614212,9.577020645141602,-1.1011302471160889,-0.8457051515579224,0.1617923080921173
4199805160.0,-0.4518879950046539,0.0420086458325386,9.67027187347412,-1.1956723928451538,-1.1271030902862549,0.1414546072483062
4199813493.0,-0.3142959177494049,0.17305588722229,9.74912452697754,-0.9226504564285278,-0.8004449009895325,0.303413450717926
4199821826.0,-0.5092682838439941,0.3947867751121521,9.677309036254885,-0.7904553413391113,-0.6267035603523254,0.2089481353759765
4199830159.0,-0.5991937518119812,0.3321565091609955,9.565159797668455,-1.085710525512695,-0.9394276738166808,0.1904034316539764
4199838492.0,-0.3441780209541321,0.0884934440255165,9.648611068725586,-1.0709567070007324,-1.3089641332626345,0.2416062653064727
4199846825.0,-0.1462254524230957,0.1728772222995758,9.744948387145996,-0.8596649169921875,-0.913070559501648,0.2454227805137634
4199855158.0,-0.3736359179019928,0.4165529608726501,9.722065925598145,-0.8905300498008728,-0.4352370500564575,0.2500077188014984
4199863491.0,-0.6941189169883728,0.3508184552192688,9.554682731628418,-0.9613277912139891,-0.4401037693023681,0.2195780128240585
4199871824.0,-0.622840940952301,0.0031830151565372,9.528079986572266,-1.0123512744903564,-1.1251564025878906,0.2978550791740417
4199880157.0,-0.3245387971401214,0.0430100448429584,9.725491523742676,-0.8016743659973145,-1.3157776594161987,0.1896606087684631
4199888490.0,-0.3237805962562561,0.4364307224750519,9.792256355285645,-0.7411478757858276,-0.9863529801368712,0.2993663847446441
4199896823.0,-0.5393170714378357,0.5811185836791992,9.658220291137695,-0.8794392347335815,-0.6265242099761963,0.2440140396356582
4199905156.0,-0.5198042392730713,0.2018174678087234,9.558780670166016,-1.1894739866256714,-1.0448814630508425,0.2013663053512573
4199913489.0,-0.2422912120819091,-0.0460171326994895,9.6633882522583,-1.199668288230896,-1.245543360710144,0.2243422567844391
4199921822.0,-0.2131548821926117,0.1968389302492141,9.756792068481444,-0.8144813776016235,-0.7595900297164917,0.2955242395401001
4199930155.0,-0.4975088536739349,0.4907779991626739,9.7158784866333,-0.8062848448753357,-0.4497859477996826,0.1782622635364532
4199938488.0,-0.6806931495666504,0.3811392486095428,9.63367748260498,-1.1151156425476074,-0.820628821849823,0.1960385590791702
4199946821.0,-0.4715456664562225,0.0355518572032451,9.677950859069824,-1.2414194345474243,-1.2802762985229492,0.1492925733327865
4199955154.0,-0.2760353684425354,0.1241089776158332,9.752443313598633,-0.9274658560752868,-1.0454449653625488,0.1961922198534011
4199963487.0,-0.425751656293869,0.3883777856826782,9.66419792175293,-0.8958835601806641,-0.5559313893318176,0.2524667084217071
4199971820.0,-0.5896088480949402,0.3328146338462829,9.570138931274414,-0.9775415658950806,-0.8479847311973572,0.2468059211969375
4199980153.0,-0.3412610590457916,0.086464524269104,9.598650932312012,-1.211988925933838,-1.317468285560608,0.1781085878610611
4199988486.0,-0.1344735473394394,0.0889025777578353,9.778565406799316,-0.9907586574554444,-1.140986084938049,0.2739570438861847
4199996819.0,-0.2900406420230865,0.3882992267608642,9.776691436767578,-0.8590757846832275,-0.5551885962486267,0.1528017222881317
4200005152.0,-0.6486409902572632,0.352356344461441,9.59083366394043,-1.0693687200546265,-0.3288611471652984,0.2953193187713623
4200013485.0,-0.6845628619194031,0.0110726011916995,9.493246078491213,-1.1326357126235962,-1.055946946144104,0.2516982555389404
4200021818.0,-0.3382242619991302,-0.0462891161441803,9.688118934631348,-1.0275918245315552,-1.3632663488388062,0.0977567285299301
4200030151.0,-0.2752557098865509,0.3411405384540558,9.819973945617676,-0.7713470458984375,-0.8336151838302612,0.2224468141794204
4200038484.0,-0.4811860620975494,0.5603179335594177,9.641717910766602,-0.8213716745376587,-0.5387186408042908,0.0958100408315658
4200046817.0,-0.5256981253623962,0.2685249745845794,9.532572746276855,-1.130714774131775,-1.0079715251922607,0.1914023607969284
4200055150.0,-0.2500231564044952,-0.0912414491176605,9.577757835388184,-1.1621177196502686,-1.266367793083191,0.1320541799068451
4200063483.0,-0.2341411560773849,0.0895678997039794,9.70680809020996,-0.8501876592636108,-0.90075021982193,0.2313605695962906
4200071816.0,-0.4279901683330536,0.437510997056961,9.769490242004396,-0.752802312374115,-0.3616985976696014,0.2152748256921768
4200080149.0,-0.667510449886322,0.4336124956607818,9.654306411743164,-0.9880690574645996,-0.5807515382766724,0.1165831759572029
4200088482.0,-0.5748741626739502,0.0916707292199134,9.63034439086914,-1.1428816318511963,-1.0152969360351562,0.2589214742183685
4200096815.0,-0.3779919743537903,0.0923360511660575,9.668776512145996,-1.0246206521987915,-1.0166034698486328,0.2654019296169281
4200105148.0,-0.4133914113044739,0.3670910596847534,9.729290008544922,-0.9388386607170104,-0.8447319269180298,0.2670412063598633
4200113481.0,-0.55864417552948,0.3379289209842682,9.604802131652832,-1.0531548261642456,-0.7009846568107605,0.204824224114418
4200121814.0,-0.4203924834728241,0.115224614739418,9.605499267578123,-1.2320959568023682,-1.1881675720214844,0.1293390840291977
4200130147.0,-0.2007159292697906,0.0890457406640052,9.701615333557127,-1.0162447690963743,-1.1908055543899536,0.171986773610115
4200138480.0,-0.2578813135623932,0.364044040441513,9.745463371276855,-0.8096404671669006,-0.5886407494544983,0.2220626324415207
4200146813.0,-0.5769625902175903,0.4270819425582886,9.662196159362791,-0.900417149066925,-0.3021455109119415,0.2150186896324157
4200155146.0,-0.7740663886070251,0.1150105595588684,9.557178497314451,-1.251076102256775,-0.883895993232727,0.1802857965230941
4200163479.0,-0.490177184343338,-0.0863847881555557,9.632527351379396,-0.8881479501724243,-1.2831450700759888,0.1647891700267791
4200171812.0,-0.2932737171649933,0.2798978984355926,9.793006896972656,-0.761178195476532,-1.0506447553634644,0.2062842398881912
4200180145.0,-0.4364593923091888,0.6078199744224548,9.711106300354004,-0.7073370218276978,-0.6484498977661133,0.1472434103488922
4200188478.0,-0.5915687084197998,0.3780921399593353,9.582971572875977,-1.2477461099624634,-0.8010851740837097,0.1428121626377105
4200196811.0,-0.3783281743526459,-0.0306856967508792,9.563830375671388,-1.1297414302825928,-1.1284352540969849,0.2232664674520492
4200205144.0,-0.186789333820343,0.0251565482467412,9.706501007080078,-0.8330261707305908,-1.1332505941390991,0.2509298622608185
4200213477.0,-0.3196176290512085,0.4263595044612884,9.793164253234863,-0.7562347650527954,-0.5691739916801453,0.2515958249568939
4200221810.0,-0.6248652338981628,0.550840437412262,9.65626621246338,-0.9455749988555908,-0.5123871564865112,0.1940662264823913
4200230143.0,-0.6112675070762634,0.2134695798158645,9.584667205810549,-1.1950066089630127,-1.0876317024230957,0.2920151054859161
4200238476.0,-0.3490729629993438,-0.0072457324713468,9.67431354522705,-1.0670634508132937,-1.143368124961853,0.2140966057777404
4200246809.0,-0.3326501250267029,0.2775017023086548,9.69269561767578,-0.8515964150428772,-0.8994950652122498,0.2961133420467376
4200255142.0,-0.5699599981307983,0.4546990692615509,9.605088233947754,-0.91135436296463,-0.7300312519073486,0.2313349545001983
4200263475.0,-0.5630289912223816,0.2853268682956695,9.557220458984377,-1.102564573287964,-0.9956763982772828,0.134718045592308
4200271808.0,-0.2680614590644836,0.0447570793330669,9.704870223999023,-1.2340681552886963,-1.335987210273743,0.2100751399993896
4200280141.0,-0.1154754981398582,0.1819897890090942,9.728689193725586,-0.7983957529067993,-0.9041057229042052,0.1368696838617324
4200288474.0,-0.4039138853549957,0.4348427951335907,9.691973686218262,-0.7942717671394348,-0.451655775308609,0.3206773996353149
4200296807.0,-0.706987202167511,0.331155002117157,9.576268196105955,-1.1392700672149658,-0.4861838221549988,0.2453459799289703
4200305140.0,-0.5953096747398376,-0.0404350198805332,9.61505889892578,-1.100080132484436,-1.1737465858459473,0.2112021595239639
4200313473.0,-0.2669583559036255,0.0069741057232022,9.707918167114258,-0.8815650939941406,-1.1979007720947266,0.1829240322113037
4200321806.0,-0.2945182025432586,0.4659864008426666,9.768573760986328,-0.6658419966697693,-0.6760877370834351,0.2937568426132202
4200330139.0,-0.5123081803321838,0.5902309417724609,9.643111228942873,-0.9441919326782228,-0.6772147417068481,0.2268012315034866
4200338472.0,-0.5430223941802979,0.2039203941822052,9.5441312789917,-1.1889615058898926,-1.012223243713379,0.2147369384765625
4200346805.0,-0.2757360935211181,-0.1461915820837021,9.631603240966797,-1.11380934715271,-1.4050687551498413,0.2529277503490448
4200355138.0,-0.3132587075233459,0.2419878989458084,9.83576774597168,-0.9573833346366882,-0.9387873411178588,0.1693228930234909
4200363471.0,-0.4006023108959198,0.4207657277584076,9.561240196228027,-0.6387165188789368,-0.575961709022522,0.2338451296091079
4200371804.0,-0.6546997427940369,0.5054556727409363,9.672904014587402,-1.0601475238800049,-0.5912021398544312,0.2626355588436126
4200380137.0,-0.5371286869049072,0.0514864474534988,9.71338939666748,-1.2940311431884766,-1.172542691230774,0.1781085729598999
4200388470.0,-0.3412694036960602,-0.0945821702480316,9.626502990722656,-1.0741584300994873,-1.0574580430984497,0.2838697433471679
4200396803.0,-0.4153512716293335,0.3447169661521911,9.689212799072266,-0.7464244365692139,-0.8027245402336121,0.214301511645317
4200405136.0,-0.5550321340560913,0.4841829240322113,9.62108039855957,-1.0595072507858276,-0.6945812702178955,0.1653014719486236
4200413469.0,-0.4684253931045532,0.2069961279630661,9.62374210357666,-1.1758983135223389,-1.0959819555282593,0.1420949697494506
4200421802.0,-0.2375690340995788,-0.0453952476382255,9.703089714050291,-1.118727207183838,-1.23829448223114,0.192657470703125
4200430135.0,-0.260034441947937,0.2172175347805023,9.699119567871094,-0.7888927459716797,-0.7988823652267456,0.3144530951976776
4200438468.0,-0.5459194779396057,0.4628747105598449,9.627038955688477,-0.8384050130844116,-0.4075480699539184,0.2874557375907898
4200446801.0,-0.7488168478012085,0.2802054584026336,9.55324363708496,-1.041167378425598,-0.6294954419136047,0.3244170844554901
4200455134.0,-0.5322651267051697,-0.0581347532570362,9.66047477722168,-1.2046630382537842,-1.2474900484085083,0.1811054497957229
4200463467.0,-0.2648697793483734,0.0176746752113103,9.71829605102539,-0.7760088443756104,-1.0952390432357788,0.1970118731260299
4200471800.0,-0.3613687753677368,0.503059446811676,9.726836204528809,-0.5517562627792358,-0.6652016639709473,0.2858676612377167
4200480133.0,-0.5322144031524658,0.5979705452919006,9.622161865234377,-0.8644549250602722,-0.7265221476554871,0.1681190580129623
4200488466.0,-0.5153480172157288,0.1641076803207397,9.5845947265625,-1.2383716106414795,-1.055332064628601,0.1606140732765197
4200496799.0,-0.2723411619663238,-0.1683896332979202,9.66720485687256,-1.2174957990646362,-1.2243858575820925,0.3287459015846252
4200505132.0,-0.2414513677358627,0.1896433234214782,9.706658363342283,-0.7403281927108765,-0.7237814664840698,0.2302847653627395
4200513465.0,-0.5158126950263977,0.6096943020820618,9.71224594116211,-0.7167375087738037,-0.4165898859500885,0.2771588265895843
4200521798.0,-0.6855642199516296,0.5052624940872192,9.616174697875977,-1.1042040586471558,-0.6339778900146484,0.2503663301467895
4200530131.0,-0.5143247246742249,0.0509460642933845,9.679301261901855,-1.2990517616271973,-1.122057318687439,0.2172215431928634
4200538464.0,-0.287172257900238,-0.0706485211849212,9.685550689697266,-1.0316389799118042,-1.056792140007019,0.2843564748764038
4200546797.0,-0.3262842297554016,0.3313553631305694,9.653068542480469,-0.8111259341239929,-0.6866407990455627,0.2345623522996902
4200555130.0,-0.5105627775192261,0.5083954930305481,9.586082458496094,-0.8274421691894531,-0.6896888017654419,0.1957055628299713
4200563463.0,-0.4917866885662079,0.2686678767204284,9.6436128616333,-1.2112970352172852,-0.996982753276825,0.1992658972740173
4200571796.0,-0.2550274729728699,-0.0555775910615921,9.650480270385742,-1.1301511526107788,-1.1539212465286257,0.2157871425151825
4200580129.0,-0.23853300511837,0.1852014064788818,9.737300872802734,-0.7201441526412964,-0.8322576880455017,0.2051059752702713
4200588462.0,-0.5619916915893555,0.538673460483551,9.658133506774902,-0.950236976146698,-0.5580573678016663,0.2356637865304947
4200596795.0,-0.6383626461029053,0.3699092864990234,9.64079475402832,-0.9908353686332704,-0.698679506778717,0.2539523243904114
4200605128.0,-0.5172812938690186,-0.0906663313508033,9.598806381225586,-1.2788162231445312,-1.093471646308899,0.3352774977684021
4200613461.0,-0.2496199160814285,0.0187261421233415,9.77780055999756,-0.9496989846229552,-0.9618399739265442,0.2221650630235672
4200621794.0,-0.3984491229057312,0.4449926614761352,9.621310234069824,-0.7457841038703918,-0.7435044050216675,0.1569768339395523
4200630127.0,-0.548637330532074,0.667653501033783,9.654563903808594,-0.889095664024353,-0.6501660943031311,0.1593333333730697
4200638460.0,-0.514310896396637,0.2732886672019958,9.631525039672852,-1.2733348608016968,-1.0386059284210205,0.2667338252067566
4200646793.0,-0.3101509213447571,-0.1426289826631546,9.665556907653809,-1.2487452030181885,-1.282017946243286,0.2295163124799728
4200655126.0,-0.2692687809467315,0.1036017760634422,9.726929664611816,-0.707362711429596,-0.8232671618461609,0.2756731808185577
4200663459.0,-0.4794479012489319,0.5502896904945374,9.693418502807615,-0.7812853455543518,-0.4577007591724396,0.0698884353041648
4200671792.0,-0.6767591834068298,0.5330654382705688,9.65311050415039,-1.0893220901489258,-0.5910484790802002,0.1566182225942611
4200680125.0,-0.530441403388977,0.0977280363440513,9.68599796295166,-1.325075626373291,-1.1150388717651367,0.2402486801147461
4200688458.0,-0.3426998555660248,-0.0961199030280113,9.688912391662598,-1.1496692895889282,-1.074978232383728,0.2345367521047592
4200696791.0,-0.3734215199947357,0.2956840693950653,9.656787872314451,-0.8130727410316467,-0.7637140154838562,0.3161949515342712
4200705124.0,-0.5270286202430725,0.5284591913223267,9.608707427978516,-0.9054118990898132,-0.678059995174408,0.2580506205558777
4200713457.0,-0.5209844708442688,0.2885099351406097,9.643463134765623,-1.2596824169158936,-1.0373252630233765,0.2060280889272689
4200721790.0,-0.3246854245662689,-0.0602285414934158,9.713878631591797,-1.1881418228149414,-1.193597674369812,0.2339476197957992
4200730123.0,-0.281635969877243,0.1287942379713058,9.71675968170166,-0.810767412185669,-0.9386849403381348,0.2201671451330185
4200738456.0,-0.4902272522449493,0.4834535121917724,9.648662567138672,-0.8578975200653076,-0.581648051738739,0.2723689377307892
4200746789.0,-0.6636122465133667,0.3970614075660705,9.549023628234863,-1.1368365287780762,-0.8165305256843567,0.17657171189785
4200755122.0,-0.5394960045814514,0.0384179204702377,9.636431694030762,-1.2618340253829956,-1.0843017101287842,0.1967813521623611
4200763455.0,-0.3549278974533081,-0.1644421964883804,9.570990562438965,-1.0391440391540527,-1.3065309524536133,0.1818482726812362
4200771788.0,-0.3071144521236419,0.4714081287384033,9.844343185424805,-0.6071597337722778,-0.9193204045295716,0.302081435918808
4200780121.0,-0.4416166245937347,0.6010104417800903,9.615294456481934,-0.8064384460449219,-0.6931467652320862,0.1475764065980911
4200788454.0,-0.5257840752601624,0.3731565177440643,9.66473388671875,-1.2556865215301514,-0.9347913265228271,0.1697839498519897
4200796787.0,-0.3475288450717926,-0.1108336523175239,9.70607852935791,-1.287832498550415,-1.1450843811035156,0.2387887239456176
4200805120.0,-0.2574021518230438,-0.0163369867950677,9.671080589294434,-0.86255943775177,-1.1266933679580688,0.2538754940032959
4200813453.0,-0.4337626993656158,0.4922371804714203,9.672260284423828,-0.6872298717498779,-0.6306992769241333,0.1992402970790863
4200821786.0,-0.6222687363624573,0.5747666954994202,9.618549346923828,-1.0531293153762815,-0.6258838176727295,0.1084890812635421
4200830119.0,-0.5218383073806763,0.1805586963891983,9.650350570678713,-1.262756109237671,-1.1165755987167358,0.3010056614875793
4200838452.0,-0.3529929220676422,-0.0912060067057609,9.706765174865724,-1.2034080028533936,-0.9970340728759766,0.2466522753238678
4200846785.0,-0.3663256466388702,0.20705346763134,9.646167755126951,-0.7548258900642395,-0.9268510341644288,0.1722685396671295
4200855118.0,-0.5157914757728577,0.5138673782348633,9.636517524719238,-0.8492143154144287,-0.7565932273864746,0.2764160335063934
4200863451.0,-0.5227011442184448,0.3683356344699859,9.601482391357422,-1.1733369827270508,-1.041321039199829,0.2132769078016281
4200871784.0,-0.3250680863857269,-0.005264492239803,9.705814361572266,-1.2061487436294556,-1.1260017156600952,0.2109716534614563
4200880117.0,-0.2767148911952972,0.0461000725626945,9.682445526123049,-0.8640962243080139,-0.8667088747024536,0.1470641195774078
4200888450.0,-0.4529968500137329,0.4462228715419769,9.625393867492676,-0.7025472521781921,-0.663536787033081,0.2536193430423736
4200896783.0,-0.5986643433570862,0.4635042250156402,9.59394359588623,-1.0160398483276367,-0.7721154689788818,0.0812355503439903
4200905116.0,-0.5329582095146179,0.1002758145332336,9.639436721801758,-1.1976704597473145,-1.049492120742798,0.2505199909210205
4200913449.0,-0.3687719702720642,-0.165867269039154,9.69529914855957,-1.0848653316497805,-1.1305354833602903,0.2507761716842651
4200921782.0,-0.3564547896385193,0.2111733853816986,9.699555397033691,-0.7060820460319519,-0.8733685612678528,0.1885591745376587
4200930115.0,-0.5202547311782837,0.644929051399231,9.65691089630127,-0.7543648481369019,-0.7355896234512329,0.2306177616119384
4200938448.0,-0.5656896233558655,0.475249320268631,9.635323524475098,-1.12272310256958,-0.9486743211746216,0.2954217791557312
4200946781.0,-0.4057528972625732,-0.0255145039409399,9.676871299743652,-1.3707457780838013,-1.1043319702148438,0.2398388683795929
4200955114.0,-0.2762927711009979,-0.1178787425160408,9.66234016418457,-0.9691401124000548,-0.9913220405578612,0.3114562630653381
4200963447.0,-0.4177188873291015,0.3634216487407684,9.641045570373535,-0.7524693012237549,-0.6983720064163208,0.1199130266904831
4200971780.0,-0.5596598386764526,0.601632833480835,9.669278144836426,-0.8200397491455078,-0.6406888365745544,0.1402763426303863
4200980113.0,-0.5592808127403259,0.3200539648532867,9.707623481750488,-1.2509480714797974,-0.9849698543548584,0.2278770506381988
4200988446.0,-0.416846215724945,-0.0772149413824081,9.71409034729004,-1.2544316053390503,-1.0957515239715576,0.2012638598680496
4200996779.0,-0.3909601867198944,0.0498121976852417,9.642610549926758,-0.7823099493980408,-0.9526703357696532,0.2866105139255523
4201005112.0,-0.5090463757514954,0.4647345244884491,9.624579429626465,-0.7682221531867981,-0.8756226897239685,0.3800256252288818
4201013445.0,-0.5635868310928345,0.4637474119663238,9.625967025756836,-1.1105563640594482,-0.8698593974113464,0.2610218524932861
4201021778.0,-0.4111715257167816,0.1097796633839607,9.701698303222656,-1.1641157865524292,-1.2393959760665894,0.1675811409950256
4201030111.0,-0.2793828845024109,-0.0600624233484268,9.67534351348877,-1.0559468269348145,-1.1636803150177002,0.2120218276977539
4201038444.0,-0.3612185716629028,0.3090671896934509,9.640287399291992,-0.745092511177063,-0.8833581805229187,0.2652994692325592
4201046777.0,-0.5284091234207153,0.5514984726905823,9.641674995422363,-0.903798282146454,-0.7920945882797241,0.2936799824237823
4201055110.0,-0.5419995188713074,0.3036167323589325,9.653963088989258,-1.2528691291809082,-0.9360467195510864,0.2426820993423462
4201063443.0,-0.4154300987720489,-0.0699120014905929,9.680764198303224,-1.1741310358047483,-1.0879391431808472,0.2725226581096649
4201071776.0,-0.3909457921981811,0.0251851603388786,9.685986518859863,-0.8119456171989441,-0.962890326976776,0.2131744921207428
4201080109.0,-0.45737424492836,0.5214493870735168,9.650057792663574,-0.786510705947876,-0.8400956392288208,0.1188372522592544
4201088442.0,-0.5304619669914246,0.589587390422821,9.631439208984377,-1.1034098863601685,-0.8607407212257385,0.1000876277685165
4201096775.0,-0.4212415516376495,0.2056171298027038,9.726238250732422,-1.3971540927886963,-1.2119888067245483,0.1598456352949142
4201105108.0,-0.2904697954654693,-0.1300386786460876,9.706629753112791,-1.1134508848190308,-1.1163709163665771,0.2350746542215347
4201113441.0,-0.3332293927669525,0.1500453501939773,9.642977714538574,-0.8514939546585083,-0.9404521584510804,0.2390192151069641
4201121774.0,-0.4432186782360077,0.5752817988395691,9.641310691833496,-0.7965770363807678,-0.8401468992233276,0.237892210483551
4201130107.0,-0.520433783531189,0.4804778695106506,9.70574188232422,-1.2372957468032837,-0.8095123767852783,0.2015456259250641
4201138440.0,-0.4798637628555298,0.0773796886205673,9.72415256500244,-1.3629077672958374,-1.073569416999817,0.1796966642141342
4201146773.0,-0.4087706804275512,-0.0585603266954422,9.686530113220217,-1.083046793937683,-0.9984941482543944,0.1667358726263046
4201155106.0,-0.4549351036548614,0.3252111673355102,9.564967155456545,-0.9589712619781494,-0.9591505527496338,0.1930929124355316
4201163439.0,-0.5263634324073792,0.5314991474151611,9.646195411682127,-0.9302577972412108,-1.0574324131011963,0.2269549369812011
4201171772.0,-0.4020398557186126,0.2908489108085632,9.690600395202637,-1.222337007522583,-1.0401941537857056,0.2275696545839309
4201180105.0,-0.3663685023784637,-0.0335467234253883,9.71924114227295,-1.2275621891021729,-0.9751338362693788,0.2947301566600799
4201188438.0,-0.364365816116333,0.0558637045323848,9.609529495239258,-0.9339718222618104,-1.06283700466156,0.2614572942256927
4201196771.0,-0.4156660139560699,0.4715511798858642,9.57126235961914,-0.9216769337654114,-0.9446529746055604,0.293936163187027
4201205104.0,-0.4588905572891235,0.4452216625213623,9.683269500732422,-1.0896040201187134,-0.8994694352149963,0.2846894264221191
4201213437.0,-0.4338771402835846,0.1164983510971069,9.708775520324709,-1.2286123037338257,-0.8990085124969482,0.3241353631019592
4201221770.0,-0.4845334589481354,-0.1123495921492576,9.672468185424805,-0.990451157093048,-0.8867135643959045,0.3179366886615753
4201230103.0,-0.5353902578353882,0.2072823941707611,9.569174766540527,-0.7523412704467773,-0.9619169235229492,0.2187071442604065
4201238436.0,-0.4492987394332886,0.5733647346496582,9.644943237304688,-0.8823592066764832,-1.004718542098999,0.2062330096960067
4201246769.0,-0.402426153421402,0.4210663437843323,9.745904922485352,-1.1713131666183472,-0.9871469736099244,0.138304054737091
4201255102.0,-0.3582072257995605,0.014720550738275,9.740777015686035,-1.287243366241455,-0.9229834079742432,0.2915284037590027
4201263435.0,-0.419507086277008,-0.0717716291546821,9.615309715270996,-0.9432697296142578,-0.9984684586524964,0.2446543574333191
4201271768.0,-0.4577318429946899,0.3140885233879089,9.534661293029783,-0.8051577806472778,-1.1459039449691772,0.0883563086390495
4201280101.0,-0.4409298598766327,0.5490022301673889,9.683956146240234,-0.8394808173179626,-1.036479949951172,0.0926594883203506
4201288434.0,-0.3989927470684051,0.348665326833725,9.808708190917969,-1.16478168964386,-0.8882248401641846,0.1347436904907226
4201296767.0,-0.525240421295166,-0.0062945019453763,9.737666130065918,-1.1321234703063965,-0.8693983554840088,0.275954931974411
4201305100.0,-0.5467205047607422,0.024183677509427,9.570331573486328,-0.8617396950721741,-1.002413034439087,0.2057975679636001
4201313433.0,-0.5063639879226685,0.4274754822254181,9.576434135437012,-0.81832355260849,-1.0785127878189087,0.2203464210033416
4201321766.0,-0.4095146059989929,0.4610292911529541,9.710577011108398,-1.0550247430801392,-1.0539488792419434,0.1432988345623016
4201330099.0,-0.3413407504558563,0.1750229746103286,9.781155586242676,-1.1058945655822754,-0.9476754069328308,0.1400714367628097
4201338432.0,-0.3677706718444824,-0.0078467587009072,9.687358856201172,-1.0230836868286133,-0.9221123456954956,0.2484196126461029
4201346765.0,-0.4521169066429138,0.2104008793830871,9.557228088378906,-0.8272628784179688,-1.0040011405944824,0.1216035857796669
4201355098.0,-0.4044288694858551,0.5373287796974182,9.653692245483398,-0.9037470817565918,-1.059251070022583,0.2109460234642028
4201363431.0,-0.3822837769985199,0.3335942924022674,9.75778579711914,-1.1455453634262085,-0.8151217699050903,0.154774010181427
4201371764.0,-0.4764579236507416,-0.0284539442509412,9.735777854919434,-1.1535369157791138,-0.6948117017745972,0.2241629362106323
4201380097.0,-0.5694734454154968,-0.0305424910038709,9.62350082397461,-0.8671442866325378,-0.8088975548744202,0.229746863245964
4201388430.0,-0.5313775539398193,0.4325180947780609,9.53086280822754,-0.8369195461273193,-1.111632227897644,0.3099194467067718
4201396763.0,-0.4044503569602966,0.6414669752120972,9.718188285827637,-1.091166377067566,-1.188269853591919,0.1961153894662857
4201405096.0,-0.3067854344844818,0.3083519041538238,9.747722625732422,-1.230405330657959,-0.9124047756195068,0.1878163665533065
4201413429.0,-0.3694228827953338,-0.0960984453558921,9.663019180297852,-1.1243623495101929,-0.8721134662628174,0.328515350818634
4201421762.0,-0.4239920377731323,0.0188619475811719,9.572227478027344,-0.8822822570800781,-0.9673472046852112,0.2696282267570495
4201430095.0,-0.439020037651062,0.5136599540710449,9.612905502319336,-0.691686749458313,-1.0424225330352783,0.140327587723732
4201438428.0,-0.4422889053821563,0.5564983487129211,9.768529891967772,-1.0015933513641355,-0.9323068261146544,0.1862795054912567
4201446761.0,-0.4203867614269256,0.1728199273347854,9.77957534790039,-1.2367321252822876,-0.7843079566955566,0.2636345326900482
4201455094.0,-0.4467664957046509,-0.1002326980233192,9.644965171813965,-1.0301021337509155,-0.9766451120376588,0.2248545587062835
4201463427.0,-0.5351113080978394,0.2150073051452636,9.530591011047363,-0.9153502583503724,-1.0126330852508545,0.2553098797798157
4201471760.0,-0.5128230452537537,0.556362509727478,9.645437240600586,-0.9522860050201416,-1.0251328945159912,0.2256998121738433
4201480093.0,-0.3918183743953705,0.3689079582691192,9.751707077026367,-1.1563290357589722,-1.118419885635376,0.1920939534902572
4201488426.0,-0.332285463809967,-0.0342407748103141,9.741899490356444,-1.0656801462173462,-0.9538740515708924,0.3141714036464691
4201496759.0,-0.3294457495212555,0.0191695131361484,9.631546020507812,-0.9185776114463806,-0.9986989498138428,0.2885827720165252
4201505092.0,-0.4632038176059723,0.4817725718021393,9.57759952545166,-0.8661709427833557,-0.7742925882339478,0.2647359073162079
4201513425.0,-0.5378936529159546,0.5195181965827942,9.642304420471191,-1.197209358215332,-0.8264432549476624,0.2640443444252014
4201521758.0,-0.4745911359786987,0.0470084846019744,9.728137969970703,-1.1649099588394165,-0.9304884076118468,0.2203720808029174
4201530091.0,-0.424399733543396,-0.1904016286134719,9.70295238494873,-1.0689588785171509,-1.0860947370529177,0.2201415300369262
4201538424.0,-0.4399571418762207,0.2320237457752227,9.623669624328612,-0.7067992687225342,-0.8882505297660828,0.267835259437561
4201546757.0,-0.532271683216095,0.7163788080215454,9.631397247314451,-0.8069508671760559,-0.9104323387145996,0.1745738089084625
4201555090.0,-0.4757976531982422,0.450327455997467,9.646245002746582,-1.2792516946792605,-1.1172672510147097,0.0622041672468185
4201563423.0,-0.295655608177185,-0.1012341827154159,9.69906234741211,-1.1287938356399536,-1.1154230833053589,0.1001132354140281
4201571756.0,-0.2197711020708084,-0.1139304861426353,9.66711711883545,-0.8317710757255554,-0.8610994219779968,0.2669387757778168
4201580089.0,-0.441552072763443,0.4297071993350982,9.63606071472168,-0.6866919994354248,-0.728929877281189,0.2728812396526336
4201588422.0,-0.6659654378890991,0.6572389602661133,9.6293363571167,-0.965246856212616,-0.5148205161094666,0.1270337998867035
4201596755.0,-0.5422643423080444,0.279253602027893,9.712221145629885,-1.3974616527557373,-1.1690593957901,0.0793401002883911
4201605088.0,-0.3300470411777496,-0.1319328248500824,9.764851570129396,-1.231250524520874,-1.2611424922943115,0.2260840386152267
4201613421.0,-0.3403608798980713,0.120618388056755,9.69128704071045,-0.8207057118415833,-0.7369983792304993,0.1763924360275268
4201621754.0,-0.5519920587539673,0.5214493870735168,9.595038414001465,-0.8227036595344543,-0.7079262733459473,0.2646335065364837
4201630087.0,-0.5708491802215576,0.3761338889598846,9.53498077392578,-1.320336937904358,-1.03742778301239,0.2438859343528747
4201638420.0,-0.2021307200193405,-0.0491796061396598,9.697484016418455,-1.36749267578125,-1.3977432250976562,0.1241906061768531
4201646753.0,-0.0698475092649459,0.0477809906005859,9.82214069366455,-0.8931170701980591,-0.7932471632957458,0.2188095897436142
4201655086.0,-0.4631968438625335,0.4452286064624786,9.666130065917969,-0.7769309282302856,-0.377400130033493,0.3421677350997925
4201663419.0,-0.7911616563796997,0.4811717569828033,9.492201805114746,-1.059122920036316,-0.5966323614120483,0.2410427182912826
4201671752.0,-0.5881885290145874,0.0443624146282672,9.565725326538086,-1.3998948335647583,-1.430734395980835,0.1602298319339752
4201680085.0,-0.2062755823135376,-0.1901880800724029,9.792027473449709,-1.019395351409912,-1.439059138298035,0.2232408821582794
4201688418.0,-0.2901192009449005,0.319367378950119,9.8125638961792,-0.7173523306846619,-0.615996778011322,0.2359455525875091
4201696751.0,-0.6891692876815796,0.6891549825668335,9.578594207763672,-0.6688132286071777,-0.4583154618740082,0.2365090101957321
4201705084.0,-0.6958546042442322,0.3822540044784546,9.451744079589844,-1.2479255199432373,-1.3094253540039062,0.2845101058483124
4201713417.0,-0.1737772822380066,-0.086338497698307,9.713876724243164,-1.3702846765518188,-1.5703574419021606,0.2002905160188675
4201721750.0,-0.0171954352408647,-0.0105361379683017,9.820274353027344,-0.798037052154541,-0.7644311785697937,0.2337939143180847
4201730083.0,-0.5224436521530151,0.466594249010086,9.6621675491333,-0.5627191066741943,-0.149305373430252,0.2763391435146332
4201738416.0,-0.867947518825531,0.5425359606742859,9.489619255065918,-1.0547429323196411,-0.7607683539390564,0.2129183113574981
4201746749.0,-0.5644959211349487,0.1920803785324096,9.651455879211426,-1.3644447326660156,-1.7110822200775146,0.2301055043935775
4201755082.0,-0.180567055940628,0.0088046854361891,9.887800216674805,-1.1342750787734983,-1.287832498550415,0.2158127278089523
4201763415.0,-0.3654529154300689,0.2783243656158447,9.755584716796877,-0.7625357508659363,-0.4891038239002228,0.3032853603363037
4201771748.0,-0.7395181059837341,0.482437789440155,9.47996997833252,-0.8029037714004517,-0.5615152716636658,0.2201927602291107
4201780081.0,-0.5813369154930115,0.1952760964632034,9.456672668457031,-1.2074291706085205,-1.5097798109054563,0.2325131893157959
4201788414.0,-0.0557629838585853,0.0138711156323552,9.786036491394045,-1.3018434047698977,-1.5120339393615725,0.2735984325408935
4201796747.0,-0.1016134023666381,0.2463581413030624,9.882638931274414,-0.8374318480491638,-0.5897422432899475,0.2074625194072723
4201805080.0,-0.6343784928321838,0.4526533484458923,9.620494842529297,-0.7810549139976501,-0.2544005811214447,0.2646078765392303
4201813413.0,-0.8323621153831482,0.2149214148521423,9.408255577087402,-1.1745151281356812,-0.986301839351654,0.1373819708824157
4201821746.0,-0.4388039112091064,-0.0100632775574922,9.631536483764648,-1.2167274951934814,-1.6367496252059937,0.2758525013923645
4201830079.0,-0.1528563499450683,0.1747796088457107,9.881380081176758,-0.8586146831512451,-1.116370677947998,0.2952424585819244
4201838412.0,-0.4081912934780121,0.5015788078308105,9.775675773620604,-0.7450156211853027,-0.4948669970035553,0.3105597794055938
4201846745.0,-0.6630327701568604,0.4236485958099365,9.54551887512207,-1.004282832145691,-0.8543115258216858,0.1772120594978332
4201855078.0,-0.4304900765419006,0.0519485212862491,9.49285125732422,-1.235451340675354,-1.4494582414627075,0.1815921068191528
4201863411.0,-0.1107975393533706,0.0864421054720878,9.75927448272705,-1.0647069215774536,-1.2751277685165403,0.1531603038311004
4201871744.0,-0.2590758204460144,0.3571629822254181,9.829273223876951,-0.8275189995765686,-0.550040066242218,0.2556940913200378
4201880077.0,-0.6198224425315857,0.3805312514305115,9.633334159851074,-0.8841521739959717,-0.3946641385555267,0.2088456600904464
4201888410.0,-0.6623532772064209,0.1437220722436905,9.510112762451172,-1.1965177059173584,-1.0889378786087036,0.381690502166748
4201896743.0,-0.3620141446590423,0.1317924857139587,9.694015502929688,-1.1111454963684082,-1.3810172080993652,0.2551818192005157
4201905076.0,-0.3301610052585602,0.3516909480094909,9.796926498413086,-0.925749659538269,-0.9717015624046326,0.2233176976442337
4201913409.0,-0.5661762356758118,0.3065493404865265,9.671079635620115,-1.0504398345947266,-0.8314893245697021,0.095989353954792
4201921742.0,-0.5842514634132385,0.1003972291946411,9.513301849365234,-1.1432658433914185,-1.1871685981750488,0.1287243366241455
4201930075.0,-0.2497672289609909,0.137026160955429,9.622282028198242,-1.0682673454284668,-1.498202204704285,0.2708064913749695
4201938408.0,-0.1450453549623489,0.3913248777389526,9.792542457580566,-0.8084621429443359,-0.9466509819030762,0.2482403665781021
4201946741.0,-0.4508293867111206,0.3135234117507934,9.639893531799316,-0.9004939794540405,-0.4308314323425293,0.3094327747821808
4201955074.0,-0.6643202900886536,0.033124815672636,9.52590560913086,-1.172389030456543,-0.8052346706390381,0.2224724292755127
4201963407.0,-0.5107701420783997,0.0469227619469165,9.626132011413574,-0.8989059329032898,-1.1769739389419556,0.2375079840421676
4201971740.0,-0.3165633678436279,0.355002760887146,9.801762580871582,-0.8872770667076111,-1.0692662000656128,0.2190657407045364
4201980073.0,-0.4259732663631439,0.4656715393066406,9.713696479797363,-0.9343560338020324,-0.5909715890884399,0.2941923141479492
4201988406.0,-0.5807822346687317,0.1942783743143081,9.572006225585938,-1.085531234741211,-0.9902974963188172,0.2574358582496643
4201996739.0,-0.3762891292572021,-0.0242634993046522,9.5180025100708,-1.080280303955078,-1.301254391670227,0.2639162838459015
4202005072.0,-0.2330110073089599,0.1772045344114303,9.715556144714355,-0.9932431578636168,-0.8874821066856384,0.1613056510686874
4202013405.0,-0.4762648940086365,0.403098464012146,9.683712005615234,-0.8655562400817871,-0.4365690052509308,0.1199386566877365
4202021738.0,-0.6577396392822266,0.3404968380928039,9.602785110473633,-1.0838408470153809,-0.7870742678642273,0.1529553979635238
4202030071.0,-0.4485179781913757,0.121699221432209,9.680988311767578,-1.2296112775802612,-1.2569416761398315,0.2322826534509658
4202038404.0,-0.2977013289928436,0.1862743347883224,9.798171997070312,-0.9247249960899352,-0.9868395924568176,0.179542988538742
4202046737.0,-0.518609881401062,0.3325713276863098,9.62805461883545,-0.8255980014801025,-0.6267035007476807,0.2187327593564987
4202055070.0,-0.6380335688591003,0.3186806142330169,9.503524780273438,-1.0878877639770508,-0.8982913494110107,0.2871739864349365
4202063403.0,-0.349985271692276,0.1344993561506271,9.634559631347656,-1.0727753639221191,-1.4426705837249756,0.245243489742279
4202071736.0,-0.1200890839099884,0.1821614503860473,9.878090858459473,-0.922214925289154,-0.9579211473464966,0.2941666841506958
4202080069.0,-0.380209356546402,0.3877770602703094,9.758816719055176,-0.6857185959815979,-0.2950503230094909,0.3012874126434326
4202088402.0,-0.711764931678772,0.3913751244544983,9.534061431884766,-1.0688819885253906,-0.4981712698936462,0.2650433182716369
4202096735.0,-0.660686194896698,0.0299484003335237,9.50350284576416,-1.2130132913589478,-1.2561991214752195,0.2739058136940002
4202105068.0,-0.2790825664997101,0.0326526276767253,9.7878999710083,-0.958254098892212,-1.1351715326309204,0.2409402579069137
4202113401.0,-0.2913853526115417,0.3788789510726928,9.847533226013184,-0.7574641704559326,-0.6853345036506653,0.202288419008255
4202121734.0,-0.5613622665405273,0.5934069752693176,9.680736541748049,-0.9249812364578248,-0.675165593624115,0.1894044578075409
4202130067.0,-0.5404127836227417,0.2403555810451507,9.53606128692627,-1.2260764837265017,-1.2873201370239258,0.2315142601728439
4202138400.0,-0.2122853994369506,0.0380521230399608,9.665892601013184,-1.169392228126526,-1.4561692476272583,0.3512095510959625
4202146733.0,-0.159844696521759,0.2776589095592499,9.818398475646973,-0.8841777443885803,-0.7293397188186646,0.2214990854263305
4202155066.0,-0.5174581408500671,0.4911141991615295,9.765225410461426,-0.9541046619415284,-0.2045552730560302,0.222651720046997
4202163399.0,-0.6930460929870605,0.3207692503929138,9.590338706970217,-1.1596332788467407,-0.7222958207130432,0.2363041043281555
4202171732.0,-0.4504277408123016,0.1310099363327026,9.62442398071289,-1.2685705423355105,-1.1809955835342407,0.2451922446489334
4202180065.0,-0.319059818983078,0.243761658668518,9.776483535766602,-1.0524375438690186,-0.9673983454704284,0.2440396249294281
4202188398.0,-0.5008851289749146,0.2936383783817291,9.643940925598145,-1.0247743129730225,-0.5541126728057861,0.1916584968566894
4202196731.0,-0.5960606336593628,0.1611107140779495,9.42080307006836,-1.1502329111099243,-0.9518762826919556,0.1649941056966781
4202205064.0,-0.3072107434272766,0.0655030086636543,9.556628227233888,-1.0695736408233645,-1.4544274806976318,0.2020834982395172
4202213397.0,-0.1448521316051483,0.1899939030408859,9.72548484802246,-0.9954714775085448,-1.0843273401260376,0.2531582713127136
4202221730.0,-0.3882777690887451,0.3051903545856476,9.595760345458984,-0.796807587146759,-0.3839573562145233,0.2135074436664581
4202230063.0,-0.6629469394683838,0.2042208164930343,9.509740829467772,-1.0283859968185425,-0.6994735598564148,0.2379434406757354
4202238396.0,-0.590538740158081,0.0018311277963221,9.486980438232422,-0.9386849403381348,-1.132712721824646,0.3252879679203033
4202246729.0,-0.3549025952816009,0.2052865922451019,9.738266944885254,-0.8036465644836426,-0.9024150371551514,0.2232664674520492
4202255062.0,-0.4473460912704468,0.5131734609603882,9.773056983947754,-0.7736523747444153,-0.6809800863265991,0.2598179876804352
4202263395.0,-0.5226582288742065,0.4369528591632843,9.618928909301758,-0.9688839912414552,-0.8508280515670776,0.195193275809288
4202271728.0,-0.3373326659202575,0.1020620167255401,9.587329864501951,-1.3307619094848633,-1.105279803276062,0.3542832732200622
4202280061.0,-0.2410436570644378,0.1511324197053909,9.760369300842283,-1.060249924659729,-0.9676289558410645,0.2876350283622741
4202288394.0,-0.4411730468273163,0.324073851108551,9.716257095336914,-0.8946539163589478,-0.6215550899505615,0.2404792308807373
4202296727.0,-0.6215033531188965,0.4768800437450409,9.690263748168944,-1.1649866104125977,-0.7243961691856384,0.200854018330574
4202305060.0,-0.5711666345596313,0.1591156870126724,9.66762351989746,-1.3771493434906006,-1.1571998596191406,0.1403532177209854
4202313393.0,-0.4234412312507629,0.082729697227478,9.755396842956545,-1.1777681112289429,-1.1324820518493652,0.1788001656532287
4202321726.0,-0.4482472240924835,0.3264485895633697,9.682109832763672,-0.983253538608551,-0.8379696011543274,0.2709345519542694
4202330059.0,-0.5707539319992065,0.385295033454895,9.676487922668455,-1.2005391120910645,-1.0189086198806765,0.2134562134742736
4202338392.0,-0.4695181250572204,0.0610450282692909,9.61345672607422,-1.2425209283828735,-1.3339124917984009,0.1761619001626968
4202346725.0,-0.1909796446561813,0.035474132746458,9.767046928405762,-1.1396541595458984,-1.3268173933029177,0.2457557916641235
4202355058.0,-0.2365874350070953,0.363822191953659,9.869900703430176,-0.8641986846923828,-0.8641730546951294,0.2634295523166656
4202363391.0,-0.5673062801361084,0.3778203129768371,9.65593719482422,-1.093010663986206,-0.4785251319408417,0.1907107830047607
4202371724.0,-0.7222204208374023,0.0729855298995971,9.523659706115724,-1.3902381658554075,-1.014118790626526,0.2148906141519546
4202380057.0,-0.4103197753429413,-0.0470757186412811,9.66480827331543,-0.9811277389526368,-1.495051622390747,0.2316935509443283
4202388390.0,-0.2937886714935303,0.2826018631458282,9.830883026123049,-0.732464611530304,-1.013375997543335,0.2019041925668716
4202396723.0,-0.5171791315078735,0.5246753096580505,9.757100105285645,-0.8184260725975037,-0.6871787309646606,0.1112554371356964
4202405056.0,-0.561920166015625,0.2387046813964843,9.52481174468994,-1.159658908843994,-1.193315863609314,0.1230635866522789
4202413389.0,-0.2736417353153229,0.0348072312772274,9.60659122467041,-1.1607859134674072,-1.5144672393798828,0.1968325823545456
4202421722.0,-0.1835491061210632,0.1343804597854614,9.68926239013672,-0.9162467122077942,-0.933075487613678,0.1571049243211746
4202430055.0,-0.4747341275215149,0.395731121301651,9.638664245605469,-0.8029550313949585,-0.658695638179779,0.1378942281007766
4202438388.0,-0.6373612284660339,0.3262340128421783,9.492287635803224,-1.0819451808929443,-1.0304605960845947,0.2276721149682998
4202446721.0,-0.4519603848457336,0.1103107035160064,9.597661972045898,-1.2194167375564575,-1.3823232650756836,0.1823861598968505
4202455054.0,-0.3738719522953033,0.1487505286931991,9.691393852233888,-1.013222336769104,-0.957280695438385,0.1818226277828216
4202463387.0,-0.4839828014373779,0.3354325592517853,9.62746238708496,-0.7335148453712463,-0.7375875115394592,0.2924505174160003
4202471720.0,-0.6220470070838928,0.3115420639514923,9.485692977905272,-0.9986733198165894,-1.220723032951355,0.2770563662052154
4202480053.0,-0.3537089824676513,0.1004877686500549,9.510406494140623,-1.053026795387268,-1.6596230268478394,0.3094583451747894
4202488386.0,-0.1625483632087707,0.1659531146287918,9.671265602111816,-0.8871746063232422,-1.3257158994674685,0.3147349059581756
4202496719.0,-0.2661358416080475,0.3761036396026611,9.676365852355955,-0.8681688904762268,-0.8990596532821655,0.3067176640033722
4202505052.0,-0.5924627184867859,0.3256333470344543,9.53562068939209,-0.8935526013374329,-0.743786096572876,0.203748419880867
4202513385.0,-0.6422251462936401,0.0506707392632961,9.500835418701172,-1.1120164394378662,-1.201819896697998,0.2264938801527023
4202521718.0,-0.3883678317070007,0.0530664175748825,9.667914390563965,-0.929591715335846,-1.5104457139968872,0.2404792308807373
4202530051.0,-0.3588438332080841,0.3369203507900238,9.757980346679688,-0.8871234059333801,-1.1292290687561035,0.2778247892856598
4202538384.0,-0.5728068351745605,0.3977696001529693,9.627476692199709,-0.7275723814964294,-1.067934274673462,0.1729857325553894
4202546717.0,-0.4688328206539154,0.1902054846286773,9.641263961791992,-1.0383752584457395,-1.5936408042907717,0.333689421415329
4202555050.0,-0.2511273622512817,-0.0572048351168632,9.610673904418944,-1.1274105310440063,-1.7317527532577517,0.3377621173858642
4202563383.0,-0.2462151199579239,0.2233404517173767,9.733245849609377,-0.8758786916732788,-1.19564688205719,0.189788669347763
4202571716.0,-0.5334160923957825,0.3236876130104065,9.637797355651855,-0.7469878792762756,-0.8960115313529968,0.178851380944252
4202580049.0,-0.6242436766624451,0.2014541327953338,9.70333194732666,-1.0814330577850342,-1.363010287284851,0.1969350278377533
4202588382.0,-0.3537908494472503,0.0136630926281213,9.63987159729004,-1.1203666925430298,-1.4567840099334717,0.162099689245224
4202596715.0,-0.3494235277175903,0.2718509435653686,9.83200454711914,-0.8076168298721313,-1.2954143285751345,0.2154029309749603
4202605048.0,-0.5602535605430603,0.3125148713588714,9.674413681030272,-0.7429920434951782,-1.249590277671814,0.267374187707901
4202613381.0,-0.5281515121459961,0.1412287503480911,9.592788696289062,-1.048441767692566,-1.767510175704956,0.2549256682395935
4202621714.0,-0.2595480978488922,0.0570284612476825,9.694082260131836,-0.9875823855400084,-1.87309205532074,0.2888645231723785
4202630047.0,-0.1534213274717331,0.2709711492061615,9.878863334655762,-0.7150213718414307,-1.3421858549118042,0.3890417814254761
4202638380.0,-0.4425106346607208,0.4007165729999542,9.791833877563477,-0.7593339681625366,-0.8345117568969727,0.2958828210830688
4202646713.0,-0.6522248387336731,0.2333185821771621,9.62517261505127,-1.094444990158081,-1.1564570665359497,0.1915560513734817
4202655046.0,-0.5806474089622498,0.0773135423660278,9.718636512756348,-1.0613001585006714,-1.7158206701278689,0.4098661541938782
4202663379.0,-0.3448766767978668,0.2659238576889038,9.854634284973145,-0.7404306530952454,-1.60593581199646,0.2447824329137802
4202671712.0,-0.3816041648387909,0.6312384009361267,9.861102104187012,-0.6702988743782043,-1.0410906076431274,0.2064635455608368
4202680045.0,-0.5427842736244202,0.4879602491855621,9.73719596862793,-1.1995147466659546,-1.2905220985412598,0.2921688258647918
4202688378.0,-0.3703001141548157,0.1372630000114441,9.658381462097168,-1.3779176473617554,-1.773427128791809,0.3123271465301513
4202696711.0,-0.1934063881635666,0.2264689058065414,9.744379997253418,-1.025875687599182,-1.5313726663589478,0.3774129450321197
4202705044.0,-0.3732926845550537,0.518595278263092,9.786083221435549,-0.8266225457191467,-0.9468815326690674,0.3979299068450928
4202713377.0,-0.6026628017425537,0.3952661156654358,9.635458946228027,-1.096263766288757,-0.9046436548233032,0.2763391733169555
4202721710.0,-0.5340184569358826,0.3323669135570526,9.711087226867676,-1.2370394468307495,-1.3021252155303955,0.2827683687210083
4202730043.0,-0.5033011436462402,0.1131802722811698,9.54010009765625,-1.156072974205017,-1.290061116218567,0.3351494967937469
4202738376.0,-0.4145501554012298,0.4157661497592926,9.837905883789062,-0.9086393117904664,-1.020829677581787,0.2352539449930191
4202746709.0,-0.508202314376831,0.2997685074806213,9.48356819152832,-1.210067629814148,-1.0419358015060425,0.2510066926479339
4202755042.0,-0.4175913035869598,0.2570578157901764,9.608864784240724,-1.2079417705535889,-1.270542860031128,0.3173987865447998
4202763375.0,-0.2336950600147247,0.207637071609497,9.660807609558104,-1.1071498394012451,-1.4254579544067385,0.2227542102336883
4202771708.0,-0.2341839969158172,0.3727990984916687,9.737895011901855,-0.8678359389305115,-0.7672744989395142,0.1606140583753585
4202780041.0,-0.5277796983718872,0.426144927740097,9.615066528320312,-1.085659384727478,-0.6734238266944885,0.1410703957080841
4202788374.0,-0.7050413489341736,0.1625341475009918,9.481887817382812,-1.1519745588302612,-1.0187036991119385,0.2158383727073669
4202796707.0,-0.4774236977100372,0.142581045627594,9.637821197509766,-0.9976232051849364,-1.4082705974578855,0.2599460780620575
4202805040.0,-0.2916714251041412,0.3968111872673034,9.82811450958252,-0.929438054561615,-1.1020524501800537,0.1866381168365478
4202813373.0,-0.456973522901535,0.4991971552371979,9.689557075500488,-0.936507761478424,-0.7879962921142578,0.2648639976978302
4202821706.0,-0.4833515584468841,0.3546852469444275,9.612199783325195,-1.278175950050354,-1.260373830795288,0.3337150514125824
4202830039.0,-0.2430557757616043,0.0991633310914039,9.588180541992188,-1.282479166984558,-1.440032124519348,0.2466522753238678
4202838372.0,-0.1068492531776428,0.2051577717065811,9.706779479980469,-1.0092521905899048,-1.014503002166748,0.2629685401916504
4202846705.0,-0.4418169856071472,0.4129835069179535,9.684326171875,-1.012684345245361,-0.5680981278419495,0.2875069379806518
4202855038.0,-0.6263172626495361,0.2954124212265014,9.63555908203125,-1.360115885734558,-0.9344327449798584,0.2814876139163971
4202863371.0,-0.4632339477539062,0.0798633471131324,9.613204002380373,-1.3255109786987305,-1.2962594032287598,0.1903009414672851
4202871704.0,-0.3061702847480774,0.2064238935708999,9.74337387084961,-1.15351140499115,-0.941579282283783,0.2572309672832489
4202880037.0,-0.4518164694309234,0.2950404584407806,9.658419609069824,-1.0794349908828735,-0.7718592882156372,0.3234950006008148
4202888370.0,-0.5450322031974792,0.1666542142629623,9.483139991760254,-1.194648027420044,-1.0655266046524048,0.2533632218837738
4202896703.0,-0.2585234642028808,0.0402219295501709,9.623089790344238,-1.2538679838180542,-1.3988701105117798,0.238737478852272
4202905036.0,-0.0523873642086982,0.1005904972553253,9.73361110687256,-0.9334339499473572,-1.0603268146514893,0.1865356415510177
4202913369.0,-0.3346602916717529,0.3403822183609009,9.70654296875,-0.9655285477638244,-0.3761962354183197,0.3678587973117828
4202921702.0,-0.6953350305557251,0.2441980540752411,9.542357444763184,-1.0990811586380005,-0.5910228490829468,0.2759805619716644
4202930035.0,-0.555282711982727,-0.0865639671683311,9.567682266235352,-1.1751298904418943,-1.2544827461242676,0.1413777619600296
4202938368.0,-0.2507714927196502,-0.0284825600683689,9.72947597503662,-0.863558292388916,-1.1831982135772705,0.1304660886526107
4202946701.0,-0.3853521645069122,0.3127581179141998,9.729876518249512,-0.6930955648422241,-0.616201639175415,0.1738053858280182
4202955034.0,-0.5731287002563477,0.4119393825531006,9.603900909423828,-0.9414255619049072,-0.7563627362251282,0.1165575683116912
4202963367.0,-0.4340730607509613,0.1062492877244949,9.58925437927246,-1.2586066722869873,-1.305275797843933,0.1027258858084678
4202971700.0,-0.1423773318529129,-0.0960698351264,9.663734436035156,-1.0507471561431885,-1.29103422164917,0.2041070163249969
4202980033.0,-0.1967031806707382,0.201631486415863,9.752429008483888,-0.6888948082923889,-0.4511434435844421,0.2654018998146057
4202988366.0,-0.6239210367202759,0.4409084022045135,9.653247833251951,-0.7785959243774414,-0.4465329945087433,0.2038765251636505
4202996699.0,-0.7348544597625732,0.2036199867725372,9.527822494506836,-1.0530011653900146,-0.9590737223625184,0.2378153502941131
4203005032.0,-0.4202756285667419,-0.0194158423691988,9.67138671875,-1.0082786083221436,-1.3405977487564087,0.1601273864507675
4203013365.0,-0.235843539237976,0.2209298610687255,9.813672065734863,-0.8627898693084717,-0.9402984976768494,0.1607165187597274
4203021698.0,-0.5146901607513428,0.3910244107246399,9.641302108764648,-0.8137898445129395,-0.4940985441207886,0.3037463724613189
4203030031.0,-0.6946554183959961,0.2244205623865127,9.452032089233398,-0.9915014505386353,-1.038785099983215,0.2460375279188156
4203038364.0,-0.2771550416946411,0.0649654865264892,9.63372802734375,-1.071725368499756,-1.552709460258484,0.1474483609199524
4203046697.0,0.0007367428042925,0.1589004099369049,9.826568603515623,-0.8217558264732361,-1.020547866821289,0.1888153254985809
4203055030.0,-0.3686862885951996,0.3817113935947418,9.690083503723145,-0.6198388934135437,-0.1713079959154129,0.1782366633415222
4203063363.0,-0.7875208854675293,0.3900803029537201,9.538795471191406,-0.9077684283256532,-0.577677845954895,0.3062053918838501
4203071696.0,-0.643178403377533,0.0540961623191833,9.596623420715332,-1.139987230300903,-1.4128044843673706,0.2448849081993103
4203080029.0,-0.2424097806215286,0.0641539767384529,9.830367088317873,-0.6962205767631531,-1.2293552160263062,0.2835623621940613
4203088362.0,-0.3227649927139282,0.5149686932563782,9.85667324066162,-0.4789861738681793,-0.6639978289604187,0.2794128656387329
4203096695.0,-0.6134850382804871,0.5835503935813904,9.620831489562988,-0.8287485837936401,-0.736921489238739,0.2307458370923996
4203105028.0,-0.452666312456131,0.1183102428913116,9.478046417236328,-1.155765414237976,-1.3793009519577026,0.3359947204589844
4203113361.0,-0.0733237937092781,0.0801332965493202,9.737043380737305,-0.8921181559562683,-1.324742555618286,0.2855859100818634
4203121694.0,-0.2029547691345214,0.3550742864608764,9.785768508911133,-0.7595388889312744,-0.5411007404327393,0.3181672096252441
4203130027.0,-0.6649211049079895,0.5084670186042786,9.606847763061523,-0.7962184548377991,-0.4124659895896911,0.1970887184143066
4203138360.0,-0.7092973589897156,0.3433507680892944,9.579773902893066,-1.1224926710128784,-1.1080973148345947,0.1960641592741012
4203146693.0,-0.3011886775493622,0.1550181061029434,9.817166328430176,-1.0520278215408323,-1.5097541809082031,0.1974473297595977
4203155026.0,-0.2351425588130951,0.2965067923069,9.813149452209473,-0.7509581446647644,-0.8013925552368164,0.2612011432647705
4203163359.0,-0.6182485818862915,0.5171793699264526,9.625066757202148,-0.9543352723121644,-0.5039857625961304,0.3467527329921722
4203171692.0,-0.6622793078422546,0.3574979901313782,9.59561538696289,-1.2309690713882446,-1.1882444620132446,0.2085383087396621
4203180025.0,-0.1444554924964904,0.0994318276643753,9.651260375976562,-1.105741024017334,-1.5618538856506348,0.2755195498466491
4203188358.0,-0.0016594595508649,0.3806242346763611,9.889348983764648,-0.8709608316421509,-0.7719874382019043,0.2776966989040375
4203196691.0,-0.4743692576885223,0.5270072221755981,9.72048568725586,-0.9091004133224488,-0.1640847772359848,0.2551049590110779
4203205024.0,-0.832841157913208,0.255978912115097,9.501087188720703,-1.3027654886245728,-0.7188634872436523,0.2239836752414703
4203213357.0,-0.5508072376251221,0.0061354953795671,9.629985809326172,-1.228689193725586,-1.4445915222167969,0.1807468384504318
4203221690.0,-0.2196351885795593,0.1790213584899902,9.863584518432615,-0.7395853996276855,-1.1373231410980225,0.2734959721565246
4203230023.0,-0.3635505437850952,0.5235021710395813,9.742815017700195,-0.8271092772483826,-0.6281635165214539,0.2672461271286011
4203238356.0,-0.6793843507766724,0.4596917033195495,9.55206298828125,-1.2429563999176023,-0.7013946175575256,0.217221513390541
4203246689.0,-0.437145471572876,0.0575345791876316,9.530407905578612,-1.3187743425369265,-1.5799628496170044,0.1927599161863327
4203255022.0,-0.0611012279987335,-0.0337383709847927,9.701922416687012,-1.1359658241271973,-1.33030104637146,0.1881749927997589
4203263355.0,-0.2379393279552459,0.3167850971221924,9.710206031799316,-0.7846920490264893,-0.4003761112689972,0.3064358830451965
4203271688.0,-0.7383808493614197,0.4738615453243255,9.602577209472656,-1.1245160102844238,-0.4580337107181549,0.2112277746200561
4203280021.0,-0.7050082087516785,0.1601448208093643,9.555798530578612,-1.296080231666565,-1.277433156967163,0.1800296455621719
4203288354.0,-0.2960682511329651,0.0117478435859084,9.7161283493042,-1.0707005262374878,-1.34208345413208,0.1176333725452423
4203296687.0,-0.2582176327705383,0.257073163986206,9.754217147827148,-0.8375086188316345,-0.8431949615478516,0.2726251184940338
4203305020.0,-0.6371609568595886,0.3839288353919983,9.565532684326172,-0.9128656983375548,-0.4894880354404449,0.2511347532272339
4203313353.0,-0.6077817678451538,0.2058543413877487,9.469260215759276,-1.22592294216156,-1.3030472993850708,0.1177358254790306
4203321686.0,-0.1033924743533134,-0.0074373451061546,9.678921699523926,-1.176256775856018,-1.603169322013855,0.214224636554718
4203330019.0,0.0057580387219786,0.2316877394914627,9.82800579071045,-0.9734177589416504,-0.6985257267951965,0.2579993903636932
4203338352.0,-0.5660400390625,0.4522386193275451,9.596813201904297,-1.0188573598861694,-0.2798611223697662,0.3045916855335235
4203346685.0,-0.8616958260536194,0.2007230818271637,9.450772285461426,-1.3139077425003052,-0.9450883865356444,0.294576495885849
4203355018.0,-0.4609719216823578,-0.0970261171460151,9.626103401184082,-1.173234462738037,-1.6722253561019895,0.182693526148796
4203363351.0,-0.1401171088218689,0.0849399343132972,9.809515953063965,-0.8786963820457458,-1.106022596359253,0.2015199810266494
4203371684.0,-0.412304162979126,0.5006346106529236,9.724261283874512,-0.664919912815094,-0.5289595723152161,0.2261609137058258
4203380017.0,-0.6657937169075012,0.4449498355388641,9.565319061279297,-1.09185791015625,-0.9571783542633056,0.2304896712303161
4203388350.0,-0.328285813331604,0.0011118035763502,9.574915885925291,-1.3290714025497437,-1.548636555671692,0.2425796091556549
4203396683.0,-0.0194842740893363,-0.0653697475790977,9.709219932556152,-0.8920413255691528,-1.099388599395752,0.2262377142906189
4203405016.0,-0.3192240297794342,0.3668479919433594,9.777508735656738,-0.7611013650894165,-0.3307566046714782,0.2036459594964981
4203413349.0,-0.7727216482162476,0.4229619204998016,9.555368423461914,-1.1049467325210571,-0.5212240815162659,0.059053611010313
4203421682.0,-0.6771938800811768,0.1651882082223892,9.599970817565918,-1.2157796621322632,-1.4573475122451782,0.2174520641565323
4203430015.0,-0.1925609111785888,0.0861454904079437,9.805024147033691,-1.0851982831954956,-1.3473598957061768,0.1930160671472549
4203438348.0,-0.1840283423662185,0.3095249831676483,9.791776657104492,-0.6903804540634155,-0.5896396636962891,0.1637389957904815
4203446681.0,-0.6263816356658936,0.4211879968643188,9.55491065979004,-0.9548474550247192,-0.558569610118866,0.1949883699417114
4203455014.0,-0.6296460628509521,0.271394282579422,9.57485580444336,-1.276715874671936,-1.4114724397659302,0.1811566799879074
4203463347.0,-0.1163876429200172,-0.0339277610182762,9.710487365722656,-1.125463843345642,-1.596074104309082,0.1927342861890792
4203471680.0,0.0093988357111811,0.2644334435462951,9.838327407836914,-0.8605615496635437,-0.7864081859588623,0.2398132532835006
4203480013.0,-0.5356048941612244,0.5579503774642944,9.720227241516112,-0.9150941371917723,-0.1990994364023208,0.2681682109832763
4203488346.0,-0.8937548995018005,0.1975972801446914,9.473998069763184,-1.2834267616271973,-0.7862289547920227,0.2925273478031158
4203496679.0,-0.5202452540397644,-0.0517480745911598,9.602956771850586,-1.2183923721313477,-1.494231939315796,0.1689130663871765
4203505012.0,-0.1434717178344726,0.2073179930448532,9.910728454589844,-0.8401980996131897,-1.2681350708007812,0.1841535419225692
4203513345.0,-0.3401319980621338,0.4435263276100158,9.758373260498049,-0.9828949570655824,-0.5133861303329468,0.2620463967323303
4203521678.0,-0.6195651292800903,0.4275968968868255,9.472723960876465,-1.1896274089813232,-0.7104876041412354,0.2482147365808487
4203530011.0,-0.4380608797073364,0.1312155276536941,9.5930814743042,-1.3143943548202517,-1.662312626838684,0.1931441128253936
4203538344.0,-0.0534325093030929,-0.0298621170222759,9.756196975708008,-1.168060302734375,-1.47894024848938,0.2719847559928894
4203546677.0,-0.2415872663259506,0.3332509398460388,9.73324489593506,-0.6675837635993958,-0.4289872050285339,0.2377897351980209
4203555010.0,-0.6993331909179688,0.5582295060157776,9.60915184020996,-0.8352545499801636,-0.3264021873474121,0.2105105817317962
4203563343.0,-0.7175061702728271,0.2299071699380874,9.609857559204102,-1.3085800409317017,-1.2178544998168943,0.2290809154510498
4203571676.0,-0.2937887609004974,0.0124765895307064,9.685739517211914,-1.151590347290039,-1.3549673557281494,0.1568743735551834
4203580009.0,-0.283781886100769,0.3407614529132843,9.773938179016112,-0.8702436089515686,-0.746168315410614,0.2204489111900329
4203588342.0,-0.6257807612419128,0.4778385162353515,9.59307098388672,-0.9493659734725952,-0.6933773159980774,0.2573590278625488
4203596675.0,-0.5720635056495667,0.1598158329725265,9.472740173339844,-1.1512317657470703,-1.3837321996688845,0.1836924999952316
4203605008.0,-0.1153620705008506,0.1045689508318901,9.677422523498535,-1.0209834575653076,-1.555245041847229,0.3355849087238312
4203613341.0,-0.0329889133572578,0.295655608177185,9.833907127380373,-0.8427852392196655,-0.6690694093704224,0.3186026513576507
4203621674.0,-0.4765221774578094,0.4046221077442169,9.57200050354004,-0.9886837601661682,-0.1918250024318695,0.3162204921245575
4203630007.0,-0.8068835735321045,0.2301570326089859,9.443819999694824,-1.273565411567688,-0.7769309282302856,0.2897866368293762
4203638340.0,-0.516560435295105,-0.0409568510949611,9.64584732055664,-1.2930577993392944,-1.434192180633545,0.2959084510803222
4203646673.0,-0.2030262947082519,0.1243450194597244,9.78299331665039,-0.8053884506225586,-1.1794586181640625,0.2055158168077469
4203655006.0,-0.4273322820663452,0.5569632649421692,9.734869003295898,-0.7208613157272339,-0.6354891061782837,0.1491644829511642
4203663339.0,-0.634807825088501,0.4240061342716217,9.59856414794922,-1.213192582130432,-0.9722906947135924,0.2466522753238678
4203671672.0,-0.3407226800918579,-0.0616968534886837,9.48001194000244,-1.2141146659851074,-1.536316156387329,0.2671180367469787
4203680005.0,-0.038246251642704,0.0226888172328472,9.730183601379396,-0.8414531946182251,-1.2031773328781128,0.2723689377307892
4203688338.0,-0.285491406917572,0.4059524536132812,9.746800422668455,-0.7161996960639954,-0.3905658721923828,0.2376360744237899
4203696671.0,-0.6693987846374512,0.3986780047416687,9.603979110717772,-1.0223923921585083,-0.6058791279792786,0.2972404062747955
4203705004.0,-0.6056405901908875,0.1376014947891235,9.593334197998049,-1.2017686367034912,-1.364086031913757,0.2958828210830688
4203713337.0,-0.2902797162532806,0.1134821400046348,9.84854793548584,-1.030511736869812,-1.3564273118972778,0.2769795060157776
4203721670.0,-0.3094606101512909,0.2213518768548965,9.771484375,-0.8813858032226562,-0.7535195350646973,0.1999831199645996
4203730003.0,-0.6215391159057617,0.3894293904304504,9.545146942138672,-1.0879647731781006,-0.632031261920929,0.1499329209327697
4203738336.0,-0.6021400690078735,0.185455784201622,9.548596382141112,-1.1322516202926636,-1.2193655967712402,0.23576620221138
4203746669.0,-0.1687569767236709,-0.0219819881021976,9.722244262695312,-0.989042580127716,-1.52122962474823,0.2622257471084595
4203755002.0,-0.0265943687409162,0.2387332022190094,9.801583290100098,-0.8531590104103088,-0.8195275068283081,0.1854598820209503
4203763335.0,-0.5261631011962891,0.5056559443473816,9.690635681152344,-0.9119436144828796,-0.2552714645862579,0.3212921619415283
4203771668.0,-0.8326840400695801,0.1791428178548813,9.460899353027344,-1.2603228092193604,-0.8313356041908264,0.266733855009079
4203780001.0,-0.4861840307712555,-0.0982997342944145,9.55809211730957,-1.1342494487762451,-1.5770426988601685,0.2955754399299621
4203788334.0,-0.1632636338472366,0.1911883354187011,9.890264511108398,-0.7301594018936157,-1.1826092004776,0.206258624792099
4203796667.0,-0.4227186143398285,0.4796554744243622,9.74971866607666,-0.8144558668136597,-0.6615388989448547,0.1973961144685745
4203805000.0,-0.6924810409545898,0.4390057325363159,9.529081344604492,-1.0843786001205444,-0.7810547947883606,0.1287499368190765
4203813333.0,-0.4429242610931396,0.0722673907876014,9.544754981994627,-1.2313531637191772,-1.599429726600647,0.3058468103408813
4203821666.0,-0.0662957057356834,-0.0300689153373241,9.757744789123535,-1.101412057876587,-1.279866337776184,0.162714421749115
4203829999.0,-0.2369877696037292,0.2805275619029999,9.767816543579102,-0.6780856251716614,-0.4924080371856689,0.2560270726680755
4203838332.0,-0.6981174945831299,0.5319998264312744,9.61656093597412,-0.8980863094329834,-0.538564920425415,0.1320541799068451
4203846665.0,-0.6837289333343506,0.2493562400341034,9.593299865722656,-1.2015893459320068,-1.1880394220352173,0.2329230308532714
4203854998.0,-0.2569762766361236,-0.0100257555022835,9.689446449279783,-1.1619640588760376,-1.5792968273162842,0.3071274757385254
4203863331.0,-0.1765035539865493,0.300183355808258,9.84252643585205,-0.7965002059936523,-0.8261102437973022,0.2953705489635467
4203871664.0,-0.5746236443519592,0.4790330529212951,9.654314041137695,-0.9323068261146544,-0.552985668182373,0.2648639976978302
4203879997.0,-0.6562090516090393,0.2113545387983322,9.483263969421388,-1.2252824306488037,-1.1543054580688477,0.1614849269390106
4203888330.0,-0.1765123754739761,0.0362624190747737,9.657794952392578,-1.2184947729110718,-1.6118268966674805,0.1833851188421249
4203896663.0,0.0334753505885601,0.2810280919075012,9.875480651855469,-0.9898620843887328,-0.9913732409477234,0.1665053218603134
4203904996.0,-0.4481899738311767,0.4803491830825805,9.659127235412598,-0.9175786972045898,-0.3166431784629822,0.2240349054336547
4203913329.0,-0.8203166127204895,0.3117924332618713,9.48983383178711,-1.2178288698196411,-0.6271389722824097,0.1760338246822357
4203921662.0,-0.5632278919219971,0.0023849694989621,9.578731536865234,-1.270542860031128,-1.4773521423339844,0.2813851833343506
4203929995.0,-0.1530279219150543,0.1133439466357231,9.805825233459473,-0.8066690564155579,-1.327534317970276,0.1662491708993911
4203938328.0,-0.2677595317363739,0.504304051399231,9.776705741882324,-0.718684196472168,-0.5361059308052063,0.1937845051288604
4203946661.0,-0.612075924873352,0.4886893928050995,9.55878734588623,-0.961712121963501,-0.6584138870239258,0.2668619155883789
4203954994.0,-0.4589534401893616,0.0484407618641853,9.46790885925293,-1.2002575397491455,-1.3559153079986572,0.2532095313072204
4203963327.0,-0.0889956727623939,-0.0072959000244736,9.732780456542969,-1.0068955421447754,-1.3186463117599487,0.2181436270475387
4203971660.0,-0.2080404311418533,0.3688792586326599,9.801533699035645,-0.8218070864677429,-0.5863097906112671,0.271959125995636
4203979993.0,-0.6824241280555725,0.5217354893684387,9.619193077087402,-1.0018240213394165,-0.3298088908195495,0.2851248681545257
4203988326.0,-0.7317357659339905,0.2046786993741989,9.545912742614746,-1.149285078048706,-1.149438738822937,0.2105361968278885
4203996659.0,-0.2893270552158355,0.0336267352104187,9.727254867553713,-1.1102489233016968,-1.433295726776123,0.2987515926361084
4204004992.0,-0.1824976354837417,0.2425672113895416,9.781133651733398,-0.7713470458984375,-0.746757447719574,0.2461656033992767
4204013325.0,-0.5571349263191223,0.3960600793361664,9.58955192565918,-0.8510585427284241,-0.4763222932815552,0.2812571227550506
4204021658.0,-0.6457443833351135,0.2118672132492065,9.483046531677246,-1.143854737281799,-1.1388856172561646,0.3473418056964874
4204029991.0,-0.2035287618637085,0.0139536652714014,9.63694190979004,-1.1102489233016968,-1.5923601388931274,0.20687335729599
4204038324.0,0.0127891162410378,0.1995998620986938,9.794687271118164,-0.7802096009254456,-0.9611998200416564,0.3308975100517273
4204046657.0,-0.4259589612483978,0.3993932902812958,9.676015853881836,-0.8006754517555237,-0.1859593391418457,0.2929884791374206
4204054990.0,-0.8430197834968567,0.2046642899513244,9.428606033325195,-1.2058669328689575,-0.6719126105308533,0.2334097176790237
4204063323.0,-0.5783680081367493,-0.1155745834112167,9.49216651916504,-1.0694198608398438,-1.4658257961273191,0.3742623925209045
4204071656.0,-0.1752660721540451,0.0623156689107418,9.815669059753418,-0.8415812849998474,-1.25478994846344,0.2180155515670776
4204079989.0,-0.3152615427970886,0.4951412379741668,9.782020568847656,-0.5754493474960327,-0.5915094614028931,0.2209099531173706
4204088322.0,-0.6519387364387512,0.4820587038993835,9.569280624389648,-0.971163809299469,-0.6935310959815979,0.2451153993606567
4204096655.0,-0.4560362696647644,0.0547022111713886,9.542205810546877,-1.1501048803329468,-1.4289926290512085,0.3336894810199737
4204104988.0,-0.0575017035007476,0.0117592737078666,9.69581413269043,-0.8868929743766785,-1.2276389598846436,0.2337939143180847
4204113321.0,-0.2121604681015014,0.3805527091026306,9.810331344604492,-0.6434038877487183,-0.4894880354404449,0.2207306623458862
4204121654.0,-0.6658437252044678,0.5997517108917236,9.70787525177002,-0.9755693674087524,-0.4118768870830536,0.2150955349206924
4204129987.0,-0.7367900609970093,0.3057130575180053,9.611842155456545,-1.3193378448486328,-1.181917667388916,0.1765973269939422
4204138320.0,-0.3265344500541687,0.0657334327697753,9.78271484375,-1.1529736518859863,-1.4382649660110474,0.2253156155347824
4204146653.0,-0.2227396070957183,0.292100578546524,9.867746353149414,-0.9441151022911072,-0.9262619018554688,0.2407097667455673
4204154986.0,-0.6017758250236511,0.4406508803367615,9.633384704589844,-1.1520003080368042,-0.4439715147018432,0.2767489850521087
4204163319.0,-0.6554328799247742,0.2041789293289184,9.495786666870115,-1.2856296300888062,-1.252612829208374,0.2068477421998977
4204171652.0,-0.2052626460790634,-0.0010512282606214,9.686549186706545,-1.1739516258239746,-1.6051671504974363,0.2273647487163543
4204179985.0,0.0063588772900402,0.2120245695114135,9.848520278930664,-0.9183727502822876,-0.9179627895355223,0.2445775270462036
4204188318.0,-0.421917587518692,0.4117462635040283,9.646753311157228,-0.8973434567451477,-0.2998914420604706,0.4005681872367859
4204196651.0,-0.7767200469970703,0.2440764605998993,9.466272354125977,-1.2018967866897583,-0.762202799320221,0.2349209487438202
4204204984.0,-0.5345782041549683,-0.114618219435215,9.538983345031738,-1.191138744354248,-1.5754035711288452,0.1309784054756164
4204213317.0,-0.1784062087535858,0.0706843957304954,9.80107593536377,-0.7240375280380249,-1.1606833934783936,0.3128138482570648
4204221650.0,-0.3591871559619903,0.5269857048988342,9.795889854431152,-0.5825957655906677,-0.5815455913543701,0.1880469024181366
4204229983.0,-0.6390062570571899,0.4719375967979431,9.52509880065918,-0.9326143264770508,-0.765430212020874,0.1598968803882599
4204238316.0,-0.4685668051242828,0.0814241915941238,9.480247497558594,-1.2093504667282104,-1.3081445693969729,0.2059256285429
4204246649.0,-0.0615001432597637,-0.001924114767462,9.714411735534668,-1.0318695306777954,-1.2537657022476196,0.2884546816349029
4204254982.0,-0.1741216629743576,0.3390948176383972,9.737958908081056,-0.6535216569900513,-0.4349041283130646,0.2316423505544662
4204263315.0,-0.6414241790771484,0.5324289202690125,9.571382522583008,-0.8744186758995056,-0.5021926760673523,0.2447055876255035
4204271648.0,-0.6718522310256958,0.2877445518970489,9.584301948547363,-1.1192651987075806,-1.179048776626587,0.1596919596195221
4204279981.0,-0.2762451767921448,0.0304446723312139,9.668821334838867,-1.2126545906066897,-1.2624231576919556,0.1905058473348617
4204288314.0,-0.222832515835762,0.2707279622554779,9.780210494995115,-0.849854588508606,-0.6496025919914246,0.3206517994403839
4204296647.0,-0.5850026607513428,0.4477463066577911,9.579479217529297,-0.9638636112213136,-0.4982992708683014,0.361941933631897
4204304980.0,-0.6636337637901306,0.2437115311622619,9.476078987121582,-1.1476713418960571,-1.179714918136597,0.3025425374507904
4204313313.0,-0.2047061026096344,0.0065407236106693,9.619651794433594,-1.1299207210540771,-1.5810129642486572,0.2453715801239013
4204321646.0,0.0321734882891178,0.2620658576488495,9.84510898590088,-0.8299779891967773,-0.9453956484794616,0.2003929615020752
4204329979.0,-0.4096004068851471,0.4116675853729248,9.683125495910645,-0.9929102659225464,-0.2370853722095489,0.2297212779521942
4204338312.0,-0.8337353467941284,0.22904834151268,9.451952934265137,-1.16301429271698,-0.732900083065033,0.2708320915699005
4204346645.0,-0.5441770553588867,-0.0983013287186622,9.59475803375244,-1.2040740251541138,-1.4379065036773682,0.211535170674324
4204354978.0,-0.1720331013202667,0.0511355772614479,9.771777153015137,-0.853466272354126,-1.2165480852127075,0.2243934869766235
4204363311.0,-0.3118569850921631,0.481729507446289,9.78933811187744,-0.6967840194702148,-0.5437133312225342,0.3637349605560303
4204371644.0,-0.6361881494522095,0.4546132385730743,9.54813003540039,-1.039502501487732,-0.6615644693374634,0.2293370515108108
4204379977.0,-0.4853618741035461,0.0048750210553407,9.57007122039795,-1.1884236335754397,-1.4070923328399658,0.2545158267021179
4204388310.0,-0.1049894317984581,-0.0607920140027999,9.717229843139648,-0.9482133984565736,-1.3287898302078247,0.3410407304763794
4204396643.0,-0.1935846805572509,0.3344739973545074,9.837297439575195,-0.5411007404327393,-0.5033453702926636,0.1827703863382339
4204404976.0,-0.6457443833351135,0.4582111239433288,9.628320693969728,-0.8236768841743469,-0.4169228971004486,0.2135842889547348
4204413309.0,-0.6881893277168274,0.1931031197309494,9.580580711364746,-1.1899348497390747,-1.217726230621338,0.2066172063350677
4204421642.0,-0.2729637324810028,0.0431415736675262,9.789252281188965,-0.9884276390075684,-1.4746627807617188,0.2990077435970306
4204429975.0,-0.239934965968132,0.214635357260704,9.836847305297852,-0.7180438041687012,-0.770399272441864,0.2812826931476593
4204438308.0,-0.6055313348770142,0.4053513705730438,9.614449501037598,-0.7355127334594727,-0.4967112243175506,0.2211404889822006
4204446641.0,-0.6619955897331238,0.1872757375240326,9.520855903625488,-1.0906285047531128,-1.179894208908081,0.2580506205558777
4204454974.0,-0.1973730325698852,0.0155770285055041,9.70705509185791,-1.0150152444839478,-1.4865732192993164,0.2767489850521087
4204463307.0,-0.0121097629889845,0.2363227754831314,9.785310745239258,-0.8245222568511963,-0.8245478868484497,0.2921943962574005
4204471640.0,-0.4226900935173034,0.4809213876724243,9.755784034729004,-0.93507319688797,-0.2548616230487823,0.3003652989864349
4204479973.0,-0.8295295238494873,0.1563897579908371,9.442546844482422,-1.17192804813385,-0.6527531147003174,0.3263125419616699
4204488306.0,-0.5684025883674622,-0.058743443340063,9.555709838867188,-0.9275426864624025,-1.422768235206604,0.2963438630104065
4204496639.0,-0.1705237776041031,0.1522482633590698,9.860709190368652,-0.7470903396606445,-1.1795355081558228,0.1207839176058769
4204504972.0,-0.3230794668197632,0.512336790561676,9.811963081359863,-0.7345393896102905,-0.5323662161827087,0.2837929129600525
4204513305.0,-0.633305549621582,0.443240225315094,9.545418739318848,-0.942603886127472,-0.854619026184082,0.2267500311136245
4204521638.0,-0.4702318012714386,0.1072286590933799,9.543018341064451,-1.116806149482727,-1.465057373046875,0.3005958497524261
4204529971.0,-0.1205468624830246,0.0116305230185389,9.693181991577148,-0.982715666294098,-1.311551213264465,0.1427609175443649
4204538304.0,-0.2293418049812317,0.356919527053833,9.752105712890623,-0.7409685254096985,-0.4548319578170776,0.2233689278364181
4204546637.0,-0.6453225612640381,0.5528501868247986,9.65839672088623,-0.8157622814178467,-0.3516322672367096,0.2403511852025985
4204554970.0,-0.7233695387840271,0.2560035288333893,9.591514587402344,-1.20035982131958,-1.1651660203933716,0.1987280547618866
4204563303.0,-0.3552875816822052,0.1692835986614227,9.715005874633787,-1.1099416017532349,-1.4588074684143066,0.1657881438732147
4204571636.0,-0.2449562549591064,0.3248248994350433,9.820338249206545,-0.9986989498138428,-1.0055123567581177,0.1630986332893371
4204579969.0,-0.5594882369041443,0.3434294462203979,9.603507041931152,-0.9713173508644104,-0.4964550733566284,0.22659632563591
4204588302.0,-0.6774113178253174,0.2575573623180389,9.534379005432127,-1.1438548564910889,-1.2228235006332395,0.2364065647125244
4204596635.0,-0.2746325433254242,0.1443187743425369,9.67072868347168,-1.1067911386489868,-1.6479429006576538,0.1198874041438102
4204604968.0,-0.0089553035795688,0.3501746654510498,9.791777610778809,-1.0485442876815796,-1.1251821517944336,0.1963202953338623
4204613301.0,-0.3501602709293365,0.4724452793598175,9.723731994628906,-0.8467810153961182,-0.3823949098587036,0.271216332912445
4204621634.0,-0.6897200345993042,0.2449634075164795,9.526571273803713,-1.1644231081008911,-0.775675892829895,0.2354332357645034
4204629967.0,-0.6068675518035889,-0.0084733450785279,9.541560173034668,-1.171082854270935,-1.3926970958709717,0.1052873060107231
4204638300.0,-0.2848096191883087,0.1818812638521194,9.733875274658203,-1.003130316734314,-1.4160830974578855,0.2350233942270279
4204646633.0,-0.3208908140659332,0.5765120387077332,9.828100204467772,-0.7952452301979065,-0.8477798700332642,0.1113322749733924
4204654966.0,-0.560053288936615,0.4625600576400757,9.638148307800291,-1.1840181350708008,-0.8197067379951477,0.2383532524108886
4204663299.0,-0.496410071849823,0.0733866542577743,9.507359504699709,-1.2726175785064695,-1.542847752571106,0.3062565922737121
4204671632.0,-0.1384158879518509,0.083494909107685,9.689340591430664,-1.160171389579773,-1.4335776567459106,0.2266732007265091
4204679965.0,-0.1933771073818206,0.2898260354995727,9.762378692626951,-0.8801819682121277,-0.7140992879867554,0.288941353559494
4204688298.0,-0.5128588676452637,0.4466020464897156,9.666967391967772,-0.953105628490448,-0.4487101435661316,0.2674254179000854
4204696631.0,-0.6480618715286255,0.2591975629329681,9.655865669250488,-1.2002830505371094,-1.1098392009735107,0.361327201128006
4204704964.0,-0.3711149096488952,0.0485554970800876,9.695581436157228,-1.2052265405654907,-1.4214874505996704,0.283255010843277
4204713297.0,-0.3114347755908966,0.2543694078922272,9.72026252746582,-0.9190642833709716,-0.9414511919021606,0.3032853305339813
4204721630.0,-0.6224116683006287,0.4511013031005859,9.677632331848145,-1.2283306121826172,-0.892271876335144,0.2653762698173523
4204729963.0,-0.6138030886650085,0.1425407081842422,9.510563850402832,-1.3762272596359253,-1.5280170440673828,0.3314097821712494
4204738296.0,-0.1322770416736602,-0.0300742499530315,9.57504940032959,-1.2142173051834106,-1.740564227104187,0.24749755859375
4204746629.0,0.0692967399954795,0.3351965248584747,9.954111099243164,-0.8112541437149048,-0.8871490955352783,0.316579133272171
4204754962.0,-0.4603283703327179,0.346719741821289,9.57485294342041,-1.0257219076156616,-0.2772228717803955,0.3572545051574707
4204763295.0,-0.7558552026748657,0.1923327893018722,9.52736473083496,-1.256403923034668,-0.7070297598838806,0.199778214097023
4204771628.0,-0.5045199394226074,-0.1209340393543243,9.570655822753906,-1.1105306148529053,-1.499431610107422,0.269679456949234
4204779961.0,-0.1855661273002624,0.0481315851211547,9.764596939086914,-0.9202938079833984,-1.1381429433822632,0.2475999891757965
4204788294.0,-0.3643372058868408,0.4318672120571136,9.72569179534912,-0.660155713558197,-0.6211195588111877,0.2383788675069809
4204796627.0,-0.6080417037010193,0.4239418506622314,9.517580032348633,-1.130561113357544,-0.8802587985992432,0.2846125662326813
4204804960.0,-0.4403515160083771,-0.0080481190234422,9.570201873779297,-1.3913397789001465,-1.4755080938339231,0.2856883704662323
4204813293.0,-0.1469981223344802,-0.109181098639965,9.610580444335938,-0.9118411540985109,-1.304584264755249,0.2168373018503189
4204821626.0,-0.2297634929418563,0.3283514082431793,9.737072944641112,-0.5521916747093201,-0.5711461901664734,0.1982413530349731
4204829959.0,-0.61695396900177,0.4389916062355041,9.63841438293457,-0.9083319306373596,-0.5657159090042114,0.2600741386413574
4204838292.0,-0.5969476699829102,0.1506102681159973,9.588364601135254,-1.2050728797912598,-1.1408836841583252,0.2332304120063781
4204846625.0,-0.2750488817691803,0.0505780465900898,9.781232833862305,-1.0974674224853516,-1.3274577856063845,0.3158106803894043
4204854958.0,-0.2425099909305572,0.2069961279630661,9.755784034729004,-0.7231667041778564,-0.8672979474067688,0.2113558501005172
4204863291.0,-0.5677640438079834,0.348522275686264,9.541605949401855,-0.7657374739646912,-0.6203254461288452,0.1372794806957245
4204871624.0,-0.6079415678977966,0.1436433941125869,9.49911880493164,-0.9977768659591676,-1.2435710430145264,0.3210872113704681
4204879957.0,-0.1758568733930587,-0.0288221780210733,9.687481880187988,-1.0552808046340942,-1.5221000909805298,0.2307202219963073
4204888290.0,-0.0301134679466485,0.2390480041503906,9.786269187927246,-0.8346142172813416,-0.7527512311935425,0.199624553322792
4204896623.0,-0.434299498796463,0.452560156583786,9.720705032348633,-0.69089275598526,-0.3146452605724334,0.3650156259536743
4204904956.0,-0.7716487050056458,0.1406177431344986,9.434005737304688,-1.007638454437256,-0.7014459371566772,0.4137339293956756
4204913289.0,-0.5101635456085205,0.0173733849078416,9.577756881713867,-0.9829205870628356,-1.4438742399215698,0.2439627796411514
4204921622.0,-0.2099860161542892,0.1698442548513412,9.838191986083984,-0.7200930714607239,-1.0884771347045898,0.1651477962732315
4204929955.0,-0.36367928981781,0.5030951499938965,9.83455753326416,-0.565920889377594,-0.4312924742698669,0.2019810378551483
4204938288.0,-0.5984569191932678,0.5505614876747131,9.62882137298584,-0.907947838306427,-0.739406168460846,0.2063611000776291
4204946621.0,-0.4118406176567077,0.1417053043842315,9.572569847106934,-1.056228518486023,-1.516849398612976,0.2770819664001465
4204954954.0,-0.0813492834568023,0.0293409619480371,9.777099609375,-0.9973158240318298,-1.2472851276397705,0.2674510180950165
4204963287.0,-0.2482608705759048,0.372412770986557,9.756820678710938,-0.6268571615219116,-0.3913598656654358,0.2167860716581344
4204971620.0,-0.6766517758369446,0.5763260126113892,9.650909423828123,-0.8584098219871521,-0.5428937673568726,0.3037208020687103
4204979953.0,-0.6552504897117615,0.210529625415802,9.6288423538208,-1.1355046033859253,-1.1986180543899536,0.2700124680995941
4204988286.0,-0.3039184808731079,0.1208213493227958,9.73933219909668,-1.114065647125244,-1.3093743324279783,0.3167584836483001
4204996619.0,-0.2991104423999786,0.3468413650989532,9.80161190032959,-0.7568750977516174,-0.6762926578521729,0.2740083038806915
4205004952.0,-0.6064253449440002,0.4232692718505859,9.623119354248049,-1.0178840160369873,-0.7029058337211609,0.2751609086990356
4205013285.0,-0.5806463360786438,0.2225821614265442,9.513402938842772,-1.1971582174301147,-1.138296604156494,0.06399717181921
4205021618.0,-0.1687814742326736,0.1286424845457077,9.721261978149414,-0.9928078055381776,-1.524815559387207,0.211279034614563
4205029951.0,-0.0706914886832237,0.3937855362892151,9.900679588317873,-0.8159926533699036,-0.7914286255836487,0.1333093047142028
4205038284.0,-0.5158774852752686,0.5118716359138489,9.636974334716797,-1.0800753831863403,-0.2664392590522766,0.1912743002176284
4205046617.0,-0.7256416082382202,0.3086380064487457,9.555447578430176,-1.237910270690918,-0.8991108536720276,0.2742131948471069
4205054950.0,-0.5324420928955078,0.0075822691433131,9.638455390930176,-1.282684087753296,-1.341545581817627,0.2167860716581344
4205063283.0,-0.3054263889789581,0.3244958817958832,9.81906509399414,-0.8289791345596313,-1.0873498916625977,0.1798759698867797
4205071616.0,-0.3970112800598144,0.6232202649116516,9.764283180236816,-0.966629922389984,-0.6885362267494202,0.2321289926767349
4205079949.0,-0.6306847333908081,0.4857658743858337,9.64438533782959,-1.3957452774047852,-1.0535646677017212,0.2193474918603897
4205088282.0,-0.4068500995635986,0.0114818904548883,9.474247932434082,-1.459447741508484,-1.517028570175171,0.3629408776760101
4205096615.0,-0.0673720985651016,0.1437177956104278,9.75962257385254,-1.1834800243377686,-1.3722057342529297,0.2459094673395156
4205104948.0,-0.285334050655365,0.5311486721038818,9.854979515075684,-1.0016189813613892,-0.4781921207904815,0.255924642086029
4205113281.0,-0.7284741401672363,0.3637578189373016,9.508588790893556,-1.261116862297058,-0.6484243869781494,0.1987536549568176
4205121614.0,-0.5743424892425537,0.248798057436943,9.681328773498535,-1.666948914527893,-1.3006138801574707,0.2243166416883468
4205129947.0,-0.3067772090435028,0.1504328846931457,9.78989315032959,-1.3464123010635376,-1.4072459936141968,0.2116888463497162
4205138280.0,-0.356011301279068,0.3577422797679901,9.776556015014648,-1.2024860382080078,-0.793221652507782,0.2634040117263794
4205146613.0,-0.5552965998649597,0.4116390645503998,9.597943305969238,-1.308477520942688,-0.7566701173782349,0.172575905919075
4205154946.0,-0.4801124334335327,0.1519486308097839,9.58586311340332,-1.4813222885131836,-1.420027494430542,0.246088758111
4205163279.0,-0.1192159727215766,0.0563929192721843,9.713573455810549,-1.3149324655532837,-1.399203181266785,0.150189071893692
4205171612.0,-0.0851118937134742,0.3221281170845032,9.79685401916504,-1.0388621091842651,-0.6083380579948425,0.3215739130973816
4205179945.0,-0.5235380530357361,0.3526709079742431,9.624700546264648,-1.28742253780365,-0.2114967256784439,0.2513396739959717
4205188278.0,-0.6537556648254395,0.0123743051663041,9.438590049743652,-1.3685429096221924,-0.9074097275733948,0.2801812887191772
4205196611.0,-0.4046061038970947,-0.0755276530981063,9.625231742858888,-1.1503608226776123,-1.381452560424805,0.2120986729860305
4205204944.0,-0.2787748873233795,0.2985954284667969,9.865873336791992,-1.0025923252105713,-0.8567705154418945,0.203978955745697
4205213277.0,-0.4926878213882446,0.4570809602737427,9.68638038635254,-0.9645295739173888,-0.6520103216171265,0.1430682986974716
4205221610.0,-0.5441401600837708,0.2493135184049606,9.576746940612791,-1.472741723060608,-1.293749451637268,0.1890714913606643
4205229943.0,-0.229789987206459,0.0023389179259538,9.63058376312256,-1.511086106300354,-1.5260449647903442,0.1796966642141342
4205238276.0,-0.103358581662178,0.058259904384613,9.6773099899292,-1.005589246749878,-0.9838683605194092,0.23563814163208
4205246609.0,-0.392233282327652,0.3321708738803863,9.706221580505373,-0.916451632976532,-0.4293970167636871,0.1240881532430648
4205254942.0,-0.6076698899269104,0.3081228733062744,9.61870574951172,-1.2872943878173828,-0.6229637861251831,0.2362272441387176
4205263275.0,-0.5422972440719604,0.0308433957397937,9.61282444000244,-1.3757404088974,-1.3606280088424685,0.3067176640033722
4205271608.0,-0.3166205883026123,0.0474090427160263,9.680328369140623,-1.119623780250549,-0.9986221194267272,0.210075169801712
4205279941.0,-0.3682283461093902,0.2394700348377227,9.677274703979492,-0.9740837216377258,-0.7081311345100403,0.2479841858148574
4205288274.0,-0.5789010524749756,0.0698475092649459,9.429585456848145,-1.337498426437378,-0.836355984210968,0.2850992083549499
4205296607.0,-0.4064767360687256,-0.081133596599102,9.508660316467283,-1.1931365728378296,-1.3913395404815674,0.2000599652528762
4205304940.0,-0.1131294146180152,0.0817139595746994,9.69262981414795,-0.838891863822937,-1.3948233127593994,0.2402231246232986
4205313273.0,-0.1883701235055923,0.2937458157539367,9.683154106140137,-0.7654814720153809,-0.7003956437110901,0.2794385552406311
4205321606.0,-0.518502414226532,0.1610390990972519,9.522937774658203,-1.0213676691055298,-0.6031638979911804,0.3119429349899292
4205329939.0,-0.5496174693107605,-0.1036233678460121,9.502158164978027,-1.0824575424194336,-0.9806922078132628,0.3262357115745544
4205338272.0,-0.3783138692378998,-0.0713925287127494,9.582406044006348,-0.8213204145431519,-1.0846346616744995,0.269705057144165
4205346605.0,-0.3391377329826355,0.3797730505466461,9.78900146484375,-0.4444069564342499,-0.7176083922386169,0.2701661288738251
4205354938.0,-0.52162104845047,0.4050512015819549,9.640565872192385,-0.847190797328949,-0.680160403251648,0.3011337518692016
4205363271.0,-0.4380187094211578,0.1286723464727401,9.524938583374023,-1.0425506830215454,-1.2503589391708374,0.3229570984840393
4205371604.0,-0.189299926161766,0.0007582890102639,9.594666481018066,-0.8104344010353088,-1.2210049629211426,0.1987280547618866
4205379937.0,-0.1519121825695037,0.2318020910024643,9.675442695617676,-0.7385095953941345,-0.7338734269142151,0.2174776494503021
4205388270.0,-0.4589119553565979,0.3551459014415741,9.614301681518556,-0.7907882928848267,-0.4590070843696594,0.254695177078247
4205396603.0,-0.6064465045928955,0.2444413602352142,9.643963813781738,-0.9536691308021544,-0.9103553891181946,0.3128394484519958
4205404936.0,-0.4468953311443329,0.1007692515850067,9.688511848449709,-0.9090492129325868,-1.2183923721313477,0.3861730098724365
4205413269.0,-0.2997398972511291,0.2720941603183746,9.7255277633667,-0.681876540184021,-0.8038771152496338,0.3621724545955658
4205421602.0,-0.4968937039375305,0.4452501535415649,9.721335411071776,-0.8222681283950806,-0.6763694882392883,0.2753402292728424
4205429935.0,-0.6042578816413879,0.2644835114479065,9.60418701171875,-1.033867359161377,-0.9519787430763244,0.2444750517606735
4205438268.0,-0.3657004833221435,0.1137045174837112,9.57047176361084,-1.021342158317566,-1.504939079284668,0.2162738144397735
4205446601.0,-0.0545904971659183,0.338365226984024,9.866674423217772,-0.747244119644165,-1.158685564994812,0.3162205219268799
4205454934.0,-0.2641403377056122,0.4605928957462311,9.767878532409668,-0.9366101026535034,-0.4329573512077331,0.2320521622896194
4205463267.0,-0.6571316719055176,0.4113170802593231,9.664692878723145,-1.0688819885253906,-0.5456088185310364,0.2259047180414199
4205471600.0,-0.6862901449203491,0.1265372186899185,9.612640380859377,-1.1502071619033811,-1.2616034746170044,0.2049010545015335
4205479933.0,-0.3508755564689636,0.1915459781885147,9.858549118041992,-0.8746493458747864,-1.253227710723877,0.1530578732490539
4205488266.0,-0.3390304446220398,0.5286237001419067,9.832462310791016,-0.9562305212020874,-0.7887647151947021,0.2941922843456268
4205496599.0,-0.57709139585495,0.6555938124656677,9.792105674743652,-1.156200885772705,-0.7532890439033508,0.1812591254711151
4205504932.0,-0.5363768935203552,0.2609127163887024,9.690093040466309,-1.478888988494873,-1.2153185606002808,0.1934771239757537
4205513265.0,-0.2372353821992874,0.1177276894450187,9.738365173339844,-1.279764175415039,-1.349178671836853,0.2077186554670334
4205521598.0,-0.2356504052877426,0.4555931687355041,9.928875923156738,-1.0112500190734863,-0.7916592359542847,0.2144295871257782
4205529931.0,-0.6381050944328308,0.5545026659965515,9.766984939575195,-1.280916690826416,-0.3600849211215973,0.1961666196584701
4205538264.0,-0.7673624157905579,0.3589690029621124,9.672524452209473,-1.5576272010803225,-1.0286675691604614,0.1721404641866684
4205546597.0,-0.3985810577869415,0.2118641883134842,9.807609558105469,-1.5476120710372925,-1.4290437698364258,0.1394823044538498
4205554930.0,-0.2711357176303863,0.3592299818992615,9.896078109741213,-1.3963855504989624,-0.8768008351325989,0.1701169312000274
4205563263.0,-0.6186565160751343,0.5082094669342041,9.707623481750488,-1.3740756511688232,-0.5443024635314941,0.2174776494503021
4205571596.0,-0.7131597995758057,0.4404614269733429,9.657110214233398,-1.702911138534546,-1.262346267700195,0.2196804881095886
4205579929.0,-0.2472683489322662,0.2139404863119125,9.773448944091797,-1.82168447971344,-1.6317548751831057,0.0850776880979538
4205588262.0,0.0098324064165353,0.3880552351474762,9.95131015777588,-1.4860355854034424,-0.9382238388061525,0.2457557916641235
4205596595.0,-0.3866469264030456,0.6307949423789978,9.808128356933594,-1.5111117362976074,-0.3167456388473511,0.3727511167526245
4205604928.0,-0.793948233127594,0.3881338834762573,9.593693733215332,-1.9820808172225952,-0.6695049405097961,0.1489083617925644
4205613261.0,-0.5871638655662537,0.1365869790315628,9.62149429321289,-1.9513438940048216,-1.4396225214004517,0.2544902265071869
4205621594.0,-0.1795758157968521,0.3479990661144256,9.91568374633789,-1.6409248113632202,-1.249462366104126,0.2587421834468841
4205629927.0,-0.3402855992317199,0.5987327694892883,9.894062042236328,-1.752090573310852,-0.6198644638061523,0.1296208351850509
4205638260.0,-0.6429486870765686,0.5302900075912476,9.6572847366333,-2.0530834197998047,-0.8222424983978271,0.3496983647346496
4205646593.0,-0.4226561188697815,0.1930396854877472,9.621339797973633,-2.3018486499786377,-1.567975401878357,0.2735728621482849
4205654926.0,-0.0687465742230415,0.1324028670787811,9.769328117370604,-1.9882794618606567,-1.3207212686538696,0.2238299995660781
4205663259.0,-0.1424149572849273,0.4053565859794616,9.809103965759276,-1.6748123168945312,-0.5096207857131958,0.3214202225208282
4205671592.0,-0.6118831038475037,0.4772033095359802,9.70594882965088,-2.114941596984864,-0.5041137337684631,0.2475999891757965
4205679925.0,-0.6312201619148254,0.2107671946287155,9.638962745666504,-2.3413970470428467,-1.154407978057861,0.4560229778289795
4205688258.0,-0.2720528244972229,0.1403351426124572,9.681967735290527,-2.065813541412353,-1.3410844802856443,0.3407333791255951
4205696591.0,-0.2816526889801025,0.3258192241191864,9.800185203552246,-1.8183544874191284,-0.6700171232223511,0.2599460780620575
4205704924.0,-0.6105471849441528,0.2718024551868438,9.61046314239502,-2.0967812538146973,-0.6671994924545288,0.2455764710903167
4205713257.0,-0.5417208671569824,0.1001918017864227,9.5247802734375,-2.192066431045532,-1.2878068685531616,0.4376319944858551
4205721590.0,-0.1064037680625915,0.1388967037200927,9.67438507080078,-1.912845253944397,-1.5479706525802612,0.2788493633270263
4205729923.0,-0.0257057715207338,0.2857868075370788,9.72716999053955,-1.8692501783370967,-0.8119969367980957,0.2605096101760864
4205738256.0,-0.4604596197605133,0.2784403562545776,9.608186721801758,-1.995528101921081,-0.4818549752235412,0.3146836459636688
4205746589.0,-0.6804627180099487,0.009744394570589,9.52878475189209,-2.25899600982666,-0.9985709190368652,0.2863543331623077
4205754922.0,-0.4452181458473205,-0.1637110859155655,9.55449390411377,-2.0002670288085938,-1.4078607559204102,0.3631202280521393
4205763255.0,-0.2515659034252167,0.1364790052175521,9.639472007751465,-1.673710823059082,-1.1098392009735107,0.3146580755710602
4205771588.0,-0.4363290071487427,0.3593429923057556,9.602500915527344,-1.8368479013442995,-0.7770333886146545,0.2324875891208648
4205779921.0,-0.5728035569190979,0.0533884838223457,9.479780197143556,-2.063918113708496,-1.1216217279434204,0.4028478562831878
4205788254.0,-0.3055283725261688,-0.2356645911931991,9.451377868652344,-1.9369484186172483,-1.4531468152999878,0.2070782631635666
4205796587.0,-0.1226969733834266,-0.0185609422624111,9.63263702392578,-1.5584979057312012,-1.0490565299987793,0.2792079448699951
4205804920.0,-0.4248287975788116,0.0982657596468925,9.56106185913086,-1.5384421348571775,-0.4804205596446991,0.3102523982524872
4205813253.0,-0.6585390567779541,0.0191349610686302,9.47442626953125,-1.745840549468994,-0.8453978300094604,0.2365858852863311
4205821586.0,-0.4820233881473541,-0.1145035922527313,9.580336570739746,-1.6598535776138306,-1.284528136253357,0.2236250638961792
4205829919.0,-0.2749990820884704,-0.1277311146259308,9.59554386138916,-1.47658371925354,-1.024595022201538,0.2722409069538116
4205838252.0,-0.416688859462738,0.0608492344617843,9.501314163208008,-1.3574520349502563,-0.703238844871521,0.2739314436912536
4205846585.0,-0.587914228439331,0.0404262468218803,9.499089241027832,-1.4993034601211548,-0.894141674041748,0.2394802868366241
4205854918.0,-0.4292971193790436,-0.248331144452095,9.485747337341309,-1.5312188863754272,-1.3538403511047363,0.1716281622648239
4205863251.0,-0.0886807143688201,-0.1696147471666336,9.534092903137209,-1.1037429571151731,-1.2618597745895386,0.174496978521347
4205871584.0,-0.1972681283950805,0.1516046077013015,9.617456436157228,-1.0377864837646484,-0.5742199420928955,0.1867918223142624
4205879917.0,-0.6043578386306763,0.0133759025484323,9.440122604370115,-1.1723378896713257,-0.4805742502212524,0.1955262571573257
4205888250.0,-0.5969639420509338,-0.3424640297889709,9.40643310546875,-1.2616034746170044,-1.1718255281448364,0.1740103065967559
4205896583.0,-0.3245101869106293,-0.2580745816230774,9.55608367919922,-0.9082552194595336,-1.225129008293152,0.2012638598680496
4205904916.0,-0.3092889189720154,0.0626016780734062,9.633963584899902,-0.683541476726532,-0.7119477391242981,0.1419156789779663
4205913249.0,-0.5365632176399231,0.1866320669651031,9.480929374694824,-0.7755221128463745,-0.6821838617324829,0.1745738089084625
4205921582.0,-0.4255668520927429,0.0080041466280817,9.50135898590088,-1.0686770677566528,-1.360038995742798,0.142863392829895
4205929915.0,-0.1224352121353149,-0.211080402135849,9.555862426757812,-0.7670182585716248,-1.269236445426941,0.22718545794487
4205938248.0,-0.1166629567742347,-0.0416940301656723,9.581783294677734,-0.5729647278785706,-0.7173779010772705,0.2118425220251083
4205946581.0,-0.4513157904148102,0.2715719938278198,9.611374855041504,-0.6396642327308655,-0.4531414210796356,0.2609449923038482
4205954914.0,-0.6184848546981812,0.1118418499827385,9.560604095458984,-0.9247249960899352,-0.8203983902931213,0.1758033037185669
4205963247.0,-0.3833781480789184,-0.0412147678434848,9.68254566192627,-0.728699266910553,-1.1369901895523071,0.197754681110382
4205971580.0,-0.2015885710716247,0.2173105180263519,9.80272102355957,-0.5323150157928467,-0.9369942545890808,0.1992146968841552
4205979913.0,-0.4671807885169983,0.3060129284858703,9.67527198791504,-0.5617969632148743,-0.5308037996292114,0.1797735095024109
4205988246.0,-0.5793730616569519,0.1630993485450744,9.568745613098145,-0.7110511660575867,-0.9792322516441344,0.3062566220760345
4205996579.0,-0.2709639370441437,0.0258362181484699,9.653013229370115,-0.8504951000213623,-1.4102684259414673,0.2909649014472961
4206004912.0,-0.0072458297945559,0.207990363240242,9.807978630065918,-0.5741430521011353,-1.1237733364105225,0.2252387702465057
4206013245.0,-0.252538114786148,0.4307943880558014,9.781692504882812,-0.5041137337684631,-0.3976097702980041,0.2107923179864883
4206021578.0,-0.6659441590309143,0.3678848147392273,9.60995101928711,-0.9107397794723512,-0.6318519711494446,0.2998786568641662
4206029911.0,-0.5926774144172668,0.0087121622636914,9.619264602661133,-0.9724443554878236,-1.2617316246032717,0.2415038049221038
4206038244.0,-0.3155762255191803,0.0226674508303403,9.710593223571776,-0.6893046498298645,-1.2385762929916382,0.1953213512897491
4206046577.0,-0.3317559957504272,0.4466020464897156,9.86767578125,-0.4900515675544739,-0.6920455098152161,0.2382508218288421
4206054910.0,-0.5699887275695801,0.4932599365711212,9.637718200683594,-0.7634322643280029,-0.6795456409454346,0.2590495347976684
4206063243.0,-0.4988964796066284,0.2701414227485657,9.626338958740234,-0.7796717286109924,-1.326638102531433,0.334124892950058
4206071576.0,-0.0850973725318908,0.0363579019904136,9.745262145996094,-0.7515472173690796,-1.3382412195205688,0.284356415271759
4206079909.0,-0.1225282028317451,0.3355470299720764,9.75717830657959,-0.5746041536331177,-0.6021649837493896,0.2472157627344131
4206088242.0,-0.6368393898010254,0.536026656627655,9.688560485839844,-0.6576197743415833,-0.4013237953186035,0.3207542300224304
4206096575.0,-0.7573501467704773,0.2560217082500458,9.614686965942385,-0.877774178981781,-1.0481343269348145,0.2412220388650894
4206104908.0,-0.3729921579360962,0.1857950985431671,9.77812957763672,-0.9144538044929504,-1.3517656326293943,0.2558221817016601
4206113241.0,-0.274454653263092,0.3530285060405731,9.809287071228027,-0.7334379553794861,-0.8708840012550354,0.1637389957904815
4206121574.0,-0.597011923789978,0.4825666546821594,9.685672760009766,-0.8241379857063293,-0.5205324292182922,0.235971137881279
4206129907.0,-0.6805357933044434,0.3305686414241791,9.551612854003906,-1.176436185836792,-1.0539487600326538,0.1696558892726898
4206138240.0,-0.2934174537658691,0.1238752305507659,9.64069652557373,-1.089859962463379,-1.5947166681289673,0.2030312269926071
4206146573.0,0.0235471595078706,0.2949903905391693,9.841246604919434,-0.8455514907836914,-0.972239315509796,0.1810285896062851
4206154906.0,-0.3601742684841156,0.4799772202968597,9.733295440673828,-0.896242082118988,-0.3011209368705749,0.2367907911539077
4206163239.0,-0.8153239488601685,0.3361907601356506,9.524225234985352,-1.3097071647644043,-0.6701196432113647,0.2093323320150375
4206171572.0,-0.6243531107902527,0.0186691433191299,9.572789192199709,-1.2478487491607666,-1.3925435543060305,0.2171190828084945
4206179905.0,-0.2586826384067535,0.0891601145267486,9.756534576416016,-1.0092520713806152,-1.102206110954285,0.1917865723371505
4206188238.0,-0.3731425106525421,0.4443058967590332,9.718323707580566,-0.8180674910545349,-0.6484243869781494,0.268296331167221
4206196571.0,-0.6114321947097778,0.3963890969753265,9.636131286621094,-1.086350917816162,-0.7808499336242676,0.3305132687091827
4206204904.0,-0.4676286876201629,0.0493460111320018,9.53805446624756,-1.2739750146865845,-1.319133162498474,0.2242910414934158
4206213237.0,-0.1102253124117851,0.0331462733447551,9.654921531677246,-0.9219074845314026,-1.3469244241714478,0.1611775457859039
4206221570.0,-0.1729128211736679,0.2203934043645858,9.725591659545898,-0.8864063024520874,-0.6120009422302246,0.2260584533214569
4206229903.0,-0.6183418035507202,0.275427371263504,9.557908058166504,-1.1091220378875732,-0.4596730768680572,0.1675555258989334
4206238236.0,-0.7004871964454651,0.1652530431747436,9.553370475769045,-1.3262027502059937,-1.1732089519500732,0.2057463675737381
4206246569.0,-0.3283167779445648,0.0322037786245346,9.727618217468262,-1.178920865058899,-1.4687715768814087,0.1254201084375381
4206254902.0,-0.2517371475696563,0.1130077689886093,9.738073348999023,-1.0521814823150637,-0.8813858032226562,0.1264446675777435
4206263235.0,-0.552871823310852,0.2940247654914856,9.5792236328125,-1.009328842163086,-0.6747301816940308,0.2379946559667587
4206271568.0,-0.5637751221656799,0.1572445482015609,9.597503662109377,-1.204022765159607,-1.3023303747177124,0.2579481899738312
4206279901.0,-0.1438553780317306,-0.0999442115426063,9.618280410766602,-1.114833950996399,-1.3924410343170166,0.1817201972007751
4206288234.0,0.0285970661789178,0.1930266171693802,9.801590919494627,-0.8745467662811279,-0.8385331630706787,0.2763903737068176
4206296567.0,-0.3970544934272766,0.3707889318466186,9.760868072509766,-0.8546701073646545,-0.4572397768497467,0.3122247159481048
4206304900.0,-0.7179666757583618,0.0717357769608497,9.50704288482666,-1.3589375019073486,-0.7931190729141235,0.1767510175704956
4206313233.0,-0.4917328953742981,-0.1251564621925354,9.548898696899414,-1.244006633758545,-1.3575034141540527,0.1403532177209854
4206321566.0,-0.2083694636821746,0.1255466938018798,9.85832691192627,-0.8675540685653687,-1.1331737041473389,0.3102524280548095
4206329899.0,-0.3690937161445617,0.3380721509456634,9.77320957183838,-0.7088994979858398,-0.4959940314292907,0.1592821031808853
4206338232.0,-0.5684863924980164,0.3413122892379761,9.55393123626709,-1.1769484281539917,-0.822344958782196,0.2314886450767517
4206346565.0,-0.3729131519794464,0.0069027580320835,9.596639633178713,-1.2005136013031006,-1.302586317062378,0.2120730876922607
4206354898.0,-0.0608134716749191,-0.0787456482648849,9.73559856414795,-0.9452165365219116,-1.1440342664718628,0.1915816664695739
4206363231.0,-0.2289839684963226,0.2587111890316009,9.720148086547852,-0.6748838424682617,-0.4013238251209259,0.2177594155073166
4206371564.0,-0.6736833453178406,0.418791800737381,9.666051864624023,-0.9506466388702391,-0.3690498769283294,0.1470641195774078
4206379897.0,-0.692632794380188,0.0774205774068832,9.577452659606934,-1.2451335191726685,-1.1942124366760254,0.2563344538211822
4206388230.0,-0.2989101409912109,-0.0323737673461437,9.762378692626951,-0.9556413292884828,-1.204304337501526,0.2101263701915741
4206396563.0,-0.2565011084079742,0.25112184882164,9.830894470214844,-0.8727537989616394,-0.6942737698554993,0.2739058136940002
4206404896.0,-0.6465597748756409,0.3025223314762115,9.543230056762695,-0.8654281497001648,-0.4979919195175171,0.1630218029022216
4206413229.0,-0.6631972789764404,0.1086516827344894,9.461702346801758,-1.0147078037261963,-1.2754353284835815,0.1293134838342666
4206421562.0,-0.1259852647781372,0.0487633123993873,9.738987922668455,-1.0282832384109497,-1.7043967247009275,0.1546971648931503
4206429895.0,0.0280320681631565,0.2291557192802429,9.823922157287598,-0.802596390247345,-0.8739832639694214,0.1578989326953888
4206438228.0,-0.4946192502975464,0.3387728631496429,9.637045860290527,-0.9165540933609008,-0.1239985078573226,0.2191938012838363
4206446561.0,-0.8478550910949707,0.1517761796712875,9.464770317077637,-1.2096577882766724,-0.9133523106575012,0.2464985698461532
4206454894.0,-0.5131409764289856,-0.0833533331751823,9.59203052520752,-1.167522430419922,-1.455400824546814,0.273496001958847
4206463227.0,-0.1791787147521972,0.1073212549090385,9.83912181854248,-0.7692979574203491,-1.1793562173843384,0.3173731863498688
4206471560.0,-0.3976550698280334,0.5017934441566467,9.796813011169434,-0.7907114624977112,-0.5039857625961304,0.1873553395271301
4206479893.0,-0.6738122701644897,0.3926838338375091,9.530011177062988,-1.0356860160827637,-0.8282875418663025,0.2873789072036743
4206488226.0,-0.3916574418544769,-0.0214979574084281,9.506524085998535,-1.2366039752960205,-1.569281816482544,0.2590495645999908
4206496559.0,0.006609336938709,0.0350919999182224,9.76897430419922,-0.8527746796607971,-1.1572768688201904,0.38338103890419
4206504892.0,-0.2873440086841583,0.3911961317062378,9.743537902832031,-0.7456560134887695,-0.2277361750602722,0.3430642485618591
4206513225.0,-0.7323009371757507,0.4121110439300537,9.550447463989258,-0.9858148694038392,-0.547248125076294,0.2831012904644012
4206521558.0,-0.624418318271637,0.159774973988533,9.62887954711914,-1.2111181020736694,-1.2770490646362305,0.2236251235008239
4206529891.0,-0.2228947132825851,0.0936344489455223,9.76576042175293,-1.039476752281189,-1.3781994581222534,0.2397620230913162
4206538224.0,-0.2707136571407318,0.3125005662441253,9.773122787475586,-0.9017236232757568,-0.6694536805152893,0.2751097083091736
4206546557.0,-0.6369320750236511,0.3850804567337036,9.60726261138916,-0.9346889853477478,-0.4822903871536255,0.2718822956085205
4206554890.0,-0.5716457962989807,0.1268882751464843,9.508207321166992,-1.1435474157333374,-1.3179547786712646,0.2597411274909973
4206563223.0,-0.0711990147829055,0.0528797656297683,9.724839210510254,-1.0467257499694824,-1.5430529117584229,0.2213710397481918
4206571556.0,0.0052287280559539,0.3432148694992065,9.848713874816896,-0.8754176497459412,-0.5883589386940002,0.2907600104808807
4206579889.0,-0.5346606969833374,0.3711896240711212,9.615824699401855,-0.992013692855835,-0.2553995251655578,0.2479586005210876
4206588222.0,-0.8282135725021362,0.0794608294963836,9.49748706817627,-1.2001805305480957,-0.9534386992454528,0.2287735641002655
4206596555.0,-0.4230422675609588,-0.0854631289839744,9.645251274108888,-1.0611464977264404,-1.551530838012695,0.259459376335144
4206604888.0,-0.1094098836183548,0.1756666749715805,9.867632865905762,-0.7944767475128174,-0.9577930569648744,0.1096673533320427
4206613221.0,-0.3958383202552795,0.4731033444404602,9.733238220214844,-0.9223430156707764,-0.4591863751411438,0.1760594397783279
4206621554.0,-0.6295502185821533,0.306027352809906,9.585432052612305,-1.1830958127975464,-0.9501855969429016,0.282691478729248
4206629887.0,-0.337301105260849,-0.0687244236469268,9.554378509521484,-1.2180081605911257,-1.5278891324996948,0.1925293952226638
4206638220.0,-0.0481028705835342,0.0549338348209857,9.784852981567385,-0.9254936575889589,-0.9735971689224244,0.3329978585243225
4206646553.0,-0.367026686668396,0.326033741235733,9.744604110717772,-0.890171468257904,-0.2020963132381439,0.3037720024585724
4206654886.0,-0.7610267400741577,0.296513944864273,9.523931503295898,-1.131995439529419,-0.5955052375793457,0.1886872500181198
4206663219.0,-0.556448221206665,0.0925444513559341,9.640308380126951,-1.2847843170166016,-1.410089135169983,0.2411195784807205
4206671552.0,-0.1460110545158386,0.0143341859802603,9.808963775634766,-1.0209578275680542,-1.2737447023391724,0.2413757443428039
4206679885.0,-0.3350107073783874,0.2464081794023513,9.7305908203125,-0.9257753491401672,-0.4214310646057129,0.2312068939208984
4206688218.0,-0.6978313326835632,0.2657781839370727,9.492365837097168,-1.0132479667663574,-0.7014203071594238,0.1515722423791885
4206696551.0,-0.4781236052513122,0.0220388807356357,9.569896697998049,-1.241854906082153,-1.534446358680725,0.2278770506381988
4206704884.0,-0.0342120490968227,-0.0381890274584293,9.716485977172852,-0.9827924966812134,-1.3092972040176392,0.2473950833082199
4206713217.0,-0.1091237738728523,0.330160915851593,9.817405700683594,-0.7425310015678406,-0.5907666683197021,0.2918613851070404
4206721550.0,-0.6773887276649475,0.2850049138069153,9.540267944335938,-1.0344820022583008,-0.3482255041599273,0.246857151389122
4206729883.0,-0.7782149910926819,0.0216230433434247,9.458439826965332,-1.1823272705078125,-1.132430911064148,0.2118937522172927
4206738216.0,-0.3511996269226074,-0.1665381789207458,9.643698692321776,-1.0419869422912598,-1.4939759969711304,0.217580109834671
4206746549.0,-0.1981839090585708,0.2402639091014862,9.89074993133545,-0.7452461123466492,-0.8393784165382385,0.1668639183044433
4206754882.0,-0.5484585165977478,0.4370386898517608,9.618328094482422,-0.8304903507232666,-0.3490707874298095,0.2271342128515243
4206763215.0,-0.6221113204956055,0.2924009561538696,9.548736572265623,-1.0764381885528564,-1.2492830753326416,0.2265194952487945
4206771548.0,-0.1765973716974258,-0.1068286076188087,9.620182037353516,-1.1444696187973022,-1.5016088485717771,0.2139428853988647
4206779881.0,-0.004391845781356,0.0924934148788452,9.788923263549805,-0.7536219358444214,-0.8117150068283081,0.1233709603548049
4206788214.0,-0.4490841031074524,0.3809317946434021,9.633012771606444,-0.804747998714447,-0.2372134327888488,0.1831033676862716
4206796547.0,-0.7708618640899658,0.3563546240329742,9.62254810333252,-1.032509684562683,-0.7650715112686157,0.2628148198127746
4206804880.0,-0.5016914010047913,0.0015269513241946,9.609325408935549,-1.1153976917266846,-1.3653669357299805,0.2951912879943847
4206813213.0,-0.1613967418670654,0.1946073919534683,9.863348007202148,-0.8142508864402771,-1.1697252988815308,0.2386094331741333
4206821546.0,-0.3862392008304596,0.3057482838630676,9.736106872558594,-0.8940135836601257,-0.3671031892299652,0.2990846335887909
4206829879.0,-0.6843982934951782,0.2968215346336365,9.5440673828125,-1.0087909698486328,-0.7976529002189636,0.3559738397598266
4206838212.0,-0.4444921016693115,0.051850352436304,9.529267311096191,-0.9709846377372742,-1.4238698482513428,0.2401975095272064
4206846545.0,0.034469548612833,0.1048320680856704,9.798707962036133,-0.8436048030853271,-1.2974634170532229,0.2955498397350311
4206854878.0,-0.0752264484763145,0.3192600011825561,9.788114547729492,-0.7623564004898071,-0.3729176223278045,0.2288759797811508
4206863211.0,-0.6187494993209839,0.3914464712142944,9.617877006530762,-0.9464203715324402,-0.4418967664241791,0.2917589247226715
4206871544.0,-0.7848742008209229,0.0510642863810062,9.519990921020508,-1.0755927562713623,-1.073236346244812,0.3091253638267517
4206879877.0,-0.3564015328884125,-0.0635179355740547,9.658699035644531,-1.0256707668304443,-1.4388283491134644,0.2037228196859359
4206888210.0,-0.1718971282243728,0.2889748513698578,9.8232421875,-0.6332095265388489,-0.8625080585479736,0.229490727186203
4206896543.0,-0.4590764045715332,0.4970369637012481,9.741000175476074,-0.7805938124656677,-0.4470196068286896,0.2145320177078247
4206904876.0,-0.6258092522621155,0.2967572808265686,9.53740119934082,-1.1079949140548706,-0.9792833924293518,0.3192429840564728
4206913209.0,-0.2977123856544494,-0.0033721015788614,9.608856201171877,-1.0222128629684448,-1.4473322629928589,0.3055393993854522
4206921542.0,-0.0561784282326698,0.1099034324288368,9.79579734802246,-0.8032880425453186,-0.9744679927825928,0.2500589787960052
4206929875.0,-0.3733140230178833,0.3613687753677368,9.725341796875,-0.8548494577407837,-0.2340628802776336,0.3569727838039398
4206938208.0,-0.7594746947288513,0.3634357750415802,9.62204647064209,-0.947265625,-0.7236021161079407,0.1852037161588668
4206946541.0,-0.5919288396835327,0.1387279331684112,9.669405937194824,-1.169930100440979,-1.417722225189209,0.180772453546524
4206954874.0,-0.1950937956571579,0.0990096554160118,9.725227355957031,-0.9053606986999512,-1.307683348655701,0.2164530605077743
4206963207.0,-0.2850622534751892,0.3673485517501831,9.805302619934082,-0.8068227171897888,-0.6456835865974426,0.2674766480922699
4206971540.0,-0.6395928859710693,0.3342523574829101,9.594758987426758,-1.0236985683441162,-0.4522705376148224,0.1724478304386139
4206979873.0,-0.5858967900276184,0.0990934297442436,9.52471923828125,-1.1334298849105835,-1.4664660692214966,0.2244191020727157
4206988206.0,-0.11318901181221,0.0975904166698455,9.755179405212402,-1.0240826606750488,-1.4978947639465332,0.3079727292060852
4206996539.0,-0.04025624319911,0.3015208840370178,9.836881637573242,-0.8974716067314148,-0.6221185922622681,0.0914300233125686
4207004872.0,-0.5463986992835999,0.3517409861087799,9.62716007232666,-0.9332290291786194,-0.1940022110939026,0.2925529479980469
4207013205.0,-0.8224340081214905,0.1038877964019775,9.464298248291016,-1.112246870994568,-1.0165008306503296,0.2122011184692382
4207021538.0,-0.4213859438896179,-0.1000414788722992,9.62520694732666,-1.0845835208892822,-1.5188984870910645,0.1649172455072403
4207029871.0,-0.1436863094568252,0.1663679778575897,9.765562057495115,-0.756567656993866,-1.1278716325759888,0.1259323805570602
4207038204.0,-0.3704814910888672,0.4901557266712188,9.763551712036133,-0.8241637349128723,-0.5524734854698181,0.2446287721395492
4207046537.0,-0.6078127026557922,0.2533466517925262,9.54045581817627,-1.1577377319335938,-0.8716779947280884,0.3001091480255127
