SampleTimeFine,Acc_X,Acc_Y,Acc_Z,Gyr_X,Gyr_Y,Gyr_Z
2498201059.0,0.0,0.0,0.0,0.0,0.0,0.0
2498209392.0,-0.6970349550247192,-0.3457382321357727,9.742112159729004,-3.813203811645508,-3.6505281925201416,-0.3292838037014007
2498217725.0,-0.4227849543094635,-0.3147545158863067,10.024349212646484,-3.479322671890259,-3.510828256607056,-0.3124808967113495
2498226058.0,-0.4695509672164917,-0.1138506457209587,9.99449634552002,-3.284731149673462,-2.9834821224212646,-0.3247756958007812
2498234391.0,-0.7429171204566956,0.0226697344332933,9.703415870666504,-3.323793172836304,-2.804284811019897,-0.3326649069786072
2498242724.0,-0.8975005149841309,-0.145449087023735,9.677050590515137,-3.621583938598633,-3.134324312210083,-0.2903757989406585
2498251057.0,-0.7490984797477722,-0.2237330973148346,9.924778938293455,-3.760002851486206,-3.511929750442505,-0.3057699501514435
2498259390.0,-0.5806286931037903,-0.0820638686418533,9.971979141235352,-3.5612881183624268,-3.656905889511109,-0.3393501937389374
2498267723.0,-0.6027414798736572,-0.0356874391436576,9.781657218933104,-3.5371854305267334,-3.25555682182312,-0.3770031630992889
2498276056.0,-0.6500511765480042,-0.2291346490383148,9.6712007522583,-3.736105442047119,-3.329684257507324,-0.3606612682342529
2498284389.0,-0.5961690545082092,-0.3064517080783844,9.877870559692385,-3.6540367603302,-3.630292654037476,-0.30469411611557
2498292722.0,-0.571463942527771,-0.0973566398024559,9.97109317779541,-3.5631580352783203,-3.4774014949798584,-0.2906319499015808
2498301055.0,-0.617027997970581,0.0348138958215713,9.834611892700195,-3.4688973426818848,-3.256145715713501,-0.3168865144252777
2498309388.0,-0.724651038646698,-0.2164705842733383,9.697879791259766,-3.821400880813599,-3.1558916568756104,-0.2018786072731018
2498317721.0,-0.7628679871559143,-0.4408057332038879,9.804533004760742,-3.691972255706787,-3.652372360229492,-0.2728300392627716
2498326054.0,-0.7200608253479004,-0.2851729691028595,9.942824363708496,-3.441157579421997,-3.661106824874878,-0.2659141719341278
2498334387.0,-0.5988743901252747,0.0200093388557434,9.866488456726074,-3.359959840774536,-3.506397008895874,-0.3238791823387146
2498342720.0,-0.5936059951782227,0.0070491223596036,9.687944412231444,-3.61110782623291,-3.6315219402313232,-0.3755430877208709
2498351053.0,-0.6729866862297058,-0.2076277434825897,9.692816734313965,-3.8943240642547607,-3.872936725616455,-0.2141222208738327
2498359386.0,-0.6626031994819641,-0.4366448819637298,9.844769477844238,-3.785540580749512,-4.040325164794922,-0.1450406014919281
2498367719.0,-0.5127926468849182,-0.163715049624443,9.930356979370115,-3.6123368740081774,-3.880364179611206,-0.2602534294128418
2498376052.0,-0.5955276489257812,-0.0217269454151392,9.856135368347168,-3.546226978302002,-3.507293462753296,-0.2792592048645019
2498384385.0,-0.7539091110229492,-0.1800716966390609,9.70692539215088,-3.753523349761963,-3.486264228820801,-0.2425283938646316
2498392718.0,-0.7544578313827515,-0.2311219274997711,9.821056365966797,-3.7243740558624254,-3.911383390426636,-0.111690878868103
2498401051.0,-0.710071861743927,-0.1333407759666443,9.875391960144045,-3.70170521736145,-4.027646541595459,-0.1302099674940109
2498409384.0,-0.6234381794929504,-0.0677041783928871,9.849827766418455,-3.669995069503784,-4.02897834777832,-0.1729601323604583
2498417717.0,-0.4988239705562591,-0.1706051081418991,9.744195938110352,-3.907464265823364,-4.045115470886231,-0.2180155515670776
2498426050.0,-0.6172789931297302,-0.2661614716053009,9.722363471984863,-3.979645729064941,-4.148161888122559,-0.010822013951838
2498434383.0,-0.5537122488021851,-0.3019612729549408,9.931468963623049,-4.046421527862549,-4.249030113220215,-0.0578753687441349
2498442716.0,-0.5525071620941162,-0.0359640084207057,10.003192901611328,-3.745044946670532,-3.956387996673584,-0.0710667073726654
2498451049.0,-0.6965014934539795,-0.0369994454085826,9.744690895080566,-3.7804691791534415,-3.93136215209961,0.0120643060654401
2498459382.0,-0.822261393070221,-0.2913166284561157,9.674226760864258,-4.167218208312988,-4.1131978034973145,0.1786080598831176
2498467715.0,-0.6688665151596069,-0.3690544962882995,9.875913619995115,-3.966377019882202,-4.441495418548584,0.154966115951538
2498476048.0,-0.4197113513946533,-0.2571431696414947,10.17923069000244,-3.57647705078125,-4.331174850463867,-0.0257551148533821
2498484381.0,-0.3447230458259582,-0.0050919530913233,9.950786590576172,-3.4301681518554688,-3.712949275970459,-0.0692736953496933
2498492714.0,-0.5048425793647766,-0.1191173940896987,9.696378707885742,-3.5922555923461914,-3.2484614849090576,0.0303528700023889
2498501047.0,-0.7119295001029968,-0.2735446393489837,9.674483299255373,-3.9215006828308105,-3.5029385089874268,0.0385494232177734
2498509380.0,-0.6779675483703613,-0.2458147704601287,9.932473182678224,-3.6741185188293457,-3.750397205352783,0.0327093750238418
2498517713.0,-0.5157580375671387,-0.1017385572195053,9.99662971496582,-3.3783514499664307,-3.643817186355591,0.1458474546670913
2498526046.0,-0.4987005293369293,-0.1120798140764236,9.853348731994627,-3.374458074569702,-3.3328604698181152,0.0778416693210601
2498534379.0,-0.5775254368782043,-0.2094240337610244,9.833329200744627,-3.548814058303833,-3.2068898677825928,0.1430811285972595
2498542712.0,-0.7250763773918152,-0.2874886095523834,9.919601440429688,-3.626758337020874,-3.1373469829559326,0.039906982332468
2498551045.0,-0.6775274872779846,-0.0902008637785911,9.910910606384276,-3.294490098953247,-3.244747400283813,0.0579906292259693
2498559378.0,-0.5233801603317261,-0.0958099961280822,9.760194778442385,-3.213651895523072,-3.459881544113159,-0.0675831586122512
2498567711.0,-0.4739080369472503,-0.2393692880868911,9.74480438232422,-3.57619571685791,-3.329274654388428,-0.1510855704545974
2498576044.0,-0.4762068092823028,-0.3426936268806457,9.907522201538086,-3.744942426681519,-3.316902875900269,-0.1672737598419189
2498584377.0,-0.4123317301273346,-0.1405556052923202,9.987409591674805,-3.188882350921631,-2.981765985488892,-0.2203720659017563
2498592710.0,-0.4780926406383514,-0.0692370310425758,9.795251846313477,-3.133606433868408,-2.606952428817749,-0.231565460562706
2498601043.0,-0.662591814994812,-0.2224152684211731,9.68086051940918,-3.275688886642456,-2.4746809005737305,-0.3084850311279297
2498609376.0,-0.7909513115882874,-0.4044530391693115,9.826032638549805,-3.4194111824035645,-2.833638906478882,-0.3156826496124267
2498617709.0,-0.6408051252365112,-0.2168795764446258,10.009782791137695,-3.203815698623657,-2.998748302459717,-0.2523642480373382
2498626042.0,-0.4188984930515289,0.0671732425689697,9.87580680847168,-2.8634278774261475,-2.675598621368408,-0.4181395471096039
2498634375.0,-0.3981055915355682,-0.011448934674263,9.641324043273926,-3.211961030960083,-2.4799063205718994,-0.4156037867069244
2498642708.0,-0.4847535789012909,-0.3553563952445984,9.808096885681152,-3.363033533096313,-2.355036735534668,-0.460351824760437
2498651041.0,-0.4832595884799957,-0.3103985488414764,10.004063606262209,-3.0626041889190674,-2.248096942901612,-0.3201650977134704
2498659374.0,-0.5069373846054077,0.0117067312821745,9.925969123840332,-2.9297430515289307,-2.0734848976135254,-0.394036591053009
2498667707.0,-0.6465206146240234,0.0935431122779846,9.73104763031006,-2.9681649208068848,-1.896311521530152,-0.5129634737968445
2498676040.0,-0.8304166793823242,-0.1487963199615478,9.719663619995115,-3.4038116931915283,-2.2968666553497314,-0.4058703482151031
2498684373.0,-0.7756255269050598,-0.2505241334438324,9.92599391937256,-3.459010124206543,-2.77808141708374,-0.3586120903491974
2498692706.0,-0.6081474423408508,-0.1073254197835922,9.92415714263916,-3.335268020629883,-2.832127571105957,-0.4402447044849396
2498701039.0,-0.5834258198738098,-0.0794297009706497,9.75437831878662,-3.264547109603882,-2.6378180980682373,-0.4599676728248596
2498709372.0,-0.6334255933761597,-0.280663788318634,9.691097259521484,-3.490003824234009,-2.684307813644409,-0.5725165605545044
2498717705.0,-0.5487006306648254,-0.4368705451488495,9.974486351013184,-3.386983156204224,-2.9442925453186035,-0.440885066986084
2498726038.0,-0.4747025370597839,-0.1825868934392929,9.983516693115234,-3.068239450454712,-2.5464518070220947,-0.4366330206394195
2498734371.0,-0.6046596765518188,0.0436577424407005,9.767873764038086,-3.136373281478882,-2.251913785934448,-0.4600188434123993
2498742704.0,-0.7855871319770813,-0.2379155904054641,9.745511054992676,-3.4612386226654053,-2.5029847621917725,-0.4393481612205505
2498751037.0,-0.7490361928939819,-0.3752945363521576,9.975966453552246,-3.3090648651123047,-2.9277455806732178,-0.4063314497470855
2498759370.0,-0.5769001841545105,-0.2408791184425354,10.067169189453123,-3.18821668624878,-3.032149076461792,-0.489475280046463
2498767703.0,-0.5368345379829407,0.1656046211719513,9.884504318237305,-3.1439805030822754,-2.5355143547058105,-0.3782581686973572
2498776036.0,-0.6981266140937805,0.0827387943863868,9.642233848571776,-3.459291934967041,-2.6028289794921875,-0.4186262488365173
2498784369.0,-0.6900562644004822,-0.2415816932916641,9.742803573608398,-3.700527429580689,-3.15397047996521,-0.4923440515995025
2498792702.0,-0.4934234619140625,-0.3510169982910156,10.002325057983398,-3.465439796447754,-3.121133327484131,-0.3816137015819549
2498801035.0,-0.4508690536022186,-0.11714668571949,9.933347702026367,-3.3004581928253174,-2.861046075820923,-0.3861986100673675
2498809368.0,-0.5946488976478577,-0.0213969592005014,9.715994834899902,-3.410983800888061,-2.428882837295532,-0.4837120175361633
2498817701.0,-0.7897655367851257,-0.1851366758346557,9.739399909973145,-3.714435815811157,-2.60733699798584,-0.4012085795402527
2498826034.0,-0.7070189714431763,-0.2908298373222351,9.975276947021484,-3.6675620079040527,-2.8502116203308105,-0.4545630812644958
2498834367.0,-0.5841958522796631,-0.0822428166866302,9.954718589782717,-3.4492130279541016,-2.9022469520568848,-0.3923588991165161
2498842700.0,-0.5949580669403076,-0.0084391692653298,9.720151901245115,-3.393233299255371,-2.706925392150879,-0.4804590344429016
2498851033.0,-0.5702712535858154,-0.1432074308395385,9.704973220825195,-3.5687673091888428,-2.91729474067688,-0.423979640007019
2498859366.0,-0.4254973828792572,-0.2945798337459564,9.96474266052246,-3.540822505950928,-2.9539999961853027,-0.4636048078536987
2498867699.0,-0.3193604052066803,-0.1652235239744186,10.051607131958008,-3.2946691513061523,-2.420225143432617,-0.4495426118373871
2498876032.0,-0.6071752905845642,-0.0048575680702924,9.778482437133787,-3.2475903034210205,-1.837321758270264,-0.4857611358165741
2498884365.0,-0.8758543133735657,-0.0579258352518081,9.504072189331056,-3.578244686126709,-2.176019191741944,-0.4513612687587738
2498892698.0,-0.9637954831123352,-0.3470088243484497,9.72343921661377,-3.824653625488281,-2.9693944454193115,-0.4904229640960693
2498901031.0,-0.6854058504104614,-0.2825243175029754,9.951397895812988,-3.510700225830078,-3.418078899383545,-0.6259991526603699
2498909364.0,-0.4963344931602478,-0.0421137697994709,9.914042472839355,-3.3595244884490967,-3.2946951389312744,-0.6420848369598389
2498917697.0,-0.5743216872215271,0.0138555895537137,9.644596099853516,-3.587465524673462,-2.8274402618408203,-0.4782561957836151
2498926030.0,-0.6612687110900879,-0.2697315514087677,9.67786979675293,-3.802215337753296,-3.221130847930908,-0.4308186173439026
2498934363.0,-0.4736651182174682,-0.4178234338760376,9.941389083862305,-3.5491726398468018,-3.196746349334717,-0.428103506565094
2498942696.0,-0.3555293381214142,-0.219714269042015,9.964735984802246,-3.376455783843994,-2.825493574142456,-0.5054073333740234
2498951029.0,-0.5443500280380249,-0.031678132712841,9.759573936462402,-3.3407750129699707,-2.306472063064575,-0.5018212795257568
2498959362.0,-0.7815008163452148,-0.1852876991033554,9.700705528259276,-3.5911543369293213,-2.5182249546051025,-0.4594297409057617
2498967695.0,-0.7684317827224731,-0.2841387093067169,9.87235164642334,-3.5515291690826416,-2.9936256408691406,-0.4098405838012695
2498976028.0,-0.5593031048774719,-0.2118047326803207,9.94486141204834,-3.4315521717071533,-3.136988401412964,-0.4321762323379516
2498984361.0,-0.5186175107955933,-0.1412631571292877,9.776294708251951,-3.433063268661499,-2.900440692901612,-0.3928327262401581
2498992694.0,-0.6039296388626099,-0.2596344351768493,9.675891876220703,-3.742483615875244,-2.8097152709960938,-0.3433716893196106
2499001027.0,-0.577738344669342,-0.4307406842708587,9.800912857055664,-3.5665903091430664,-3.0325591564178467,-0.3656816482543945
2499009360.0,-0.4363479316234588,-0.3037584125995636,9.922337532043455,-3.368746042251587,-3.162935495376587,-0.2703966796398163
2499017693.0,-0.4570867419242859,-0.1717926859855651,9.82898235321045,-3.374714136123657,-2.8386595249176025,-0.4003377258777618
2499026026.0,-0.5806893110275269,-0.2145327627658844,9.663538932800291,-3.499455690383911,-2.541764736175537,-0.3352519273757934
2499034359.0,-0.7087199687957764,-0.4433101415634155,9.813508987426758,-3.4023263454437256,-2.768296957015991,-0.3094840049743652
2499042692.0,-0.6467871069908142,-0.3802558779716491,10.04221534729004,-3.275151491165161,-2.9641945362091064,-0.4211364090442657
2499051025.0,-0.5601150393486023,-0.0573422014713287,9.900091171264648,-3.0232608318328857,-2.623653173446656,-0.4528980553150177
2499059358.0,-0.7305578589439392,0.0886862650513649,9.57680892944336,-3.4233298301696777,-2.610257148742676,-0.3837908804416656
2499067691.0,-0.7984340190887451,-0.1953142434358596,9.640979766845703,-3.831902265548706,-3.5616719722747803,-0.3825357556343078
2499076024.0,-0.5943111777305603,-0.3924088776111603,9.912168502807615,-3.8733978271484375,-4.127363204956055,-0.3795389533042907
2499084357.0,-0.375618040561676,-0.2303335666656494,10.0574369430542,-3.5998120307922363,-3.887894868850708,-0.2059768587350845
2499092690.0,-0.5853080749511719,0.0579541400074958,9.747504234313965,-3.7738349437713614,-3.329453468322754,-0.2164530903100967
2499101023.0,-0.8313493132591248,-0.096993014216423,9.653851509094238,-4.013482093811035,-3.4747633934021,-0.2310532182455063
2499109356.0,-0.8200927376747131,-0.327718585729599,9.946619987487791,-4.197237968444824,-4.052236080169678,-0.1357938647270202
2499117689.0,-0.7288210391998291,-0.3205766677856445,10.069713592529297,-4.067041397094727,-4.553250312805176,-0.0557750016450881
2499126022.0,-0.5062241554260254,-0.150652214884758,9.939403533935549,-3.767379999160767,-4.118166923522949,0.0556853450834751
2499134355.0,-0.5614336729049683,-0.1963034868240356,9.77067756652832,-3.843326091766357,-3.61300277709961,0.2650048732757568
2499142688.0,-0.5909813642501831,-0.3818593323230743,9.92017936706543,-3.870989799499512,-3.487313747406006,0.5370792150497437
2499151021.0,-0.2945564985275268,-0.3329564034938812,10.135068893432615,-3.663386106491089,-3.468590021133423,0.5677138566970825
2499159354.0,-0.3364636301994324,0.0136847365647554,10.033404350280762,-3.4775807857513428,-3.284193277359009,0.1299410164356231
2499167687.0,-0.5439796447753906,-0.0574274584650993,9.727932929992676,-3.4738669395446777,-2.610410690307617,0.0016136968042701
2499176020.0,-0.7347266674041748,-0.2172478884458542,9.671608924865724,-3.8800570964813232,-2.7297475337982178,-0.0153045067563653
2499184353.0,-0.7798165082931519,-0.3928335309028625,9.98647689819336,-3.874627113342285,-3.203329086303711,-0.0062882951460778
2499192686.0,-0.5054733753204346,-0.0808123797178268,10.153186798095703,-3.157889604568481,-3.096569061279297,-0.255437970161438
2499201019.0,-0.7004844546318054,0.1797740012407302,9.76092529296875,-3.616025924682617,-2.87539005279541,-0.2399669885635376
2499209352.0,-0.5587846040725708,-0.0213327873498201,9.733020782470703,-3.8438899517059326,-3.11846923828125,-0.2251619398593902
2499217685.0,-0.5456695556640625,-0.2565793991088867,9.855867385864258,-4.138786792755127,-3.2113211154937744,-0.3437046408653259
2499226018.0,-0.4601682424545288,-0.2559351027011871,10.110949516296388,-3.863997220993042,-3.270592451095581,-0.269961267709732
2499234351.0,-0.3466473817825317,-0.0568921491503715,10.084792137145996,-3.496535539627075,-2.695936679840088,-0.3819466531276703
2499242684.0,-0.557113766670227,-0.0637890249490737,9.895160675048828,-3.7602851390838623,-2.3410260677337646,-0.3721364438533783
2499251017.0,-0.8023435473442078,-0.1145660728216171,9.846083641052246,-3.9512648582458496,-2.525346040725708,-0.4007987678050995
2499259350.0,-0.7864362597465515,-0.1207518577575683,9.957655906677246,-3.8585667610168457,-2.8065905570983887,-0.2935519516468048
2499267683.0,-0.7214310169219971,-0.0804483070969581,9.878460884094238,-3.893735408782959,-3.0657293796539307,-0.4445478320121765
2499276016.0,-0.5630286335945129,-0.191876083612442,9.795025825500488,-3.996422290802002,-3.178175687789917,-0.3712655007839203
2499284349.0,-0.512934148311615,-0.3515449464321136,9.941823959350586,-4.072625160217285,-3.229301691055298,-0.2964207231998443
2499292682.0,-0.472311794757843,-0.2489075511693954,10.0260009765625,-3.684569597244263,-3.096850633621216,-0.3072555661201477
2499301015.0,-0.4935063421726227,-0.0794634521007537,9.797297477722168,-3.629652738571167,-2.650445938110352,-0.3016716539859772
2499309348.0,-0.7378599643707275,-0.1458249539136886,9.640308380126951,-3.822450876235962,-2.474553108215332,-0.4514637291431427
2499317681.0,-0.8512119054794312,-0.4336362481117248,9.788140296936035,-3.94985580444336,-2.7942440509796143,-0.3833042085170746
2499326014.0,-0.7594752311706543,-0.5109254121780396,9.932242393493652,-3.6713013648986816,-3.0837109088897705,-0.4567146301269531
2499334347.0,-0.5746942162513733,-0.1233901903033256,9.85230827331543,-3.401071071624756,-3.087142944335937,-0.4284621477127075
2499342680.0,-0.6235711574554443,-0.0480453819036483,9.628880500793455,-3.4911820888519287,-2.9942400455474854,-0.4257213771343231
2499351013.0,-0.6468691825866699,-0.2917293906211853,9.63617992401123,-3.813076019287109,-3.1641652584075928,-0.4154501259326935
2499359346.0,-0.5823231935501099,-0.4689014852046966,9.822734832763672,-3.798117160797119,-3.5423333644866943,-0.3597903251647949
2499367679.0,-0.4358593225479126,-0.3302430510520935,9.823659896850586,-3.4886462688446045,-3.1241044998168945,-0.3855839073657989
2499376012.0,-0.5913993716239929,-0.1862492859363556,9.654809951782228,-3.5154128074646,-2.7973947525024414,-0.3352775275707245
2499384345.0,-0.6161813139915466,-0.2158314734697342,9.642154693603516,-3.660850763320923,-2.787379264831543,-0.3529769778251648
2499392678.0,-0.7518077492713928,-0.3905989229679107,9.800110816955566,-3.6508867740631104,-3.108940839767456,-0.2301567196846008
2499401011.0,-0.61155766248703,-0.3222384452819824,9.812901496887209,-3.640358924865722,-3.090370416641236,-0.3186795115470886
2499409344.0,-0.5663694143295288,-0.1757338345050811,9.67788791656494,-3.5033488273620605,-3.108659029006958,-0.4749519824981689
2499417677.0,-0.5996294617652893,-0.2712821662425995,9.618584632873535,-3.682085037231445,-3.212780714035034,-0.4690350294113159
2499426010.0,-0.5159140229225159,-0.4937170147895813,9.781496047973633,-3.832055807113648,-3.4343690872192383,-0.2793360352516174
2499434343.0,-0.3429836630821228,-0.4192615449428558,9.900824546813965,-3.390697479248047,-3.374483585357666,-0.3427313268184662
2499442676.0,-0.3481297194957733,-0.1701594740152359,9.74424171447754,-3.256991147994995,-2.958867073059082,-0.3462916910648346
2499451009.0,-0.5384792685508728,-0.2530748546123504,9.592984199523926,-3.408422470092773,-2.7724974155426025,-0.3427312970161438
2499459342.0,-0.6398047208786011,-0.5313187837600708,9.693668365478516,-3.742098808288574,-3.0733628273010254,-0.3701641261577606
2499467675.0,-0.5759111046791077,-0.6286135911941528,9.94678020477295,-3.3218462467193604,-3.2998437881469727,-0.4365050196647644
2499476008.0,-0.4328104853630066,-0.3073944747447967,9.88499355316162,-2.990679979324341,-3.0934700965881348,-0.3368144333362579
2499484341.0,-0.464796245098114,-0.1604077816009521,9.6919527053833,-3.149564981460572,-2.935225009918213,-0.471494048833847
2499492674.0,-0.5078495144844055,-0.3245971202850342,9.65961456298828,-3.389801025390625,-3.084095001220703,-0.4721856117248535
2499501007.0,-0.3823714852333069,-0.515195906162262,9.866336822509766,-3.350073337554932,-3.2282261848449707,-0.4302551448345184
2499509340.0,-0.2454066574573516,-0.4904907345771789,9.928170204162598,-3.0937259197235107,-3.085785388946533,-0.429000049829483
2499517673.0,-0.3087433576583862,-0.1822358220815658,9.773653030395508,-2.926515817642212,-2.615635871887207,-0.3850203454494476
2499526006.0,-0.5633903741836548,-0.2597937881946563,9.741829872131348,-3.13767957687378,-2.437028169631958,-0.4526931643486023
2499534339.0,-0.6475304365158081,-0.386801928281784,9.832771301269531,-3.2320172786712646,-2.7356386184692383,-0.3652206063270569
2499542672.0,-0.5087639689445496,-0.3720357716083526,9.917081832885742,-3.0083537101745605,-3.0590696334838867,-0.3667317926883697
2499551005.0,-0.3995733261108398,-0.1497963964939117,9.890830039978027,-2.9817912578582764,-2.885840654373169,-0.4056910276412964
2499559338.0,-0.4754615128040313,-0.1785030663013458,9.740458488464355,-3.0358119010925293,-2.5855135917663574,-0.3963930606842041
2499567671.0,-0.510776162147522,-0.3585565686225891,9.770024299621582,-3.164856672286988,-2.77065372467041,-0.3796413838863373
2499576004.0,-0.3892748653888702,-0.4109835922718048,9.92577075958252,-3.086784601211548,-2.918421983718872,-0.3207030594348907
2499584337.0,-0.2878576517105102,-0.1139195263385772,9.915614128112791,-2.9057939052581787,-2.6446566581726074,-0.3434228301048279
2499592670.0,-0.4570416808128357,0.0480572804808616,9.73956298828125,-2.984506607055664,-2.286057472229004,-0.2456789463758468
2499601003.0,-0.7210460305213928,-0.1765457540750503,9.664679527282717,-3.147899866104126,-2.472273111343384,-0.2977270483970642
2499609336.0,-0.7313916683197021,-0.3995321989059448,9.860560417175291,-3.296513795852661,-2.6645848751068115,-0.324955016374588
2499617669.0,-0.5635556578636169,-0.23799629509449,9.97511386871338,-2.947237730026245,-2.837455034255981,-0.4431646764278412
2499626002.0,-0.5164967775344849,0.0574920214712619,9.843538284301758,-3.01570463180542,-2.6299288272857666,-0.4349937438964844
2499634335.0,-0.6163551807403564,0.0184029731899499,9.662172317504885,-3.2028934955596924,-2.5089781284332275,-0.3543857336044311
2499642668.0,-0.6407592296600342,-0.2452278882265091,9.769567489624023,-3.370129108428955,-2.918985843658448,-0.3266711831092834
2499651001.0,-0.4774085283279419,-0.3051528036594391,9.949116706848145,-3.2773287296295166,-2.9656035900115967,-0.3170914351940155
2499659334.0,-0.4309619069099426,-0.1173128187656402,9.914061546325684,-2.9479033946990967,-2.7019810676574707,-0.4012084901332855
2499667667.0,-0.6356021761894226,-0.0525403246283531,9.69770336151123,-3.283655166625977,-2.407366275787353,-0.2970098555088043
2499676000.0,-0.8421238660812378,-0.2228152006864547,9.797914505004885,-3.2984087467193604,-2.557004928588867,-0.351773053407669
2499684333.0,-0.7474501729011536,-0.2128831446170807,9.884234428405762,-3.1911368370056152,-2.958867073059082,-0.2479842454195022
2499692666.0,-0.6171891093254089,-0.1162187308073043,9.924717903137209,-3.1070709228515625,-2.935506820678711,-0.397366464138031
2499700999.0,-0.6249341368675232,-0.0123503357172012,9.845897674560549,-3.1724636554718018,-2.6625359058380127,-0.3946256935596466
2499709332.0,-0.6813710331916809,-0.1753624230623245,9.736820220947266,-3.2172892093658447,-2.796600818634033,-0.3705483675003052
2499717665.0,-0.5812777280807495,-0.2615552842617035,9.839235305786133,-3.279172897338867,-3.134631872177124,-0.31747567653656
2499725998.0,-0.4137075543403625,-0.1619564592838287,9.964554786682127,-3.312394618988037,-2.9359679222106934,-0.3170658349990845
2499734331.0,-0.4909601211547851,-0.0253158789128065,9.884076118469238,-3.233093023300171,-2.5164575576782227,-0.3871975839138031
2499742664.0,-0.7635306119918823,-0.1370228976011276,9.705756187438965,-3.3674137592315674,-2.40388298034668,-0.3656559884548187
2499750997.0,-0.8265303373336792,-0.4395875334739685,9.73317050933838,-3.4429759979248047,-2.953948736190796,-0.2857908308506012
2499759330.0,-0.6184941530227661,-0.3338981568813324,9.959617614746094,-3.202816963195801,-3.1255130767822266,-0.3109696507453918
2499767663.0,-0.4852856993675232,-0.0469884574413299,9.945738792419434,-2.99759578704834,-2.9033353328704834,-0.5216467380523682
2499775996.0,-0.5764815807342529,0.068978726863861,9.727787971496582,-3.262754201889038,-2.6954245567321777,-0.4698547422885895
2499784329.0,-0.6202911734580994,-0.2323786914348602,9.70340347290039,-3.578833818435669,-3.095903158187866,-0.3693957328796386
2499792662.0,-0.4454709589481354,-0.345723420381546,9.878811836242676,-3.564310312271118,-3.1860907077789307,-0.4773085117340088
2499800995.0,-0.3056079447269439,-0.1857460588216781,9.99817180633545,-3.459932327270508,-2.950977802276612,-0.3667318224906921
2499809328.0,-0.4410920143127441,-0.1344007551670074,9.812514305114746,-3.344693660736084,-2.35880184173584,-0.445060133934021
2499817661.0,-0.6775602698326111,-0.2597365975379944,9.71524715423584,-3.448354721069336,-2.323172807693481,-0.3032597303390503
2499825994.0,-0.6588171720504761,-0.4369231462478637,9.839760780334473,-3.509521484375,-2.9182939529418945,-0.4034626483917236
2499834327.0,-0.4635651111602783,-0.2855279445648193,9.967455863952637,-3.376173973083496,-2.951951265335083,-0.440885066986084
2499842660.0,-0.4303085505962372,-0.1750192642211914,9.8810453414917,-3.218083143234253,-2.725700855255127,-0.3706764280796051
2499850993.0,-0.5325330495834351,-0.2991959452629089,9.719858169555664,-3.4398767948150635,-2.7958579063415527,-0.4326116442680359
2499859326.0,-0.5016727447509766,-0.5049989819526672,9.815221786499023,-3.375661849975586,-3.1350672245025635,-0.4121714830398559
2499867659.0,-0.3508168756961822,-0.396616518497467,9.933086395263672,-3.2650341987609863,-3.0714926719665527,-0.377515435218811
2499875992.0,-0.3134475946426391,-0.148460641503334,9.920783996582031,-3.0461084842681885,-2.5173540115356445,-0.4116847515106201
2499884325.0,-0.5939491987228394,-0.2360639721155166,9.753277778625488,-3.150819778442383,-2.219972848892212,-0.3725206255912781
2499892658.0,-0.7638302445411682,-0.440121978521347,9.737147331237791,-3.276355266571045,-2.6037256717681885,-0.4274119436740875
2499900991.0,-0.6743932366371155,-0.4170540869235992,9.893827438354492,-3.1388325691223145,-2.8577418327331543,-0.418754369020462
2499909324.0,-0.5068582892417908,-0.0948590487241745,9.91441249847412,-2.941167116165161,-2.8319735527038574,-0.4166026711463928
2499917657.0,-0.5362793207168579,0.0653023943305015,9.78290843963623,-3.189445972442627,-2.583080291748047,-0.5008991360664368
2499925990.0,-0.657951831817627,-0.1671826541423797,9.705945014953612,-3.358910083770752,-2.6813879013061523,-0.4389383792877197
2499934323.0,-0.5431109666824341,-0.4042282998561859,9.81218433380127,-3.3806309700012207,-3.0069704055786133,-0.4958019554615021
2499942656.0,-0.4132117927074432,-0.2560251951217651,9.899123191833496,-3.1855273246765137,-2.803593397140503,-0.330026626586914
2499950989.0,-0.5053980946540833,-0.0562790855765342,9.85842990875244,-3.187422513961792,-2.501114845275879,-0.389169842004776
2499959322.0,-0.7625579833984375,-0.0907863304018974,9.757003784179688,-3.2626256942749023,-2.2608020305633545,-0.3701128661632538
2499967655.0,-0.8301075100898743,-0.2720532119274139,9.792133331298828,-3.442105293273926,-2.724214792251587,-0.3664244711399078
2499975988.0,-0.6507710814476013,-0.2943092286586761,9.932259559631348,-3.316748857498169,-2.97733473777771,-0.5242081880569458
2499984321.0,-0.5288878679275513,-0.1561757028102874,9.872137069702148,-3.367747068405152,-2.9070749282836914,-0.4247224628925323
2499992654.0,-0.6247379779815674,-0.1969513446092605,9.750347137451172,-3.2475905418396,-2.634718894958496,-0.4174736142158508
2500000987.0,-0.6264498233795166,-0.3986806869506836,9.770133972167969,-3.396921157836914,-3.0597612857818604,-0.462913304567337
2500009320.0,-0.4595168530941009,-0.3838481605052948,9.9142484664917,-3.333808183670044,-3.148155927658081,-0.3812550902366638
2500017653.0,-0.4014079868793487,-0.1608008444309234,9.95366096496582,-3.121670722961426,-2.7142508029937744,-0.4135802090167999
2500025986.0,-0.5835362076759338,-0.112957626581192,9.785154342651367,-3.166085720062256,-2.2945358753204346,-0.4256189167499542
2500034319.0,-0.8171333074569702,-0.3242896199226379,9.727645874023438,-3.379452705383301,-2.6816697120666504,-0.5154224634170532
2500042652.0,-0.713550865650177,-0.4714145958423614,9.88398551940918,-3.1829147338867188,-3.084172010421753,-0.4633487164974212
2500050985.0,-0.4662144780158996,-0.2366339564323425,10.008502006530762,-2.9780521392822266,-3.1700565814971924,-0.357792466878891
2500059318.0,-0.4560052454471588,0.0611299723386764,9.870379447937012,-3.002462148666382,-2.8525161743164062,-0.3101755678653717
2500067651.0,-0.5687952041625977,-0.0605323649942874,9.695937156677246,-3.1965668201446533,-2.6553380489349365,-0.4245175123214721
2500075984.0,-0.5613084435462952,-0.3408459722995758,9.808006286621094,-3.4996087551116943,-2.943267822265625,-0.3963418900966644
2500084317.0,-0.3816184103488922,-0.3291190564632416,9.930895805358888,-3.237729072570801,-3.0779731273651123,-0.3711374700069427
2500092650.0,-0.3771680295467376,-0.0875169113278389,9.947504997253418,-3.1606554985046387,-2.6236021518707275,-0.3560506701469421
2500100983.0,-0.595355749130249,-0.004328372888267,9.732588768005373,-3.294233798980713,-2.239337205886841,-0.3240585029125213
2500109316.0,-0.7370222806930542,-0.2024009227752685,9.726046562194824,-3.4502503871917725,-2.659846067428589,-0.259408175945282
2500117649.0,-0.5995672941207886,-0.3346969783306122,9.888654708862305,-3.4799118041992188,-3.0236196517944336,-0.3604051172733307
2500125982.0,-0.4477341175079345,-0.1824071109294891,9.959077835083008,-3.267595291137696,-2.8397607803344727,-0.2846382260322571
2500134315.0,-0.5279672741889954,-0.099258005619049,9.763577461242676,-3.220900297164917,-2.5748066902160645,-0.4325603544712066
2500142648.0,-0.6065912842750549,-0.2903175055980682,9.679067611694336,-3.544997453689575,-2.876030445098877,-0.3048990964889526
2500150981.0,-0.468368798494339,-0.3996451199054718,9.8284273147583,-3.5206637382507324,-3.1696720123291016,-0.3358666598796844
2500159314.0,-0.3045690655708313,-0.246934562921524,9.980756759643556,-3.213062524795532,-2.940168619155884,-0.3655791580677032
2500167647.0,-0.3989291787147522,-0.1047311201691627,9.817554473876951,-3.1454665660858154,-2.3539865016937256,-0.334739625453949
2500175980.0,-0.7199482917785645,-0.3080038130283355,9.670737266540527,-3.4147744178771973,-2.295893430709839,-0.4683434665203094
2500184313.0,-0.7689832448959351,-0.5248146653175354,9.813410758972168,-3.332604169845581,-3.000951051712036,-0.3474955260753631
2500192646.0,-0.5671606659889221,-0.3880871534347534,10.005109786987305,-3.1216964721679688,-3.073132038116455,-0.4184213280677795
2500200979.0,-0.4860315024852752,-0.0449345521628856,9.952322959899902,-2.854386568069458,-2.630031108856201,-0.4681897759437561
2500209312.0,-0.6020649075508118,-0.0120891388505697,9.69170379638672,-3.2048144340515137,-2.553239822387696,-0.4324579238891601
2500217645.0,-0.666208803653717,-0.3367904126644134,9.69050407409668,-3.394129753112793,-2.973108530044556,-0.3071787357330322
2500225978.0,-0.4770609736442566,-0.4593132138252258,9.90306282043457,-3.375661849975586,-3.059530735015869,-0.4347888827323913
2500234311.0,-0.3915863037109375,-0.2452461570501327,9.973265647888184,-3.1474642753601074,-2.6798250675201416,-0.3865059614181518
2500242644.0,-0.5624302625656128,-0.0625419244170188,9.856210708618164,-3.1483864784240723,-2.2351109981536865,-0.4649367332458496
2500250977.0,-0.8147356510162354,-0.1558612734079361,9.701552391052246,-3.3457958698272705,-2.5577993392944336,-0.3592524826526642
2500259310.0,-0.7861364483833313,-0.3222992122173309,9.804557800292969,-3.4176180362701416,-2.955947160720825,-0.3615833818912506
2500267643.0,-0.5470501184463501,-0.2975371181964874,9.96738338470459,-3.361189842224121,-3.068777561187744,-0.4211108684539795
2500275976.0,-0.5155157446861267,-0.1547007411718368,9.8798828125,-3.087578058242798,-2.771703720092773,-0.3944464027881622
2500284309.0,-0.6544479131698608,-0.2468428611755371,9.709271430969238,-3.3871114253997803,-2.621962785720825,-0.4162697494029999
2500292642.0,-0.6156343817710876,-0.3938493430614471,9.801886558532717,-3.294234275817871,-2.9887845516204834,-0.3921411633491516
2500300975.0,-0.4225588142871856,-0.2670307457447052,9.917625427246094,-3.230224370956421,-3.0623998641967773,-0.3368656635284424
2500309308.0,-0.3801975846290588,-0.0865377485752105,9.936309814453123,-3.1701838970184326,-2.5571329593658447,-0.4375807046890259
2500317641.0,-0.6426900029182434,-0.1399792432785034,9.748098373413086,-3.080073118209839,-2.4112088680267334,-0.3928326964378357
2500325974.0,-0.8174177408218384,-0.4247625768184662,9.723782539367676,-3.332117319107056,-2.805847406387329,-0.4430365860462188
2500334307.0,-0.6613600850105286,-0.455541044473648,9.8974609375,-3.14093279838562,-3.232785701751709,-0.4305624961853027
2500342640.0,-0.4624103605747223,-0.1201024129986763,10.000784873962402,-2.9396564960479736,-2.996366262435913,-0.4174992442131042
2500350973.0,-0.499100774526596,0.1218394041061401,9.818743705749512,-2.999029874801636,-2.611896276473999,-0.4577135443687439
2500359306.0,-0.6626006364822388,-0.086964227259159,9.643304824829102,-3.3800418376922607,-2.729696273803711,-0.3511839807033539
2500367639.0,-0.563636064529419,-0.3995072245597839,9.803022384643556,-3.5094704627990723,-3.051898002624512,-0.5327633023262024
2500375972.0,-0.3700707554817199,-0.2999626100063324,9.978022575378418,-3.1973354816436768,-3.0432145595550537,-0.2997249662876129
2500384305.0,-0.3530571460723877,-0.0396899916231632,9.94772720336914,-3.051154851913452,-2.617300748825073,-0.4269252419471741
2500392638.0,-0.6555054187774658,-0.0291602574288845,9.740397453308104,-3.148745059967041,-2.3153090476989746,-0.5296383500099182
2500400971.0,-0.7637040615081787,-0.1964383423328399,9.754984855651855,-3.3546836376190186,-2.7727537155151367,-0.4406545162200928
2500409304.0,-0.6005347967147827,-0.2534810304641723,9.901461601257324,-3.302072286605835,-3.077409744262696,-0.3716241419315338
2500417637.0,-0.4499999582767486,-0.0809211060404777,9.918020248413086,-3.2674927711486816,-2.7887885570526123,-0.3745441734790802
2500425970.0,-0.5116889476776123,-0.1120334416627883,9.762775421142578,-3.3269176483154297,-2.655261516571045,-0.4597883820533752
2500434303.0,-0.5907609462738037,-0.3485301434993744,9.726029396057127,-3.3715124130249023,-2.897213697433472,-0.3838933408260345
2500442636.0,-0.4483901262283325,-0.3694330155849457,9.91359043121338,-3.3965625762939453,-3.028998374938965,-0.3082288801670074
2500450969.0,-0.340751439332962,-0.1221760362386703,9.94320011138916,-3.078997611999512,-2.6720130443573,-0.4207522273063659
2500459302.0,-0.5264191031455994,-0.0153001928701996,9.78358268737793,-3.238420486450196,-2.236878156661988,-0.4885787069797516
2500467635.0,-0.8175640106201172,-0.2819679677486419,9.686923027038574,-3.483728408813477,-2.4803929328918457,-0.4095332324504852
2500475968.0,-0.729368269443512,-0.5306833386421204,9.8541259765625,-3.4548354148864746,-2.964117765426636,-0.3852253258228302
2500484301.0,-0.4923223853111267,-0.3459804952144623,9.999073028564451,-3.1231565475463867,-3.033865213394165,-0.3856351375579834
2500492634.0,-0.4339897036552429,0.0115671083331108,9.872260093688965,-2.980152130126953,-2.652878999710083,-0.4429853558540344
2500500967.0,-0.6333460211753845,-0.0496155731379985,9.66876220703125,-3.339238405227661,-2.5313141345977783,-0.4233136773109436
2500509300.0,-0.6485423445701599,-0.3891614079475403,9.720497131347656,-3.504040241241455,-2.868371725082397,-0.4108651578426361
2500517633.0,-0.4605035483837127,-0.4469644129276275,9.91598892211914,-3.3154172897338867,-3.0957236289978027,-0.369113951921463
2500525966.0,-0.4069661498069763,-0.2280008494853973,10.021484375,-3.178534746170044,-2.78538179397583,-0.3807428479194641
2500534299.0,-0.6014921069145203,-0.0641516298055648,9.821547508239746,-3.192673683166504,-2.2833681106567383,-0.4181908369064331
2500542632.0,-0.8262037634849548,-0.2383524477481842,9.713237762451172,-3.372460126876831,-2.6256768703460693,-0.3774129748344421
2500550965.0,-0.7019226551055908,-0.3624311983585357,9.853336334228516,-3.421178340911865,-3.1322498321533203,-0.3768750727176666
2500559298.0,-0.4460430741310119,-0.2644583284854889,9.98931121826172,-3.2715914249420166,-2.976515293121338,-0.3867622017860412
2500567631.0,-0.4653737246990204,-0.1491138786077499,9.836827278137209,-3.2493064403533936,-2.599371194839477,-0.4414741396903991
2500575964.0,-0.649590790271759,-0.282472550868988,9.737509727478027,-3.44287371635437,-2.7197067737579346,-0.4342253506183624
2500584297.0,-0.5789806842803955,-0.4480163753032684,9.79256534576416,-3.365518569946289,-3.082353115081787,-0.35553839802742
2500592630.0,-0.3717475533485412,-0.3309745192527771,9.939839363098145,-3.228687524795532,-3.040858507156372,-0.4716989398002624
2500600963.0,-0.384130984544754,-0.1254910081624984,9.891674041748049,-3.174922466278076,-2.501883029937744,-0.3611990511417389
2500609296.0,-0.7279097437858582,-0.1539621204137802,9.695135116577148,-3.2496907711029053,-2.34760856628418,-0.2452178746461868
2500617629.0,-0.8451411724090576,-0.5479007363319397,9.754870414733888,-3.3628034591674805,-2.8732895851135254,-0.3429361879825592
2500625962.0,-0.5660229921340942,-0.4207950234413147,9.935556411743164,-3.182222843170166,-3.129944562911988,-0.4387334585189819
2500634295.0,-0.4200283288955688,-0.1043885648250579,10.010618209838867,-2.9939839839935303,-2.917807340621948,-0.4710841774940491
2500642628.0,-0.4824837148189544,0.0005060972180217,9.747381210327148,-3.0997703075408936,-2.6426331996917725,-0.3751332461833954
2500650961.0,-0.6376429200172424,-0.2405491471290588,9.65001392364502,-3.382628917694092,-2.8528494834899902,-0.4083293676376343
2500659294.0,-0.4706100225448608,-0.44952392578125,9.837260246276855,-3.357116937637329,-3.124257802963257,-0.3645802140235901
2500667627.0,-0.3883596062660217,-0.3423946499824524,9.987436294555664,-3.0767180919647217,-2.953154802322388,-0.4026173651218414
2500675960.0,-0.4306599795818329,-0.0139088574796915,9.859378814697266,-3.081686496734619,-2.3270914554595947,-0.4633742272853851
2500684293.0,-0.7746618390083313,-0.1068883761763572,9.70549488067627,-3.3268914222717285,-2.383903741836548,-0.3817161023616791
2500692626.0,-0.7947092056274414,-0.3130522966384887,9.745490074157717,-3.357347249984741,-2.8620450496673584,-0.4464176595211029
2500700959.0,-0.5266819000244141,-0.2794361114501953,9.932290077209473,-3.2006399631500244,-3.11250114440918,-0.3446523547172546
2500709292.0,-0.4464922547340393,-0.0897842720150947,9.875125885009766,-3.106942653656006,-2.773547887802124,-0.4725954830646515
2500717625.0,-0.5461587309837341,-0.1143526062369346,9.74527072906494,-3.3061447143554688,-2.6045963764190674,-0.4901155829429626
2500725958.0,-0.5987818837165833,-0.3404235243797302,9.730201721191406,-3.336267232894897,-2.8972134590148926,-0.3667318522930145
2500734291.0,-0.4480301439762115,-0.346219539642334,9.941123962402344,-3.219133138656616,-3.102203845977783,-0.4032064974308014
2500742624.0,-0.341059535741806,-0.1146958097815513,9.955501556396484,-3.178406238555908,-2.672192335128784,-0.3894516229629516
2500750957.0,-0.5594862699508667,-0.0072324033826589,9.747110366821287,-3.1196212768554688,-2.279115915298462,-0.3895796537399292
2500759290.0,-0.8550786972045898,-0.3004862368106842,9.682602882385254,-3.421793222427368,-2.540663242340088,-0.4924465119838714
2500767623.0,-0.7095100283622742,-0.4255645871162414,9.85023307800293,-3.261601448059082,-3.1212358474731445,-0.359508603811264
2500775956.0,-0.4586391448974609,-0.220607042312622,10.013421058654783,-2.9979283809661865,-2.9488003253936768,-0.4111725091934204
2500784289.0,-0.4362033605575561,0.1156481280922889,9.853754997253418,-3.0692384243011475,-2.667991399765014,-0.4231343269348144
2500792622.0,-0.6489629745483398,-0.0575714260339736,9.65420913696289,-3.306759595870972,-2.5673534870147705,-0.4059984385967254
2500800955.0,-0.6600406169891357,-0.3828639984130859,9.746042251586914,-3.5426411628723145,-2.878643274307251,-0.3366094827651977
2500809288.0,-0.3843443393707275,-0.3416180312633514,9.95930004119873,-3.364135503768921,-3.0657296180725098,-0.374313622713089
2500817621.0,-0.372681587934494,-0.1005615890026092,9.958450317382812,-3.1711058616638184,-2.534899950027466,-0.2653762698173523
2500825954.0,-0.619318425655365,-0.0322373360395431,9.75343132019043,-3.248896598815918,-2.259162425994873,-0.4074071943759918
2500834287.0,-0.8358732461929321,-0.2345776557922363,9.703622817993164,-3.3858306407928467,-2.754644632339477,-0.3825614154338836
2500842620.0,-0.6662743091583252,-0.3240909576416015,9.874571800231934,-3.338649272918701,-3.157146692276001,-0.3286947309970855
2500850953.0,-0.4666391909122467,-0.177311286330223,9.99752140045166,-3.210885524749756,-3.0808162689208984,-0.3764140009880066
2500859286.0,-0.5396574139595032,-0.1034471616148948,9.77969741821289,-3.345744609832764,-2.626957654953003,-0.557634711265564
2500867619.0,-0.6686915159225464,-0.3096210658550262,9.70162868499756,-3.4306557178497314,-2.853156805038452,-0.3540015518665313
2500875952.0,-0.5181882381439209,-0.4132266640663147,9.874510765075684,-3.527092933654785,-3.081482172012329,-0.449286550283432
2500884285.0,-0.3380149304866791,-0.2419074475765228,9.964560508728027,-3.19559383392334,-2.846087455749512,-0.3794621229171753
2500892618.0,-0.447577029466629,-0.0763561278581619,9.884604454040527,-3.253814697265625,-2.370814800262451,-0.373724490404129
2500900951.0,-0.7451878786087036,-0.2529470324516296,9.697702407836914,-3.3425679206848145,-2.474808931350708,-0.3932424783706665
2500909284.0,-0.7728938460350037,-0.5052812695503235,9.8043212890625,-3.433345079421997,-3.0319700241088867,-0.3142994940280914
2500917617.0,-0.5035219788551331,-0.3978112041950226,9.969145774841309,-3.1870386600494385,-3.187141180038452,-0.4093795418739319
2500925950.0,-0.3730676174163818,-0.0560073181986808,9.93801498413086,-3.075462579727173,-2.7330002784729004,-0.4730821251869201
2500934283.0,-0.5580940842628479,-0.0277324859052896,9.711076736450195,-3.1356561183929443,-2.4166646003723145,-0.4725185632705688
2500942616.0,-0.6499149203300476,-0.3261211514472961,9.685717582702637,-3.3891990184783936,-2.966179847717285,-0.3486353456974029
2500950949.0,-0.482284814119339,-0.5152695178985596,9.895614624023438,-3.3938992023468018,-3.2029449939727783,-0.3823564946651459
2500959282.0,-0.3738007545471191,-0.2565080225467682,9.986590385437012,-3.136348009109497,-2.875005960464477,-0.4236978888511657
2500967615.0,-0.5137383341789246,-0.0418136864900589,9.859726905822754,-3.060760021209717,-2.1539394855499268,-0.4550240635871887
2500975948.0,-0.7734341621398926,-0.2053492814302444,9.705604553222656,-3.263317108154297,-2.4720678329467773,-0.4169100522994995
2500984281.0,-0.7083412408828735,-0.3683935105800628,9.777929306030272,-3.339186906814575,-2.9794092178344727,-0.3693957030773163
2500992614.0,-0.4928839206695556,-0.3142680823802948,9.97260284423828,-3.225332021713257,-3.0300748348236084,-0.3410919904708862
2501000947.0,-0.457923412322998,-0.1118736639618873,9.887680053710938,-3.0974907875061035,-2.53013563156128,-0.5018724799156189
2501009280.0,-0.6107795238494873,-0.1975384801626205,9.676513671875,-3.433959722518921,-2.6007285118103027,-0.3463172912597656
2501017613.0,-0.6256275773048401,-0.409698873758316,9.784377098083496,-3.3515841960906982,-3.131173849105835,-0.4646806120872497
2501025946.0,-0.4081625044345855,-0.3417507708072662,9.939842224121094,-3.0692899227142334,-3.148745059967041,-0.4153476357460022
2501034279.0,-0.3714456260204315,-0.1067438945174217,9.94129753112793,-3.1697230339050293,-2.620195150375366,-0.348801851272583
2501042612.0,-0.6605081558227539,-0.1377780884504318,9.71953296661377,-3.2538399696350098,-2.1381609439849854,-0.3834322690963745
2501050945.0,-0.8609033226966858,-0.422404021024704,9.732800483703612,-3.4462547302246094,-2.6807219982147217,-0.4007219076156616
2501059278.0,-0.6855930685997009,-0.4700866043567657,9.927715301513672,-3.2129344940185547,-3.217416763305664,-0.3238279819488525
2501067611.0,-0.4250350892543793,-0.1367435157299041,10.007966995239258,-2.971622467041016,-2.920368432998657,-0.4105065166950226
2501075944.0,-0.4886626005172729,0.0626012906432151,9.80053424835205,-3.0916762351989746,-2.536923408508301,-0.4371196925640106
2501084277.0,-0.6725146174430847,-0.1408113241195678,9.63884449005127,-3.3939757347106934,-2.688636779785156,-0.3633251190185547
2501092610.0,-0.5878028869628906,-0.4484569132328033,9.783466339111328,-3.436879873275757,-3.097644805908203,-0.307998389005661
2501100943.0,-0.3798538446426391,-0.3399459421634674,10.000947952270508,-3.189728021621704,-3.0296647548675537,-0.3083826005458832
2501109276.0,-0.4036921858787536,-0.0786635726690292,9.959760665893556,-3.133119821548462,-2.324120044708252,-0.4059983789920807
2501117609.0,-0.7230878472328186,-0.0189884081482887,9.692252159118652,-3.152766466140747,-2.277425527572632,-0.4180883467197418
2501125942.0,-0.8313910365104675,-0.2342639714479446,9.678483963012695,-3.367747068405152,-2.8655800819396973,-0.385455846786499
2501134275.0,-0.6185640692710876,-0.3082711696624756,9.928909301757812,-3.267262458801269,-3.1763060092926025,-0.2403255999088287
2501142608.0,-0.4324438571929931,-0.1479312777519226,9.979863166809082,-3.1598105430603027,-2.794116258621216,-0.4153732657432556
2501150941.0,-0.5355508923530579,-0.0861080437898635,9.743250846862791,-3.2332208156585693,-2.4507827758789062,-0.4629644751548767
2501159274.0,-0.6680461764335632,-0.2824021279811859,9.683355331420898,-3.381553173065185,-2.863044261932373,-0.4214694797992706
2501167607.0,-0.4764129221439361,-0.3574163913726806,9.878754615783691,-3.2655460834503174,-3.168006896972656,-0.4100198745727539
2501175940.0,-0.2936587929725647,-0.1219163015484809,9.99308967590332,-3.2071971893310547,-2.883228302001953,-0.3189100623130798
2501184273.0,-0.4328525364398956,-0.028290007263422,9.83712673187256,-3.227611303329468,-2.404062271118164,-0.3440888226032257
2501192606.0,-0.7731503844261169,-0.2347908020019531,9.680853843688965,-3.4080379009246826,-2.3837759494781494,-0.4100711047649383
2501200939.0,-0.7670926451683044,-0.4904471039772033,9.82290267944336,-3.3644683361053467,-3.021314144134521,-0.4332007765769958
2501209272.0,-0.4944023191928863,-0.2889256775379181,10.024664878845217,-3.1373469829559326,-3.2023046016693115,-0.4923184514045715
2501217605.0,-0.4360370337963104,0.0426901578903198,9.91957950592041,-3.062758207321167,-2.668221950531006,-0.5200842022895813
2501225938.0,-0.5850410461425781,-0.0052319271489977,9.660916328430176,-3.3404674530029297,-2.416177988052368,-0.4232880175113678
2501234271.0,-0.6301541328430176,-0.3602880239486694,9.677077293395996,-3.5265042781829834,-2.9904491901397705,-0.3832530081272125
2501242604.0,-0.4106221497058868,-0.466275542974472,9.888238906860352,-3.3443868160247803,-3.2525339126586914,-0.3982885777950287
2501250937.0,-0.3151887655258178,-0.2069702595472335,10.001407623291016,-3.0966711044311523,-2.719860315322876,-0.4295635223388672
2501259270.0,-0.5331797003746033,-0.0350506193935871,9.814899444580078,-3.132044553756714,-2.264311075210572,-0.3269272744655609
2501267603.0,-0.7909355759620667,-0.2260634899139404,9.706890106201172,-3.271052837371826,-2.444763422012329,-0.3517218232154846
2501275936.0,-0.727049708366394,-0.3612177670001983,9.823969841003418,-3.389826536178589,-3.010581970214844,-0.3604819476604461
2501284269.0,-0.4999912083148956,-0.2615507543087005,9.969931602478027,-3.251663446426392,-3.006227493286133,-0.3372498154640198
2501292602.0,-0.5206895470619202,-0.132047638297081,9.811712265014648,-3.258988857269287,-2.5762412548065186,-0.3715729117393493
2501300935.0,-0.6447024941444397,-0.2402456998825073,9.70631504058838,-3.3295817375183105,-2.721935272216797,-0.3541040122509002
2501309268.0,-0.5737631916999817,-0.4211767315864563,9.822035789489746,-3.309192657470703,-3.1016407012939453,-0.306948184967041
2501317601.0,-0.3618378937244415,-0.2886954247951507,9.959296226501465,-3.142495632171631,-3.038271188735962,-0.3456256985664367
2501325934.0,-0.4057886600494385,-0.0628940761089325,9.943585395812988,-3.18947172164917,-2.4255270957946777,-0.3060773313045501
2501334267.0,-0.7058606147766113,-0.2105562835931778,9.711999893188477,-3.3365488052368164,-2.324376583099365,-0.3765932619571686
2501342600.0,-0.8099071383476257,-0.5144037008285522,9.733156204223633,-3.40066146850586,-2.7679128646850586,-0.4623753726482391
2501350933.0,-0.5772150158882141,-0.4252502620220184,9.93256378173828,-3.2106034755706787,-3.224128007888794,-0.3913214802742004
2501359266.0,-0.4169608950614929,-0.1159582734107971,9.948376655578612,-3.0284347534179688,-2.7764933109283447,-0.4095076024532318
2501367599.0,-0.5602078437805176,0.0014048344455659,9.766602516174316,-3.1932876110076904,-2.4866421222686768,-0.4733638167381286
2501375932.0,-0.7009124159812927,-0.2219705283641815,9.639504432678224,-3.4571921825408936,-2.753901958465576,-0.461222767829895
2501384265.0,-0.5392972230911255,-0.5215705037117004,9.889437675476074,-3.2294814586639404,-3.183247804641724,-0.3529001474380493
2501392598.0,-0.3351790010929107,-0.2930948138236999,9.996696472167969,-3.134785413742065,-2.8660919666290283,-0.4225964844226837
2501400931.0,-0.4809172749519348,-0.0374240092933177,9.864575386047363,-3.078331232070923,-2.364923477172852,-0.4619398415088653
2501409264.0,-0.7924709320068359,-0.1412914991378784,9.674467086791992,-3.330196142196656,-2.40329384803772,-0.4327140748500824
2501417597.0,-0.7472376227378845,-0.3149760365486145,9.741128921508787,-3.4052462577819824,-3.019803285598755,-0.4562792181968689
2501425930.0,-0.4845384955406189,-0.2747061848640442,9.925013542175291,-3.250869035720825,-3.1440577507019043,-0.4726723134517669
2501434263.0,-0.430264413356781,-0.1370882242918014,9.9270601272583,-3.1999990940093994,-2.645399808883667,-0.2742644250392914
2501442596.0,-0.5653147101402283,-0.1317829042673111,9.741652488708496,-3.2464375495910645,-2.59488844871521,-0.5125280022621155
2501450929.0,-0.6195088028907776,-0.3870681524276733,9.760580062866213,-3.330836772918701,-3.0048959255218506,-0.430203914642334
2501459262.0,-0.4294837415218353,-0.3323178589344024,9.908880233764648,-3.3132143020629883,-3.04487943649292,-0.4072535336017608
2501467595.0,-0.3278701603412628,-0.076877474784851,9.970022201538086,-3.1722075939178467,-2.635563611984253,-0.3122247159481048
2501475928.0,-0.6043821573257446,-0.0997572913765907,9.719491958618164,-3.1427769660949707,-2.3314971923828125,-0.4424218535423279
2501484261.0,-0.8281034231185913,-0.3659770786762237,9.689123153686523,-3.3463335037231445,-2.517021417617798,-0.3913983404636383
2501492594.0,-0.6513388752937317,-0.4200784862041473,9.865312576293944,-3.2459256649017334,-3.126614570617676,-0.3084850311279297
2501500927.0,-0.4508937001228332,-0.2015045583248138,10.003116607666016,-3.0233635902404785,-3.084376811981201,-0.3581510782241821
2501509260.0,-0.4235095381736755,0.036168597638607,9.842284202575684,-3.0330965518951416,-2.5851550102233887,-0.3205493092536926
2501517593.0,-0.6027624011039734,-0.114704355597496,9.647809028625488,-3.316185474395752,-2.6005492210388184,-0.4011573791503906
2501525926.0,-0.5863568186759949,-0.4539349675178528,9.784453392028809,-3.375610589981079,-3.084709644317627,-0.3432947695255279
2501534259.0,-0.3524006009101867,-0.344980776309967,9.94018268585205,-3.185425043106079,-2.982893228530884,-0.3751589059829712
2501542592.0,-0.4027444124221802,-0.0488921403884887,9.927762031555176,-3.065908432006836,-2.414231061935425,-0.3550260961055755
2501550925.0,-0.7133596539497375,-0.0298078171908855,9.749822616577148,-3.153944730758667,-2.397633075714112,-0.5036398768424988
2501559258.0,-0.8045701384544373,-0.2396053224802017,9.738950729370115,-3.3122153282165527,-2.897367238998413,-0.3747234940528869
2501567591.0,-0.6109150052070618,-0.3207353353500366,9.921967506408691,-3.352787971496582,-3.1492574214935303,-0.3987239897251129
2501575924.0,-0.4430672824382782,-0.1576966941356659,9.94232177734375,-3.271847486495972,-2.787148952484131,-0.4010805189609527
2501584257.0,-0.531315803527832,-0.1003071591258049,9.775101661682127,-3.2106802463531494,-2.604954957962036,-0.4379650354385376
2501592590.0,-0.6274013519287109,-0.3030369877815246,9.684418678283691,-3.408012628555298,-2.82928466796875,-0.4428829848766327
2501600923.0,-0.492983341217041,-0.3631758987903595,9.86111068725586,-3.3373172283172607,-3.059633255004883,-0.4636304080486297
2501609256.0,-0.3078297972679138,-0.1570265591144561,9.976362228393556,-3.1310458183288574,-2.8519020080566406,-0.3839189708232879
2501617589.0,-0.4886670410633087,-0.0351689532399177,9.829039573669434,-3.1906752586364746,-2.379242181777954,-0.4178321659564972
2501625922.0,-0.8030807971954346,-0.2874849140644073,9.683219909667969,-3.3997387886047363,-2.3522703647613525,-0.3142482340335846
2501634255.0,-0.7629531025886536,-0.5206663012504578,9.864361763000488,-3.428760051727295,-3.0131945610046387,-0.4033345580101013
2501642588.0,-0.5152281522750854,-0.3255180716514587,10.012779235839844,-3.1096067428588867,-3.142930746078491,-0.4583027064800262
2501650921.0,-0.4705803692340851,0.0150114893913269,9.912878036499023,-3.124488353729248,-2.7115612030029297,-0.3710606098175049
2501659254.0,-0.6273702383041382,-0.0343925170600414,9.672965049743652,-3.312163591384888,-2.5060582160949707,-0.4578672349452972
2501667587.0,-0.6293599605560303,-0.37643763422966,9.72162914276123,-3.4923603534698486,-2.945342540740967,-0.4045640230178833
2501675920.0,-0.4151411652565002,-0.466461032629013,9.93016529083252,-3.262036800384521,-3.0646533966064453,-0.4152964055538177
2501684253.0,-0.3369432985782623,-0.1877731382846832,9.979527473449709,-3.0516669750213623,-2.580980062484741,-0.3435253202915191
2501692586.0,-0.580363929271698,-0.0587775073945522,9.781798362731934,-3.134298801422119,-2.2518882751464844,-0.3379926681518554
2501700919.0,-0.8128854036331177,-0.231933981180191,9.713699340820312,-3.4271464347839355,-2.597783088684082,-0.4505928754806518
2501709252.0,-0.6952229142189026,-0.3582384884357452,9.849677085876465,-3.345001459121704,-3.1009745597839355,-0.3727767765522003
2501717585.0,-0.4425037503242492,-0.2062227725982666,9.983428955078123,-3.245592832565308,-3.021544933319092,-0.3765932917594909
2501725918.0,-0.5072705745697021,-0.0926687121391296,9.829075813293455,-3.174077272415161,-2.604006767272949,-0.3674233555793762
2501734251.0,-0.652740478515625,-0.2523278594017029,9.658405303955078,-3.3244075775146484,-2.7661712169647217,-0.451771080493927
2501742584.0,-0.5778487920761108,-0.4278683960437774,9.813809394836426,-3.388136148452759,-3.228687286376953,-0.3723413348197937
2501750917.0,-0.3235368132591247,-0.2573117613792419,9.954008102416992,-3.1709017753601074,-3.023542642593384,-0.4095076322555542
2501759250.0,-0.3738221824169159,-0.0424866415560245,9.880702018737791,-3.1927502155303955,-2.340897798538208,-0.3392989635467529
2501767583.0,-0.6968299746513367,-0.2047323435544967,9.728350639343262,-3.2156238555908203,-2.3419222831726074,-0.386044979095459
2501775916.0,-0.8107407093048096,-0.4866108000278473,9.75181007385254,-3.298844814300537,-2.8381471633911133,-0.4134521782398224
2501784249.0,-0.5644027590751648,-0.4295263886451721,9.93735408782959,-3.110503435134888,-3.1439812183380127,-0.4152708053588867
2501792582.0,-0.3978159427642822,-0.0808493643999099,10.013864517211914,-3.030381679534912,-2.826620578765869,-0.438195526599884
2501800915.0,-0.5418429374694824,0.0322847664356231,9.756402969360352,-3.1197495460510254,-2.4539332389831543,-0.3647595345973968
2501809248.0,-0.6986812949180603,-0.2570869624614715,9.661981582641602,-3.421255350112915,-2.886711835861206,-0.442601203918457
2501817581.0,-0.5084208250045776,-0.4744273424148559,9.863492012023926,-3.47232985496521,-3.227355480194092,-0.3673721849918365
2501825914.0,-0.3215696215629577,-0.2929345071315765,9.97012710571289,-3.1720027923583984,-2.8377628326416016,-0.411018818616867
2501834247.0,-0.4549553692340851,-0.0847871676087379,9.89601993560791,-3.1215169429779053,-2.2039380073547363,-0.4137850701808929
2501842580.0,-0.7605354189872742,-0.1107273176312446,9.744175910949709,-3.2527129650115967,-2.375783920288086,-0.4545629620552063
2501850913.0,-0.7731478214263916,-0.317442238330841,9.771784782409668,-3.354196786880493,-2.9705469608306885,-0.3761322796344757
2501859246.0,-0.5075914263725281,-0.2744390666484833,9.948784828186035,-3.3377530574798584,-3.0787158012390137,-0.35822793841362
2501867579.0,-0.4139911532402038,-0.1494375467300415,9.936442375183104,-3.0980029106140137,-2.7457046508789062,-0.447365403175354
2501875912.0,-0.5762338042259216,-0.1448965370655059,9.745304107666016,-3.253584146499634,-2.5061607360839844,-0.4229038059711456
2501884245.0,-0.6612160801887512,-0.3785537481307983,9.73493766784668,-3.3517894744873047,-2.8247764110565186,-0.4446503221988678
2501892578.0,-0.4369338452816009,-0.383662462234497,9.91098976135254,-3.212627410888672,-3.09047269821167,-0.3448829054832458
2501900911.0,-0.3151494860649109,-0.0261095892637968,9.974623680114746,-3.130123376846313,-2.685204267501831,-0.3651949167251587
2501909244.0,-0.635509729385376,-0.0811139494180679,9.78323745727539,-3.2143940925598145,-2.288900852203369,-0.3198321163654327
2501917577.0,-0.8199036717414856,-0.3420808017253876,9.673306465148926,-3.4725987911224365,-2.523335218429565,-0.4365946650505066
2501925910.0,-0.7192768454551697,-0.4351629316806793,9.878701210021973,-3.2319529056549072,-3.084773540496826,-0.4259903728961944
2501934243.0,-0.4548210203647613,-0.2623315751552582,10.013172149658203,-3.1639091968536377,-3.0243113040924072,-0.4464433491230011
2501942576.0,-0.4503358006477356,0.0558328256011009,9.844586372375488,-2.9306652545928955,-2.552906513214112,-0.4434720575809479
2501950909.0,-0.6124392151832581,-0.0402250103652477,9.61585807800293,-3.3937199115753174,-2.572348117828369,-0.433584988117218
2501959242.0,-0.6489787697792053,-0.4085256457328796,9.712027549743652,-3.317568778991699,-2.9771299362182617,-0.3863011300563812
2501967575.0,-0.3886597454547882,-0.4110064208507538,9.957908630371094,-3.344642639160156,-3.021135091781616,-0.3995436728000641
2501975908.0,-0.350265771150589,-0.1317044794559478,10.0023775100708,-3.107787847518921,-2.4185853004455566,-0.3756711483001709
2501984241.0,-0.6693382263183594,-0.0651127398014068,9.750079154968262,-3.207708835601806,-2.2255055904388428,-0.3964955508708954
2501992574.0,-0.8302674889564514,-0.2203459292650222,9.707878112792969,-3.4034018516540527,-2.7226779460906982,-0.4158086478710174
2502000907.0,-0.6326327919960022,-0.3168582022190094,9.848100662231444,-3.351405143737793,-3.243748664855957,-0.3181160092353821
2502009240.0,-0.4122110903263092,-0.2143518328666687,9.964932441711426,-3.317030668258667,-2.9482622146606445,-0.4077402055263519
2502017573.0,-0.4596061408519745,-0.0898699462413787,9.799050331115724,-3.1943893432617188,-2.4893064498901367,-0.4476984143257141
2502025906.0,-0.6548174619674683,-0.3015966117382049,9.682509422302246,-3.422407865524292,-2.729107141494751,-0.4750032126903534
2502034239.0,-0.5609539151191711,-0.4619987308979034,9.856775283813477,-3.322537660598755,-3.0253355503082275,-0.4828923940658569
2502042572.0,-0.3208173215389251,-0.190920278429985,9.988360404968262,-3.1319167613983154,-2.8695757389068604,-0.4083805978298187
2502050905.0,-0.461176186800003,-0.069002017378807,9.918301582336426,-3.112705707550049,-2.264823198318481,-0.3699335753917694
2502059238.0,-0.7583965063095093,-0.1868520230054855,9.68783950805664,-3.41994857788086,-2.276247262954712,-0.3367887735366821
2502067571.0,-0.8017215132713318,-0.5443565845489502,9.75426197052002,-3.343285322189331,-2.927053928375244,-0.3225472569465637
2502075904.0,-0.5066395401954651,-0.4124578535556793,9.980863571166992,-3.190804004669189,-3.176664590835572,-0.400081604719162
2502084237.0,-0.3526414930820465,-0.0830713137984275,9.978203773498535,-3.05458664894104,-2.689071655273437,-0.4017976224422455
2502092570.0,-0.5333591103553772,0.0393146947026252,9.714559555053713,-3.123975992202759,-2.437514543533325,-0.358458399772644
2502100903.0,-0.675197958946228,-0.280476301908493,9.648980140686035,-3.5148494243621826,-2.806923151016236,-0.4389383196830749
2502109236.0,-0.5043785572052002,-0.5070421099662781,9.88176727294922,-3.3151865005493164,-3.137039422988892,-0.4093795418739319
2502117569.0,-0.3335658013820648,-0.2748810648918152,9.997438430786133,-3.207581281661988,-2.6883294582366943,-0.4445734322071075
2502125902.0,-0.5454026460647583,-0.0731181502342224,9.833515167236328,-3.0181379318237305,-2.304115533828736,-0.419138491153717
2502134235.0,-0.8070589900016785,-0.1619532257318496,9.674665451049805,-3.33280873298645,-2.4024229049682617,-0.3572801351547241
2502142568.0,-0.7553135752677917,-0.3395009934902191,9.79909610748291,-3.413724422454834,-3.027846097946167,-0.3834835290908813
2502150901.0,-0.4441158175468445,-0.2447568327188491,9.948344230651855,-3.2481794357299805,-3.179379940032959,-0.4575087130069732
2502159234.0,-0.4243682026863098,-0.1275616884231567,9.877028465270996,-3.209092378616333,-2.817092180252075,-0.4082781374454498
2502167567.0,-0.5707134008407593,-0.1727341711521148,9.71848964691162,-3.2938497066497803,-2.6221933364868164,-0.4843268096446991
2502175900.0,-0.6289107799530029,-0.4141489267349243,9.749372482299805,-3.3705384731292725,-3.023721933364868,-0.4440355896949768
2502184233.0,-0.415392518043518,-0.3200186789035797,9.938342094421388,-3.147182941436768,-3.125641345977783,-0.3112257719039917
2502192566.0,-0.3761997818946838,-0.0585113354027271,9.930251121520996,-3.0571742057800293,-2.409543514251709,-0.4862734079360962
2502200899.0,-0.6732730865478516,-0.0515941902995109,9.714607238769531,-3.1874351501464844,-2.3070998191833496,-0.4113902151584625
2502209232.0,-0.8795704245567322,-0.388571560382843,9.67187213897705,-3.443539619445801,-2.577061176300049,-0.3967261016368866
2502217565.0,-0.6791760325431824,-0.4789668321609497,9.877020835876465,-3.2597830295562744,-3.152843713760376,-0.4395275115966797
2502225898.0,-0.392535924911499,-0.2100578993558883,10.02656364440918,-3.141547679901123,-3.099668502807617,-0.4066900014877319
2502234231.0,-0.4211888611316681,0.0692664608359336,9.823527336120604,-3.056405782699585,-2.602444648742676,-0.4548703730106354
2502242564.0,-0.6135972142219543,-0.1220609694719314,9.659539222717283,-3.3061702251434326,-2.603085517883301,-0.4963142573833465
2502250897.0,-0.5852503180503845,-0.4510626196861267,9.77810001373291,-3.488543748855591,-2.988349199295044,-0.4723393321037292
2502259230.0,-0.3597688674926758,-0.3661525845527649,10.007545471191406,-3.20560884475708,-3.0992586612701416,-0.4606848359107971
2502267563.0,-0.4034959971904754,-0.131563201546669,9.947839736938477,-2.9583542346954346,-2.517507791519165,-0.4303319454193115
2502275896.0,-0.7239512205123901,-0.0577224716544151,9.734859466552734,-3.1365015506744385,-2.235085248947144,-0.3464709222316742
2502284229.0,-0.8346524238586426,-0.2813547849655151,9.699339866638184,-3.297154188156128,-2.7823846340179443,-0.4369660913944244
2502292562.0,-0.6096264123916626,-0.3457091748714447,9.92050075531006,-3.3770194053649902,-3.1858601570129395,-0.4602237939834595
2502300895.0,-0.3863435983657837,-0.1415597647428512,9.943182945251465,-3.161142349243164,-2.8193204402923584,-0.5098385810852051
2502309228.0,-0.5007894039154053,-0.0817652195692062,9.78593921661377,-3.289546251296997,-2.499859571456909,-0.3991081714630127
2502317561.0,-0.6391918063163757,-0.3115992248058319,9.700093269348145,-3.3697192668914795,-2.8851234912872314,-0.4623497724533081
2502325894.0,-0.496969074010849,-0.4492384791374206,9.88381290435791,-3.3494327068328857,-3.1976683139801025,-0.3615321218967438
2502334227.0,-0.320982426404953,-0.1836235970258712,10.00671672821045,-3.079228162765503,-2.8452165126800537,-0.3406821489334106
2502342560.0,-0.5104228258132935,-0.0511871352791786,9.847496032714844,-3.0841970443725586,-2.344586133956909,-0.4205729067325592
2502350893.0,-0.8252266645431519,-0.2022370398044586,9.663958549499512,-3.2971279621124268,-2.3381054401397705,-0.365374207496643
2502359226.0,-0.809255838394165,-0.499068021774292,9.783453941345217,-3.564131498336792,-3.0810725688934326,-0.3447804152965545
2502367559.0,-0.483624517917633,-0.3472218513488769,10.028728485107422,-3.188857078552246,-3.1494369506835938,-0.3980324268341064
2502375892.0,-0.3817664384841919,-0.0121498005464673,9.942560195922852,-3.100282907485962,-2.738046407699585,-0.3749027252197265
2502384225.0,-0.594317615032196,0.0018781218677759,9.70904541015625,-3.322153329849243,-2.4353115558624268,-0.3603282570838928
2502392558.0,-0.684343159198761,-0.2942051291465759,9.675524711608888,-3.4964585304260254,-2.84275770187378,-0.3501850664615631
2502400891.0,-0.4970328509807586,-0.4628891348838806,9.903093338012695,-3.402018785476685,-3.0981316566467285,-0.4093795418739319
2502409224.0,-0.320248395204544,-0.1974037736654281,10.000967979431152,-3.1205697059631348,-2.813070774078369,-0.5186755657196045
2502417557.0,-0.5602080821990967,-0.073063351213932,9.81286334991455,-3.1500256061553955,-2.3161544799804688,-0.3884014189243316
2502425890.0,-0.8115724325180054,-0.1577309370040893,9.65278434753418,-3.348766565322876,-2.59025239944458,-0.3709325492382049
2502434223.0,-0.7297406792640686,-0.3814353346824646,9.825851440429688,-3.441234350204468,-3.036247491836548,-0.3887600600719452
2502442556.0,-0.4443216919898987,-0.256105363368988,9.979703903198242,-3.1809422969818115,-3.073695182800293,-0.3158106803894043
2502450889.0,-0.4287048578262329,-0.1028010919690132,9.896652221679688,-3.180173397064209,-2.5771634578704834,-0.3499800860881805
2502459222.0,-0.6565254926681519,-0.1967630237340927,9.673396110534668,-3.36633849143982,-2.5549049377441406,-0.3667830526828766
2502467555.0,-0.6240744590759277,-0.4189438223838806,9.7857666015625,-3.417848587036133,-3.1295087337493896,-0.3450877964496612
2502475888.0,-0.3723739385604858,-0.3709253966808319,9.935187339782717,-3.300279378890991,-3.112706184387207,-0.3908860683441162
2502484221.0,-0.307739108800888,-0.0731462761759758,9.946988105773926,-2.992933511734009,-2.487616062164306,-0.4363768994808197
2502492554.0,-0.6461138725280762,-0.1490614712238311,9.764120101928713,-3.2775075435638428,-2.242769241333008,-0.4499780535697937
2502500887.0,-0.8361275792121887,-0.3789116740226745,9.690957069396973,-3.396716833114624,-2.696730852127075,-0.3320245444774627
2502509220.0,-0.6534542441368103,-0.5033808946609497,9.90675163269043,-3.2393686771392822,-3.1751534938812256,-0.4826618731021881
2502517553.0,-0.3824555277824402,-0.1555351167917251,9.998635292053224,-2.951438665390014,-2.9759514331817627,-0.411582350730896
2502525886.0,-0.474959522485733,0.023678159341216,9.813883781433104,-3.087014675140381,-2.408442497253418,-0.445700466632843
2502534219.0,-0.6724661588668823,-0.1353331953287124,9.62864112854004,-3.2909555435180664,-2.639329195022583,-0.3548468351364136
2502542552.0,-0.5797964930534363,-0.5010435581207275,9.795494079589844,-3.3290696144104004,-3.13201904296875,-0.4450345635414123
2502550885.0,-0.3462556004524231,-0.347805380821228,10.020021438598633,-3.150538444519043,-2.9967756271362305,-0.4079451262950897
2502559218.0,-0.4327567815780639,-0.0702251493930816,9.916024208068848,-3.054023504257202,-2.3531668186187744,-0.4445734322071075
2502567551.0,-0.7712821364402771,-0.0688462257385253,9.720656394958496,-3.21488094329834,-2.301835775375366,-0.4452394247055053
2502575884.0,-0.8489547371864319,-0.2660632133483886,9.719456672668455,-3.384319543838501,-2.979025363922119,-0.3795901834964752
2502584217.0,-0.5813381671905518,-0.3405927717685699,9.90138339996338,-3.4153382778167725,-3.226433277130127,-0.3166047930717468
2502592550.0,-0.3416144251823425,-0.1450546830892563,9.96172332763672,-3.12023663520813,-2.878079414367676,-0.3882221579551697
2502600883.0,-0.478114366531372,-0.1080995574593544,9.77706527709961,-3.148155689239502,-2.5406625270843506,-0.4296146929264068
2502609216.0,-0.6511896848678589,-0.2810651957988739,9.67752456665039,-3.293363094329834,-2.7272884845733643,-0.4342253506183624
2502617549.0,-0.5401999950408936,-0.4007660746574402,9.866844177246094,-3.220388412475586,-3.16009259223938,-0.450080543756485
2502625882.0,-0.3314562737941742,-0.1691578775644302,9.97238826751709,-3.11898136138916,-2.91030216217041,-0.4424218535423279
2502634215.0,-0.5163806676864624,-0.0643311291933059,9.840215682983398,-3.161782503128052,-2.244690656661988,-0.3573313951492309
2502642548.0,-0.823057234287262,-0.2058262526988983,9.65344524383545,-3.310960054397583,-2.2703306674957275,-0.3340736627578735
2502650881.0,-0.7723570466041565,-0.5089871883392334,9.778564453125,-3.363213300704956,-3.1388840675354004,-0.4129399061203003
2502659214.0,-0.4673968851566314,-0.3309447467327118,10.01213836669922,-3.0918047428131104,-3.2499728202819824,-0.4355316758155823
2502667547.0,-0.3493659496307373,0.0383456014096736,9.975434303283691,-3.008174180984497,-2.743194818496704,-0.5177277326583862
2502675880.0,-0.5639082193374634,0.0235778540372848,9.691169738769531,-3.160015344619751,-2.4518582820892334,-0.4440611898899078
2502684213.0,-0.6727773547172546,-0.3238138854503631,9.671611785888672,-3.596789121627808,-2.870216131210327,-0.3885551691055298
2502692546.0,-0.4742134511470794,-0.4880326390266418,9.919065475463867,-3.431654691696167,-3.193647146224976,-0.4260031580924988
2502700879.0,-0.3363601863384247,-0.2268558740615844,10.0125150680542,-3.088884353637696,-2.6799020767211914,-0.3792571425437927
2502709212.0,-0.5573766827583313,-0.0079684210941195,9.82999038696289,-2.945265531539917,-2.2838294506073,-0.3913727402687073
2502717545.0,-0.8624584078788757,-0.1053159162402153,9.66413116455078,-3.2536609172821045,-2.5294952392578125,-0.4096356630325317
2502725878.0,-0.7315903306007385,-0.355407565832138,9.783089637756348,-3.382014274597168,-3.095108985900879,-0.4880152642726898
2502734211.0,-0.4483577311038971,-0.2696456611156463,9.993700981140137,-3.2332465648651123,-3.0825066566467285,-0.5262572765350342
2502742544.0,-0.3977710902690887,-0.1056200787425041,9.946358680725098,-3.1284842491149902,-2.533619403839112,-0.3349189162254333
2502750877.0,-0.6397928595542908,-0.1726550161838531,9.698722839355469,-3.336420774459839,-2.617096185684204,-0.4100967347621918
2502759210.0,-0.5972630977630615,-0.3897742331027984,9.757800102233888,-3.344130516052246,-3.0629119873046875,-0.4361464381217956
2502767543.0,-0.3991839289665222,-0.3256607353687286,9.93629550933838,-3.235961675643921,-3.1345038414001465,-0.2938337028026581
2502775876.0,-0.3447644114494324,-0.0609593465924263,9.951574325561523,-3.103023290634156,-2.472810745239258,-0.3887600302696228
2502784209.0,-0.6615517139434814,-0.0978685840964317,9.737226486206056,-3.290237665176392,-2.209522008895874,-0.3398880362510681
2502792542.0,-0.8583683967590332,-0.4279696643352508,9.70875644683838,-3.466925382614136,-2.756386041641236,-0.3863523006439209
2502800875.0,-0.6636143326759338,-0.482666552066803,9.90465259552002,-3.336395263671875,-3.1637041568756104,-0.460761696100235
2502809208.0,-0.3769914805889129,-0.1844351440668106,10.00316047668457,-3.0681371688842773,-2.969804048538208,-0.4377857148647308
2502817541.0,-0.4826575517654419,0.0466628596186637,9.821843147277832,-3.1364245414733887,-2.408954620361328,-0.3925765454769134
2502825874.0,-0.6663295030593872,-0.1377603858709335,9.615228652954102,-3.44971251487732,-2.600677490234375,-0.3669879734516144
2502834207.0,-0.589404821395874,-0.5053358674049377,9.776494026184082,-3.5783472061157227,-3.1281003952026367,-0.314120203256607
2502842540.0,-0.3390695750713348,-0.3761521875858307,9.99961757659912,-3.23462986946106,-3.0649867057800293,-0.4096869230270386
2502850873.0,-0.3697851300239563,-0.1418816298246383,9.974247932434082,-2.986607074737549,-2.323915243148804,-0.4952896237373352
2502859206.0,-0.7184008359909058,-0.0936086401343345,9.71910285949707,-3.202150583267212,-2.2787575721740723,-0.4028478562831878
2502867539.0,-0.8120235204696655,-0.2896736562252044,9.693760871887209,-3.434266805648804,-2.6928629875183105,-0.4297172427177429
2502875872.0,-0.5693882703781128,-0.3382205367088318,9.871753692626951,-3.3780696392059326,-3.1696465015411377,-0.4242357611656189
2502884205.0,-0.3807544708251953,-0.1465870440006256,9.963104248046877,-3.22064471244812,-2.983072280883789,-0.3571521043777466
2502892538.0,-0.5054222941398621,-0.1310673058032989,9.783347129821776,-3.26047420501709,-2.446582078933716,-0.4090721309185028
2502900871.0,-0.6446088552474976,-0.317731499671936,9.705605506896973,-3.330657720565796,-2.7999563217163086,-0.4049738645553589
2502909204.0,-0.5160946846008301,-0.4249040186405182,9.850785255432127,-3.209604501724243,-3.0646791458129883,-0.3821003437042236
2502917537.0,-0.3038056492805481,-0.1799240857362747,9.969476699829102,-3.0978238582611084,-2.8659896850585938,-0.4343790411949157
2502925870.0,-0.4824583828449249,-0.0248355679214,9.839412689208984,-3.1179566383361816,-2.28049898147583,-0.4498755931854248
2502934203.0,-0.8190668225288391,-0.2488893866539001,9.655033111572266,-3.383141279220581,-2.45721173286438,-0.3077166080474853
2502942536.0,-0.7767021059989929,-0.4826991856098175,9.834266662597656,-3.363290309906006,-3.027590036392212,-0.4333288371562958
2502950869.0,-0.4739552736282348,-0.3484610617160797,10.002671241760254,-3.104560852050781,-3.103766679763794,-0.392755925655365
2502959202.0,-0.3810969591140747,0.0073123406618833,9.950060844421388,-3.081840753555298,-2.6691696643829346,-0.475054383277893
2502967535.0,-0.5819908976554871,-0.004508439451456,9.709715843200684,-3.2498958110809326,-2.458492994308472,-0.4568426609039306
2502975868.0,-0.678792417049408,-0.3173379004001617,9.676018714904783,-3.372204065322876,-2.759408950805664,-0.4145023822784424
2502984201.0,-0.4739553034305572,-0.4902993142604828,9.881210327148438,-3.3296332359313965,-3.0640132427215576,-0.3308462798595428
2502992534.0,-0.3166950345039367,-0.2050381302833557,10.04050636291504,-3.110605478286743,-2.728184938430786,-0.371572881937027
2503000867.0,-0.5684249997138977,-0.0483267642557621,9.79129695892334,-2.99521279335022,-2.1496102809906006,-0.4870418012142181
2503009200.0,-0.829218864440918,-0.1621898561716079,9.658615112304688,-3.327455520629883,-2.533440113067627,-0.4476728141307831
2503017533.0,-0.735328197479248,-0.3839430510997772,9.81559944152832,-3.437059164047241,-3.149103879928589,-0.4512844383716583
2503025866.0,-0.4396137595176697,-0.2894470989704132,9.999730110168455,-3.2622673511505127,-3.106840372085572,-0.3346628248691559
2503034199.0,-0.4424492120742798,-0.1180375516414642,9.88465976715088,-3.068521499633789,-2.6123571395874023,-0.3577155768871307
2503042532.0,-0.6505572199821472,-0.196912869811058,9.657665252685549,-3.182504415512085,-2.527676820755005,-0.5080711245536804
2503050865.0,-0.6263012290000916,-0.4166717529296875,9.763253211975098,-3.339955568313598,-3.1108620166778564,-0.4187031090259552
2503059198.0,-0.3960610330104828,-0.2930076122283935,9.94846248626709,-3.197950601577759,-3.06403923034668,-0.3766189217567444
2503067531.0,-0.354098916053772,-0.046124767512083,9.92701816558838,-3.0792787075042725,-2.53543758392334,-0.4019257128238678
2503075864.0,-0.65803062915802,-0.1093197986483573,9.71309757232666,-3.2091176509857178,-2.161674737930298,-0.3699848055839538
2503084197.0,-0.8442217707633972,-0.4107468426227569,9.70031452178955,-3.2886245250701904,-2.727083683013916,-0.3207030892372131
2503092530.0,-0.6273813843727112,-0.4380654394626617,9.9299898147583,-3.231325149536133,-3.292722702026367,-0.4120433926582336
2503100863.0,-0.365874171257019,-0.0869902297854423,9.994288444519045,-3.028409719467163,-2.9102766513824463,-0.4048714339733124
2503109196.0,-0.4834322333335876,0.0951738581061363,9.799894332885742,-3.1740262508392334,-2.421095609664917,-0.3977250456809997
2503117529.0,-0.6808595061302185,-0.1080412715673446,9.629107475280762,-3.293414354324341,-2.689046621322632,-0.3676795363426208
2503125862.0,-0.5659772753715515,-0.4579645693302154,9.80144500732422,-3.4501988887786865,-3.2182624340057373,-0.4613763988018036
2503134195.0,-0.3626764714717865,-0.345433235168457,10.014657974243164,-3.2003324031829834,-2.936608076095581,-0.3687553405761719
2503142528.0,-0.4351106286048889,-0.0799379646778106,9.946941375732422,-3.1716439723968506,-2.392074584960937,-0.4273350536823272
2503150861.0,-0.7815214395523071,-0.0616416670382022,9.708539009094238,-3.2689523696899414,-2.250479459762573,-0.4456492364406585
2503159194.0,-0.7954847812652588,-0.2606389820575714,9.739462852478027,-3.4742507934570312,-2.804105520248413,-0.4083549678325653
2503167527.0,-0.5251917243003845,-0.3295617699623108,9.911060333251951,-3.326354503631592,-3.19838547706604,-0.4230319261550903
2503175860.0,-0.3688771724700928,-0.1873626112937927,9.96706485748291,-3.2805304527282715,-2.7971644401550293,-0.4023099839687347
2503184193.0,-0.5151423215866089,-0.1660087257623672,9.785558700561523,-3.311574697494507,-2.5503454208374023,-0.4178577959537506
2503192526.0,-0.6603601574897766,-0.3733724057674408,9.730655670166016,-3.406296491622925,-2.83553433418274,-0.3208054900169372
2503200859.0,-0.477482795715332,-0.4340788125991821,9.897416114807127,-3.289597988128662,-3.131455659866333,-0.3852509260177612
2503209192.0,-0.3046002089977264,-0.1573669016361236,9.994205474853516,-3.1136021614074707,-2.7167611122131348,-0.4743627905845642
2503217525.0,-0.5141527056694031,-0.1072734072804451,9.85227394104004,-3.250919818878174,-2.21354341506958,-0.4177809059619903
2503225858.0,-0.8079841732978821,-0.3041172921657562,9.669461250305176,-3.2403159141540527,-2.4994494915008545,-0.3766701221466064
2503234191.0,-0.7563250064849854,-0.5353632569313049,9.821127891540527,-3.2968978881835938,-3.070493698120117,-0.3859680891036987
2503242524.0,-0.4741425812244415,-0.3531259894371032,9.994413375854492,-3.142597913742065,-3.1022040843963623,-0.3447548151016235
2503250857.0,-0.4206506907939911,0.0153079601004719,9.935410499572754,-2.959916830062866,-2.61978530883789,-0.4169100522994995
2503259190.0,-0.5904926657676697,-0.0119347367435693,9.678887367248535,-3.249562740325928,-2.3986575603485107,-0.2840490937232971
2503267523.0,-0.6534362435340881,-0.3789392709732055,9.68722438812256,-3.5287065505981445,-2.866220235824585,-0.3355593085289001
2503275856.0,-0.4340599477291107,-0.4406339824199676,9.954154014587402,-3.345654964447021,-3.157518148422241,-0.2786828875541687
2503284189.0,-0.3275426626205444,-0.2130300849676132,9.98000431060791,-3.1337344646453857,-2.596809148788452,-0.4175504148006439
2503292522.0,-0.6048924922943115,-0.0390918850898742,9.808115005493164,-2.963425874710083,-2.1921815872192383,-0.4072535037994385
2503300855.0,-0.8382185101509094,-0.1757717132568359,9.699578285217283,-3.379094123840332,-2.627188205718994,-0.4455724060535431
2503309188.0,-0.7308696508407593,-0.3266429305076599,9.842970848083496,-3.462519884109497,-3.1281514167785645,-0.3980836868286133
2503317521.0,-0.4399249255657196,-0.2098112553358078,10.001513481140137,-3.179994583129883,-3.008507490158081,-0.3889137506484985
2503325854.0,-0.4722512066364288,-0.0924639999866485,9.830839157104492,-3.0920603275299072,-2.610922813415528,-0.4019001424312591
2503334187.0,-0.6557605266571045,-0.2683726251125335,9.685178756713867,-3.39233660697937,-2.7303621768951416,-0.3954966366291046
2503342520.0,-0.5505697131156921,-0.4403978586196899,9.810629844665527,-3.374714136123657,-3.143161535263061,-0.3774642050266266
2503350853.0,-0.3576091229915619,-0.2357583045959472,9.97483253479004,-3.201382637023926,-3.029203653335572,-0.3221887052059173
2503359186.0,-0.3934383988380432,-0.0250393841415643,9.901220321655272,-3.153303861618042,-2.472144842147827,-0.4023867547512054
2503367519.0,-0.736490786075592,-0.1360960602760315,9.67740535736084,-3.21001410484314,-2.398632049560547,-0.3340480625629425
2503375852.0,-0.8361542224884033,-0.5059533715248108,9.787959098815918,-3.4485599994659424,-3.0127079486846924,-0.430869847536087
2503384185.0,-0.5603124499320984,-0.4165830314159393,9.980436325073242,-3.158990859985352,-3.188011646270752,-0.427924245595932
2503392518.0,-0.4022218883037567,-0.0726463124155998,9.974380493164062,-2.903718948364258,-2.804412603378296,-0.3927302658557892
2503400851.0,-0.5366036891937256,0.0504795871675014,9.730609893798828,-3.176459312438965,-2.349529504776001,-0.4420376420021057
2503409184.0,-0.6893156170845032,-0.1800987869501114,9.642590522766112,-3.496330499649048,-2.8740837574005127,-0.482610672712326
2503417517.0,-0.5074588060379028,-0.4875591099262237,9.84242820739746,-3.4054512977600098,-3.1379361152648926,-0.3645802140235901
2503425850.0,-0.3266043365001678,-0.2802153527736664,9.996173858642578,-3.130200386047364,-2.827235698699951,-0.444291740655899
2503434183.0,-0.4658344686031341,-0.0918615087866783,9.898279190063477,-3.018150568008423,-2.2811262607574463,-0.3513247966766357
2503442516.0,-0.7872750163078308,-0.1466647535562515,9.70810604095459,-3.317901372909546,-2.382853746414185,-0.3112257421016693
2503450849.0,-0.7587279081344604,-0.2911675572395324,9.750932693481444,-3.45265793800354,-2.966884136199951,-0.4389127492904663
2503459182.0,-0.4697636663913727,-0.2576028406620025,9.94149684906006,-3.35086727142334,-3.0834801197052,-0.4396811425685882
2503467515.0,-0.4404617249965668,-0.0972208529710769,9.9141263961792,-3.099949598312378,-2.587588310241699,-0.3780533373355865
2503475848.0,-0.6172909736633301,-0.1273864954710006,9.731307983398438,-3.32133412361145,-2.512334108352661,-0.4637585282325744
2503484181.0,-0.6633918285369873,-0.4041427373886108,9.721933364868164,-3.3587565422058105,-3.0502586364746094,-0.3443450033664703
2503492514.0,-0.3872804939746856,-0.3691600561141968,9.913304328918455,-3.23227334022522,-3.0590953826904297,-0.3264662325382232
2503500847.0,-0.2866762280464172,-0.0360115207731723,9.94447422027588,-3.126870393753052,-2.701341152191162,-0.3732890188694
2503509180.0,-0.6202340722084045,-0.0907684564590454,9.777473449707031,-3.241750240325928,-2.338233709335327,-0.4391688406467438
2503517513.0,-0.819486677646637,-0.3695399463176727,9.65365505218506,-3.377890348434448,-2.527164459228516,-0.3851484656333923
2503525846.0,-0.6744853854179382,-0.4124534726142883,9.861550331115724,-3.359934568405152,-3.0732600688934326,-0.3059236109256744
2503534179.0,-0.4880854189395904,-0.3230521082878113,10.020862579345703,-3.1327109336853027,-2.9690871238708496,-0.4906279146671295
2503542512.0,-0.4685529470443725,0.0816075056791305,9.844910621643066,-3.128458261489868,-2.5676088333129883,-0.4121457934379577
2503550845.0,-0.6427587270736694,-0.1088891997933387,9.6439208984375,-3.436009168624878,-2.6312096118927,-0.572772741317749
2503559178.0,-0.6030559539794922,-0.4180389940738678,9.74084186553955,-3.4688720703125,-3.020879030227661,-0.4128630757331848
2503567511.0,-0.3559566438198089,-0.4252910912036896,9.96496295928955,-3.3013036251068115,-2.981176853179932,-0.5456472635269165
2503575844.0,-0.323616087436676,-0.0951922908425331,9.954838752746582,-3.056610107421875,-2.462872266769409,-0.3226752579212188
2503584177.0,-0.7442841529846191,-0.1377028077840805,9.708609580993652,-3.0914201736450195,-2.2711758613586426,-0.3771311640739441
2503592510.0,-0.7936923503875732,-0.2633978128433227,9.695150375366213,-3.2935423851013184,-2.7023403644561768,-0.476668119430542
2503600843.0,-0.6247887015342712,-0.3396118283271789,9.869255065917969,-3.285294771194458,-3.254429817199707,-0.4422938525676727
2503609176.0,-0.4196242988109588,-0.1678226888179779,9.980680465698242,-3.154841661453247,-2.868628025054932,-0.4294354915618896
2503617509.0,-0.5383217334747314,-0.1168012917041778,9.78344440460205,-3.2681329250335693,-2.586205244064331,-0.5163701772689819
2503625842.0,-0.6789630651473999,-0.3598723113536834,9.70157241821289,-3.431526660919189,-2.7847671508789062,-0.431894451379776
2503634175.0,-0.4930804967880249,-0.4061431586742401,9.845802307128906,-3.3399810791015625,-3.0974910259246826,-0.3927046656608581
2503642508.0,-0.2773880362510681,-0.1886007487773895,9.982717514038086,-3.07684588432312,-2.9183452129364014,-0.3806915879249573
2503650841.0,-0.4650875926017761,-0.0393766649067401,9.8330659866333,-3.1734113693237305,-2.2257871627807617,-0.4214950203895569
2503659174.0,-0.8203358054161072,-0.2633486986160278,9.63974952697754,-3.376762866973877,-2.39740252494812,-0.5240288376808167
2503667507.0,-0.7799182534217834,-0.5138127207756042,9.79744815826416,-3.3890326023101807,-3.0080718994140625,-0.366783082485199
2503675840.0,-0.4822057485580444,-0.3387917876243591,10.027216911315918,-3.129688262939453,-3.188165664672852,-0.4999258816242218
2503684173.0,-0.4340048134326935,-0.0140451928600668,9.927260398864746,-2.979050874710083,-2.7571802139282227,-0.3762346804141998
2503692506.0,-0.5998268127441406,-0.0163297168910503,9.716086387634276,-3.343233823776245,-2.4495275020599365,-0.4465457499027252
2503700839.0,-0.6767169833183289,-0.3250854015350342,9.67717456817627,-3.408858060836792,-2.939349174499512,-0.3790010511875152
2503709172.0,-0.416239321231842,-0.42927086353302,9.906643867492676,-3.2360386848449707,-3.075129747390747,-0.3594573736190796
2503717505.0,-0.3512843549251556,-0.1822671294212341,10.007763862609863,-3.011068344116211,-2.552266359329224,-0.2900940179824829
2503725838.0,-0.5377383232116699,-0.0559933744370937,9.816971778869627,-3.052589178085327,-2.2501208782196045,-0.3719058632850647
2503734171.0,-0.7993001341819763,-0.2146049290895462,9.687376022338867,-3.341236114501953,-2.663893222808838,-0.4431391060352325
2503742504.0,-0.6850829720497131,-0.3340392410755157,9.839466094970703,-3.481755495071411,-3.0998222827911377,-0.447160542011261
2503750837.0,-0.4479358196258545,-0.2248630374670028,9.95371913909912,-3.245515823364258,-2.884047508239746,-0.3790522515773773
2503759170.0,-0.4792609512805938,-0.0905423313379287,9.865859985351562,-3.086860418319702,-2.573730707168579,-0.4586612284183502
2503767503.0,-0.6467317342758179,-0.2227590978145599,9.672950744628906,-3.25724720954895,-2.620631217956543,-0.491319477558136
2503775836.0,-0.5866045355796814,-0.4333515465259552,9.781900405883787,-3.400405168533325,-2.9632728099823,-0.388401448726654
2503784169.0,-0.3503744900226593,-0.2841300666332245,9.96035861968994,-3.23094129562378,-3.008533239364624,-0.4069717824459076
2503792502.0,-0.3797450065612793,-0.0577914975583553,9.920323371887209,-3.1186740398406982,-2.541303396224976,-0.3508253693580627
2503800835.0,-0.7200148105621338,-0.1189141049981117,9.721614837646484,-3.1577610969543457,-2.253732204437256,-0.4382979273796081
2503809168.0,-0.8322414755821228,-0.4185007214546203,9.702991485595703,-3.3792221546173096,-2.797906875610352,-0.4102760255336761
2503817501.0,-0.5778221487998962,-0.444413959980011,9.91257095336914,-3.207069158554077,-3.1555840969085693,-0.3389147520065307
2503825834.0,-0.3823846876621246,-0.1270739138126373,10.031518936157228,-3.028101921081543,-2.7750589847564697,-0.3631201684474945
2503834167.0,-0.5068715810775757,0.0296711083501577,9.798208236694336,-3.1854755878448486,-2.3755533695220947,-0.3719570934772491
2503842500.0,-0.7063108682632446,-0.1968499571084976,9.623905181884766,-3.328659772872925,-2.6516499519348145,-0.3032853901386261
2503850833.0,-0.5496324300765991,-0.497457355260849,9.807851791381836,-3.415158987045288,-3.1298420429229736,-0.3393502235412597
2503859166.0,-0.324514091014862,-0.2690408527851105,10.010153770446776,-3.182888984680176,-2.9361729621887207,-0.3582535088062286
2503867499.0,-0.4719854295253753,-0.0334617421030998,9.889360427856444,-3.1202878952026367,-2.478907346725464,-0.3606099784374237
2503875832.0,-0.7499944567680359,-0.1453410238027572,9.674203872680664,-3.2805304527282715,-2.394841194152832,-0.4291024506092071
2503884165.0,-0.7750160098075867,-0.3248878121376037,9.751482963562012,-3.485879898071289,-2.961812734603882,-0.4140925407409668
2503892498.0,-0.5165086388587952,-0.293908953666687,9.952240943908691,-3.256965398788452,-2.9780519008636475,-0.3611223101615906
2503900831.0,-0.4378959238529205,-0.1296588033437729,9.943887710571287,-3.207914113998413,-2.776519298553467,-0.365732878446579
2503909164.0,-0.5945645570755005,-0.1141054481267929,9.716382026672363,-3.2507920265197754,-2.52954626083374,-0.3937035799026489
2503917497.0,-0.6443082094192505,-0.3860057890415191,9.72563362121582,-3.448969841003418,-3.0516929626464844,-0.4242614209651947
2503925830.0,-0.4143309891223907,-0.3927531838417053,9.93034839630127,-3.24958872795105,-3.0398848056793213,-0.3722901046276092
2503934163.0,-0.2956493198871612,-0.090605691075325,9.96816635131836,-3.201279878616333,-2.631286144256592,-0.3608661592006683
2503942496.0,-0.5845109224319458,-0.0837217271327972,9.770554542541504,-3.145517349243164,-2.1999166011810303,-0.3759016394615173
2503950829.0,-0.8408348560333252,-0.3321141898632049,9.68809986114502,-3.3446688652038574,-2.6169426441192627,-0.4353779852390289
2503959162.0,-0.7087459564208984,-0.4629649221897125,9.854116439819336,-3.3189263343811035,-3.236038446426392,-0.3175525069236755
2503967495.0,-0.4503589868545532,-0.2617629766464233,9.998851776123049,-3.1235151290893555,-2.989475965499878,-0.3650925159454345
2503975828.0,-0.4682002067565918,0.0441281758248806,9.869400024414062,-3.1148831844329834,-2.5395872592926025,-0.4962885975837707
2503984161.0,-0.646864116191864,-0.0758808702230453,9.647154808044434,-3.2978200912475586,-2.6564908027648926,-0.4287182688713074
2503992494.0,-0.6322374939918518,-0.4555043280124664,9.74683952331543,-3.4767868518829346,-3.022031545639038,-0.4489535093307495
2504000827.0,-0.3456481695175171,-0.3735918402671814,9.999144554138184,-3.3240749835968018,-3.038219690322876,-0.3370193243026733
2504009160.0,-0.3466564416885376,-0.1111928224563598,9.978097915649414,-3.114152669906616,-2.415780782699585,-0.3686912357807159
2504017493.0,-0.6930336356163025,-0.0667549148201942,9.775418281555176,-3.1523568630218506,-2.1530940532684326,-0.4092514514923095
2504025826.0,-0.8111655116081238,-0.2493655085563659,9.701412200927734,-3.3795807361602783,-2.727621555328369,-0.3502618670463562
2504034159.0,-0.6383622884750366,-0.3823319971561432,9.876800537109377,-3.239957571029663,-3.1800460815429688,-0.4228782653808594
2504042492.0,-0.4194787144660949,-0.202928140759468,9.9975004196167,-3.254122257232666,-2.8144280910491943,-0.4776927232742309
2504050825.0,-0.4807969927787781,-0.1010528802871704,9.804239273071287,-3.169057130813598,-2.5147671699523926,-0.3476235866546631
2504059158.0,-0.6837107539176941,-0.2791047096252441,9.70030689239502,-3.312958002090454,-2.767220973968506,-0.4461359679698944
2504067491.0,-0.5324586629867554,-0.4054325222969055,9.828758239746094,-3.255249261856079,-3.198949098587036,-0.2865080237388611
2504075824.0,-0.2902848422527313,-0.1891546100378036,9.953812599182127,-3.198949098587036,-2.897700309753418,-0.3649132251739502
2504084157.0,-0.4305154681205749,-0.0644687339663505,9.88405990600586,-3.223640918731689,-2.2397470474243164,-0.3748771548271179
2504092490.0,-0.7671469449996948,-0.2247427552938461,9.674141883850098,-3.437007665634156,-2.2837777137756348,-0.3245963752269745
2504100823.0,-0.771695077419281,-0.4826205372810364,9.767789840698242,-3.286985158920288,-2.9959306716918945,-0.4044103622436523
2504109156.0,-0.5000107288360596,-0.3650722503662109,9.997532844543455,-3.1775097846984863,-3.115830898284912,-0.2818974554538727
2504117489.0,-0.3873234391212463,-0.0201471503823995,9.987746238708496,-3.016831636428833,-2.658719062805176,-0.4114542603492737
2504125822.0,-0.5821250081062317,0.0278894770890474,9.708684921264648,-3.129713535308838,-2.403217077255249,-0.3641960024833679
2504134155.0,-0.6904557943344116,-0.2879612147808075,9.659272193908691,-3.461367130279541,-2.885507822036743,-0.4260543882846832
2504142488.0,-0.480264812707901,-0.4473163783550262,9.886865615844728,-3.43011736869812,-3.1425466537475586,-0.3546675145626068
2504150821.0,-0.3141487836837768,-0.2469943016767501,10.014774322509766,-3.1271777153015137,-2.7226264476776123,-0.4464432895183563
2504159154.0,-0.5248009562492371,-0.0425999164581298,9.865592956542969,-3.049745559692383,-2.351271152496338,-0.3809476494789123
2504167487.0,-0.8220466375350952,-0.1434985399246215,9.660998344421388,-3.3116259574890137,-2.464409828186035,-0.4351218044757843
2504175820.0,-0.7530839443206787,-0.3549749851226806,9.765480041503906,-3.346077442169189,-3.129918575286865,-0.4307674467563629
2504184153.0,-0.4624131321907043,-0.283702939748764,9.970240592956545,-3.2840652465820312,-3.2015364170074463,-0.2457045614719391
2504192486.0,-0.427799254655838,-0.1315423548221588,9.896117210388184,-3.171259880065918,-2.5912768840789795,-0.4113005697727203
2504200819.0,-0.616453230381012,-0.2205147743225097,9.686960220336914,-3.3735616207122803,-2.572911739349365,-0.4737993478775024
2504209152.0,-0.6180553436279297,-0.4202048778533935,9.755744934082031,-3.337035655975342,-3.0461089611053467,-0.3779508769512176
2504217485.0,-0.3838066756725311,-0.3188801109790802,9.9368314743042,-3.167661428451538,-3.145556688308716,-0.3967901468276977
2504225818.0,-0.3437492847442627,-0.1069592610001564,9.965682983398438,-3.103177070617676,-2.566815137863159,-0.3666549623012543
2504234151.0,-0.6537783741950989,-0.1399040818214416,9.753074645996094,-3.2536609172821045,-2.26643705368042,-0.4847109317779541
2504242484.0,-0.8595213294029236,-0.4108244180679321,9.679669380187988,-3.3669273853302,-2.714916944503784,-0.38443124294281
2504250817.0,-0.6608240008354187,-0.4794228374958038,9.909408569335938,-3.2092206478118896,-3.192929744720459,-0.4449833333492279
2504259150.0,-0.3981688618659973,-0.1923064142465591,10.007798194885254,-3.0570971965789795,-2.9075615406036377,-0.4035650789737701
2504267483.0,-0.468837022781372,0.0456355176866054,9.841761589050291,-3.077588558197021,-2.37317156791687,-0.4863502383232116
2504275816.0,-0.6774192452430725,-0.13311168551445,9.625231742858888,-3.275177240371704,-2.667530536651612,-0.394625723361969
2504284149.0,-0.5969570875167847,-0.4525512158870697,9.770809173583984,-3.399277925491333,-3.1266658306121826,-0.4038724601268768
2504292482.0,-0.3617037832736969,-0.3371368050575256,10.037616729736328,-3.166649580001831,-3.0212631225585938,-0.3871207535266876
2504300815.0,-0.433324247598648,-0.0947796404361724,9.958463668823242,-3.019725799560547,-2.326732873916626,-0.414989024400711
2504309148.0,-0.7337121367454529,-0.0582756176590919,9.708831787109377,-3.118699312210083,-2.226069211959839,-0.3882990181446075
2504317481.0,-0.8131845593452454,-0.2535037100315094,9.73993968963623,-3.4274027347564697,-2.882152318954468,-0.4316638708114624
2504325814.0,-0.5825376510620117,-0.2654361128807068,9.900099754333496,-3.369053363800049,-3.131788730621338,-0.3859425187110901
2504334147.0,-0.4353588223457336,-0.1069917008280754,9.986867904663086,-3.171849250793457,-2.7855865955352783,-0.3495703041553497
2504342480.0,-0.5579167008399963,-0.1041446924209594,9.761972427368164,-3.2092201709747314,-2.540355443954468,-0.3748258948326111
2504350813.0,-0.6541789770126343,-0.3024492561817169,9.732223510742188,-3.354709386825561,-2.883765935897827,-0.4562023878097534
2504359146.0,-0.4678756594657898,-0.3798455595970154,9.85952377319336,-3.2398552894592285,-3.0222110748291016,-0.39616259932518
2504367479.0,-0.3180765807628631,-0.1315108686685562,9.969502449035645,-3.1113739013671875,-2.687201976776123,-0.3970846533775329
2504375812.0,-0.5427855849266052,-0.0372303165495395,9.812410354614258,-3.161308765411377,-2.296264886856079,-0.4073687791824341
2504384145.0,-0.8119474053382874,-0.2649505734443664,9.68466567993164,-3.340365409851074,-2.504546880722046,-0.3980836570262909
2504392478.0,-0.7379823327064514,-0.4704068601131439,9.825361251831056,-3.396383285522461,-3.057456016540528,-0.3195247948169708
2504400811.0,-0.4393864572048187,-0.2896350920200348,9.99920654296875,-3.1527669429779053,-3.2090413570404053,-0.4844292402267456
2504409144.0,-0.4153867661952972,0.0367413535714149,9.886234283447266,-3.1434431076049805,-2.7545166015625,-0.4246712327003479
2504417477.0,-0.5885140299797058,-0.0774561911821365,9.677602767944336,-3.370718240737915,-2.51615047454834,-0.4638610482215881
2504425810.0,-0.586389422416687,-0.3892468214035034,9.749732971191406,-3.539285659790039,-2.999926805496216,-0.3491348624229431
2504434143.0,-0.3848820030689239,-0.4004917740821838,9.928751945495604,-3.373049259185791,-2.940347909927368,-0.3451646268367767
2504442476.0,-0.343923956155777,-0.1677092462778091,9.96636199951172,-3.100205659866333,-2.502164602279663,-0.4175503849983215
2504450809.0,-0.5951141119003296,-0.0620591193437576,9.768766403198242,-3.1367318630218506,-2.204092025756836,-0.3149142265319824
2504459142.0,-0.7932106256484985,-0.2233778685331344,9.699482917785645,-3.3783769607543945,-2.7191178798675537,-0.2930908501148224
2504467475.0,-0.6734228730201721,-0.3091631531715393,9.86750030517578,-3.385446548461914,-3.1003856658935547,-0.4104297459125519
2504475808.0,-0.4465130567550659,-0.2608345746994018,9.986083984375,-3.306605815887451,-2.90028715133667,-0.3604819774627685
2504484141.0,-0.4891486465930938,-0.0964974090456962,9.805988311767578,-3.3071177005767822,-2.402679204940796,-0.3646570444107055
2504492474.0,-0.6619521379470825,-0.2362113893032074,9.7200288772583,-3.3531594276428223,-2.686856508255005,-0.3774769902229309
2504500807.0,-0.5445171594619751,-0.5132104158401489,9.823281288146973,-3.364084243774414,-3.050693988800049,-0.3528232872486114
2504509140.0,-0.2706398069858551,-0.207218661904335,9.953498840332031,-3.1529204845428467,-2.898571014404297,-0.3392221331596374
2504517473.0,-0.3822368681430816,-0.0651753172278404,9.902857780456545,-3.146695613861084,-2.322250366210937,-0.3591499328613281
2504525806.0,-0.753915548324585,-0.212600901722908,9.66474151611328,-3.3122408390045166,-2.2792441844940186,-0.4638609886169433
2504534139.0,-0.7967869639396667,-0.5232184529304504,9.755602836608888,-3.416106700897217,-2.8420403003692627,-0.405972808599472
2504542472.0,-0.5493960380554199,-0.4007222950458526,9.976984977722168,-3.0117344856262207,-3.140651226043701,-0.3431154787540436
2504550805.0,-0.4700836837291717,-0.139903575181961,9.968088150024414,-2.9399633407592773,-2.615431070327759,-0.3919618129730224
2504559138.0,-0.5820392966270447,0.0387383997440338,9.729009628295898,-3.127639055252075,-2.5228867530822754,-0.4882201254367828
2504567471.0,-0.7193319201469421,-0.288800835609436,9.62874984741211,-3.373331069946289,-2.973338842391968,-0.5016932487487793
2504575804.0,-0.4919073283672333,-0.5118569731712341,9.873737335205078,-3.4474329948425293,-3.2579128742218018,-0.4441380798816681
2504584137.0,-0.260689377784729,-0.2748206853866577,9.983962059020996,-3.1873199939727783,-2.661869764328003,-0.410557746887207
2504592470.0,-0.4669426679611206,-0.113432265818119,9.888111114501951,-2.962580442428589,-2.257728099822998,-0.4358133375644684
2504600803.0,-0.7712206840515137,-0.1356510818004608,9.70444107055664,-3.208707332611084,-2.4348244667053223,-0.5933152437210083
2504609136.0,-0.7573016285896301,-0.3485574722290039,9.807745933532717,-3.3722035884857178,-3.0443928241729736,-0.369113951921463
2504617469.0,-0.5364481210708618,-0.272956520318985,9.964409828186035,-3.190599203109741,-3.035658597946167,-0.3648619949817657
2504625802.0,-0.4804421067237854,-0.0885635912418365,9.893153190612791,-3.1731295585632324,-2.586742877960205,-0.4257213771343231
2504634135.0,-0.6631667613983154,-0.1650028228759765,9.68063735961914,-3.204455614089966,-2.640507459640503,-0.3877098262310028
2504642468.0,-0.6544426083564758,-0.3777533173561096,9.742545127868652,-3.3172357082366943,-2.909738779067993,-0.3292069435119629
2504650801.0,-0.4065198898315429,-0.3157501816749573,9.93036937713623,-3.1708245277404785,-3.0824811458587646,-0.4532311260700226
2504659134.0,-0.2886484861373901,-0.0615935437381267,9.96566677093506,-3.201228618621826,-2.545248031616211,-0.4635535776615143
2504667467.0,-0.5749741792678833,-0.0760455057024955,9.757174491882324,-3.204968214035034,-2.111342668533325,-0.4120689332485199
2504675800.0,-0.8262022137641907,-0.3616865873336792,9.671428680419922,-3.4150822162628174,-2.6221933364868164,-0.4376576542854309
2504684133.0,-0.6483331918716431,-0.4580355882644653,9.870512008666992,-3.3383162021636963,-3.109504222869873,-0.2838185429573059
2504692466.0,-0.3968874514102936,-0.1634754240512848,9.977705955505373,-3.038501501083374,-3.023466110229492,-0.4045896530151367
2504700799.0,-0.4533044397830963,0.0608256086707115,9.848943710327148,-3.148693799972534,-2.4600040912628174,-0.3186282813549042
2504709132.0,-0.6643078923225403,-0.0623926669359207,9.631657600402832,-3.3405447006225586,-2.609181404113769,-0.3769006729125976
2504717465.0,-0.5738515257835388,-0.3861170411109924,9.80111598968506,-3.3827059268951416,-3.0214171409606934,-0.4154245257377624
2504725798.0,-0.3233168423175812,-0.3315760195255279,9.969862937927246,-3.1682121753692627,-2.897700071334839,-0.3243146240711212
2504734131.0,-0.3708846569061279,-0.0881843343377113,9.972128868103027,-3.0933926105499268,-2.400707006454468,-0.3462660610675812
2504742464.0,-0.6837767958641052,-0.0424915663897991,9.67820930480957,-3.209066390991211,-2.2547824382781982,-0.2607913315296173
2504750797.0,-0.7852499485015869,-0.2284876555204391,9.737466812133787,-3.352506637573242,-2.8259031772613525,-0.298854112625122
2504759130.0,-0.5623352527618408,-0.2919996380805969,9.899852752685549,-3.328454732894897,-3.0850939750671387,-0.4503878951072693
2504767463.0,-0.3905388116836548,-0.1177510619163513,9.99364948272705,-3.223538875579834,-2.675471067428589,-0.4063314199447632
2504775796.0,-0.5194485783576965,-0.0915393009781837,9.791692733764648,-3.2354233264923096,-2.420096635818481,-0.2595105767250061
2504784129.0,-0.6497816443443298,-0.2875658869743347,9.714964866638184,-3.389519214630127,-2.6971664428710938,-0.458020955324173
2504792462.0,-0.4904513955116272,-0.3784751296043396,9.827736854553224,-3.321410655975342,-3.185168981552124,-0.4211620986461639
2504800795.0,-0.3408597111701965,-0.1478099972009658,9.970330238342283,-3.2747926712036133,-2.808793067932129,-0.4644501507282257
2504809128.0,-0.4826247990131378,-0.0531590655446052,9.849613189697266,-3.314596652984619,-2.287209987640381,-0.3811013102531433
2504817461.0,-0.8135860562324524,-0.2666086554527282,9.680471420288086,-3.3665685653686523,-2.451858758926392,-0.414527952671051
2504825794.0,-0.7632557153701782,-0.504351794719696,9.840118408203123,-3.539746761322021,-2.998722553253174,-0.3352775275707245
2504834127.0,-0.49601611495018,-0.3498413562774658,9.972862243652344,-3.305248022079468,-3.1489500999450684,-0.453256756067276
2504842460.0,-0.3991830348968506,-0.018529750406742,9.953983306884766,-3.159221172332764,-2.617172956466675,-0.4188055396080017
2504850793.0,-0.6271179914474487,-0.048844464123249,9.647175788879396,-3.2651612758636475,-2.443917751312256,-0.5151662230491638
2504859126.0,-0.6500949859619141,-0.3989838659763336,9.726156234741213,-3.492795705795288,-2.9547431468963623,-0.4313308894634247
2504867459.0,-0.4461965560913086,-0.4808512330055237,9.925447463989258,-3.359524726867676,-3.1302006244659424,-0.3288995921611786
2504875792.0,-0.3652356564998626,-0.2375791072845459,9.995403289794922,-2.9231855869293213,-2.593965768814087,-0.3492372334003448
2504884125.0,-0.6001518368721008,-0.0929670110344886,9.780466079711914,-3.0469796657562256,-2.2337019443511963,-0.4400909841060638
2504892458.0,-0.8423828482627869,-0.2120064795017242,9.70661449432373,-3.4106252193450928,-2.6186840534210205,-0.5059452056884766
2504900791.0,-0.7050763964653015,-0.3857585787773132,9.83393669128418,-3.3782997131347656,-3.1825814247131348,-0.4039236903190613
2504909124.0,-0.4437533617019653,-0.2512049973011017,10.001090049743652,-3.142136812210083,-2.9095849990844727,-0.4052556157112121
2504917457.0,-0.484049379825592,-0.1317997425794601,9.844354629516602,-3.1405224800109863,-2.561974048614502,-0.5615280270576477
2504925790.0,-0.6641250848770142,-0.2606914043426513,9.697279930114746,-3.272231340408325,-2.649190664291382,-0.3482127487659454
2504934123.0,-0.5728141069412231,-0.4218110144138336,9.780000686645508,-3.439389944076538,-3.1152164936065674,-0.3491092324256897
2504942456.0,-0.3336750566959381,-0.2536655962467193,9.948269844055176,-3.220003843307495,-3.10904312133789,-0.4390920102596283
2504950789.0,-0.3576067686080932,-0.0404738634824752,9.893649101257324,-3.116675853729248,-2.436976671218872,-0.3427056670188904
2504959122.0,-0.6881487965583801,-0.1503555923700332,9.703409194946287,-3.246002197265625,-2.242999792098999,-0.3850203454494476
2504967455.0,-0.8332773447036743,-0.4853712320327759,9.737593650817873,-3.335831642150879,-2.841297149658203,-0.4467763304710388
2504975788.0,-0.5824323296546936,-0.4196473956108093,9.96327781677246,-3.168391466140747,-3.2917752265930176,-0.3823308944702148
2504984121.0,-0.3799075782299042,-0.0716464892029762,9.991633415222168,-2.9775137901306152,-2.8463690280914307,-0.3575363159179687
2504992454.0,-0.5300652384757996,0.0799700692296028,9.772330284118652,-3.206735849380493,-2.4382576942443848,-0.407663345336914
2505000787.0,-0.6627329587936401,-0.2128190249204635,9.617009162902832,-3.441797971725464,-2.750213384628296,-0.5247204303741455
2505009120.0,-0.505081832408905,-0.4763609170913696,9.85330581665039,-3.35801362991333,-3.158606767654419,-0.3839446008205414
2505017453.0,-0.2799264192581177,-0.3085982799530029,10.003812789916992,-3.2057881355285645,-2.9142212867736816,-0.377541035413742
2505025786.0,-0.4460296928882599,-0.0568863414227962,9.902435302734377,-3.123873710632324,-2.2160539627075195,-0.4428316950798034
2505034119.0,-0.7482994198799133,-0.070580318570137,9.668787956237791,-3.197821855545044,-2.307983160018921,-0.4063057899475097
2505042452.0,-0.7864532470703125,-0.322759747505188,9.75583553314209,-3.35086727142334,-2.949005365371704,-0.4480058252811432
2505050785.0,-0.4894516468048095,-0.2858602106571197,9.9553861618042,-3.2802231311798096,-3.0406534671783447,-0.4763095378875732
2505059118.0,-0.4160799384117126,-0.1197826787829399,9.936727523803713,-3.1120400428771973,-2.6676840782165527,-0.4763351082801819
2505067451.0,-0.5889372825622559,-0.1478707492351532,9.724501609802246,-3.2404699325561523,-2.635845899581909,-0.3890162110328674
2505075784.0,-0.6492898464202881,-0.3697488307952881,9.707686424255373,-3.3607540130615234,-2.9448044300079346,-0.3854814171791076
2505084117.0,-0.4166432619094848,-0.3502585291862488,9.933954238891602,-3.252815723419189,-3.1521008014678955,-0.30692258477211
2505092450.0,-0.3116587996482849,-0.0738157778978347,9.95577335357666,-3.0703396797180176,-2.6602556705474854,-0.3838164508342743
2505100783.0,-0.5893605351448059,-0.0633228793740272,9.798293113708496,-3.149231672286988,-2.223379611968994,-0.2949094772338867
2505109116.0,-0.8596958518028259,-0.3184070885181427,9.65058135986328,-3.3417484760284424,-2.583055019378662,-0.4736968874931335
2505117449.0,-0.6914266347885132,-0.4835276901721954,9.86098575592041,-3.2412383556365967,-3.1221580505371094,-0.3117124736309051
2505125782.0,-0.4058483242988586,-0.2317753434181213,10.004508972167969,-3.092445135116577,-3.0475945472717285,-0.3943439722061157
2505134115.0,-0.4404144883155823,0.0533391125500202,9.90382480621338,-3.0980029106140137,-2.4514739513397217,-0.3521572947502136
2505142448.0,-0.6603047847747803,-0.0528875440359115,9.603805541992188,-3.3148791790008545,-2.570298910140991,-0.3780533373355865
2505150781.0,-0.6225109100341797,-0.3858284652233124,9.773168563842772,-3.5675508975982666,-3.0737850666046143,-0.3535020351409912
2505159114.0,-0.3634041547775268,-0.3755716681480407,9.95490550994873,-3.2825028896331787,-3.1350417137146,-0.3641960322856903
2505167447.0,-0.3575806021690368,-0.1237065568566322,10.020362854003906,-3.1540470123291016,-2.458748817443848,-0.4066900014877319
2505175780.0,-0.6665218472480774,-0.0705306157469749,9.742228507995604,-3.254966735839844,-2.2480456829071045,-0.4179345965385437
2505184113.0,-0.856438934803009,-0.2356163412332534,9.727227210998535,-3.431577682495117,-2.7148656845092773,-0.4006450474262237
2505192446.0,-0.6585134863853455,-0.3486338257789612,9.887072563171388,-3.380246877670288,-3.2110390663146973,-0.3924485445022583
2505200779.0,-0.4150111079216003,-0.144949659705162,9.980202674865724,-3.243005752563477,-2.838198184967041,-0.3878123164176941
2505209112.0,-0.5131428837776184,-0.0960318073630333,9.802396774291992,-3.185757637023926,-2.609590768814087,-0.3930376172065735
2505217445.0,-0.663404643535614,-0.3061642646789551,9.7036714553833,-3.342388868331909,-2.726135969161988,-0.4527700543403625
2505225778.0,-0.517170250415802,-0.4335043132305145,9.846900939941406,-3.4419002532958984,-3.156890630722046,-0.3705227077007293
2505234111.0,-0.2904641032218933,-0.2134061902761459,9.99824333190918,-3.111438274383545,-2.9285271167755127,-0.4257598519325256
2505242444.0,-0.4468730092048645,-0.0465014949440956,9.872447967529297,-3.132748603820801,-2.331509828567505,-0.459621787071228
2505250777.0,-0.7857366800308228,-0.2276236712932586,9.673110961914062,-3.3540942668914795,-2.3303446769714355,-0.459711492061615
2505259110.0,-0.7809154391288757,-0.4986786246299743,9.798995018005373,-3.3613948822021484,-2.942729949951172,-0.4354292452335357
2505267443.0,-0.4802918434143066,-0.4139868915081024,9.97882843017578,-3.168083906173706,-3.2054038047790527,-0.4843524098396301
2505275776.0,-0.3519122004508972,-0.0478689596056938,9.944731712341309,-2.907842874526977,-2.6123569011688232,-0.4834301769733429
2505284109.0,-0.5671327114105225,-0.0318046808242797,9.696894645690918,-3.155045509338379,-2.490766286849976,-0.4212132096290588
2505292442.0,-0.6489607095718384,-0.3156645894050598,9.689987182617188,-3.423867702484131,-2.931741237640381,-0.4964422881603241
2505300775.0,-0.4637239873409271,-0.452670693397522,9.873485565185549,-3.345692873001098,-3.10433030128479,-0.2974453270435333
2505309108.0,-0.3255683481693268,-0.2357440739870071,10.018255233764648,-3.0862462520599365,-2.669553756713867,-0.4302038848400116
2505317441.0,-0.5752422213554382,-0.05379618704319,9.791454315185549,-3.1580939292907715,-2.282368898391724,-0.4050762355327606
2505325774.0,-0.8239882588386536,-0.1782431304454803,9.690804481506348,-3.200152635574341,-2.543710947036743,-0.4156805276870727
2505334107.0,-0.7346183061599731,-0.3640218079090118,9.818169593811035,-3.335165739059448,-3.13437557220459,-0.3647851645946502
2505342440.0,-0.4213135540485382,-0.2441505342721939,10.00902271270752,-3.2387025356292725,-3.08038067817688,-0.4452394545078277
2505350773.0,-0.4328233599662781,-0.1029437258839607,9.892664909362791,-3.1269471645355225,-2.6365880966186523,-0.3577924072742462
2505359106.0,-0.6139654517173767,-0.2050645053386688,9.708206176757812,-3.1960289478302,-2.587614059448242,-0.3943183124065399
2505367439.0,-0.6017966270446777,-0.4102069437503814,9.766939163208008,-3.340134859085083,-3.0900886058807373,-0.4237491190433502
2505375772.0,-0.3674949705600738,-0.2882649004459381,9.961585998535156,-3.123361349105835,-3.03537654876709,-0.5155249238014221
2505384105.0,-0.3515831232070923,-0.0769250765442848,9.93936252593994,-3.091856002807617,-2.4852852821350098,-0.3448316156864166
2505392438.0,-0.6716830134391785,-0.1068643033504486,9.726347923278809,-3.293721437454224,-2.2745823860168457,-0.2562832236289978
2505400771.0,-0.864185094833374,-0.4070227742195129,9.692782402038574,-3.353659152984619,-2.703083276748657,-0.4216231405735016
2505409104.0,-0.63066565990448,-0.4256712794303894,9.925683975219728,-3.320821762084961,-3.2286617755889893,-0.4601981937885284
2505417437.0,-0.4123663008213043,-0.1427523046731948,10.011797904968262,-2.95781683921814,-2.938196182250977,-0.4383236467838287
2505425770.0,-0.4896447360515594,0.0718766376376152,9.800264358520508,-3.11478042602539,-2.569991111755371,-0.3314609825611114
2505434103.0,-0.6751452684402466,-0.182964026927948,9.590828895568848,-3.26423978805542,-2.6337711811065674,-0.4657820761203766
2505442436.0,-0.5519429445266724,-0.4464886486530304,9.84933376312256,-3.404439210891724,-3.219632625579834,-0.3360331654548645
2505450769.0,-0.3322203755378723,-0.3088038861751556,10.008941650390623,-3.0903446674346924,-3.0031542778015137,-0.3898358643054962
2505459102.0,-0.4548157751560211,-0.0541302263736724,9.929193496704102,-3.057814598083496,-2.3162055015563965,-0.4211364090442657
2505467435.0,-0.775214433670044,-0.0790701061487197,9.703575134277344,-3.2075035572052,-2.3640782833099365,-0.4580208659172058
2505475768.0,-0.84682697057724,-0.3040841519832611,9.75722885131836,-3.4029664993286133,-3.059966325759888,-0.3805635571479797
2505484101.0,-0.5467485785484314,-0.3154501020908355,9.951682090759276,-3.3436439037323,-3.190675735473633,-0.4422682225704193
2505492434.0,-0.4106271862983703,-0.1410197764635086,9.96436595916748,-3.1798152923583984,-2.717529773712158,-0.2445262968540191
2505500767.0,-0.5647978782653809,-0.1368525177240371,9.7244873046875,-3.335498571395874,-2.5463242530822754,-0.4365050196647644
2505509100.0,-0.6664139628410339,-0.3422902226448059,9.706584930419922,-3.348254680633545,-2.824033498764038,-0.4582258760929107
2505517433.0,-0.4212907552719116,-0.3406802713871002,9.907058715820312,-3.181505918502808,-3.149026870727539,-0.3895284831523895
2505525766.0,-0.3346703052520752,-0.1430387496948242,9.974530220031738,-3.1338372230529785,-2.735459089279175,-0.4453418552875519
2505534099.0,-0.5550088882446289,-0.0876096561551094,9.818910598754885,-3.1743595600128174,-2.345457077026367,-0.4509257972240448
2505542432.0,-0.8365082740783691,-0.3310185968875885,9.6712064743042,-3.282758951187134,-2.58848524093628,-0.499772161245346
2505550765.0,-0.6992368102073669,-0.5000131130218506,9.86426830291748,-3.245630979537964,-3.1661243438720703,-0.421097993850708
2505559098.0,-0.4111392498016357,-0.2705660462379455,10.014193534851074,-3.1679816246032715,-3.075796127319336,-0.3249038159847259
2505567431.0,-0.398634523153305,0.0324638299643993,9.889264106750488,-3.048080921173096,-2.515663385391236,-0.4513355493545532
2505575764.0,-0.6367654800415039,-0.085959754884243,9.62091064453125,-3.2134976387023926,-2.6425821781158447,-0.4172174334526062
2505584097.0,-0.6090526580810547,-0.4227418601512909,9.770263671875,-3.511289358139038,-3.1432127952575684,-0.3548212349414825
2505592430.0,-0.3782928884029388,-0.4087159037590027,9.943588256835938,-3.1812753677368164,-3.0498485565185547,-0.3545138239860534
2505600763.0,-0.3294330537319183,-0.1351512670516967,9.996152877807615,-3.009352445602417,-2.428011655807495,-0.3937548100948334
2505609096.0,-0.643775463104248,-0.0953325778245925,9.74822235107422,-3.1538422107696533,-2.177837371826172,-0.4686764478683471
2505617429.0,-0.8233384490013123,-0.2393074929714203,9.700665473937988,-3.378786325454712,-2.7039542198181152,-0.4019770324230194
2505625762.0,-0.6283144950866699,-0.3548167943954468,9.837992668151855,-3.471407890319824,-3.058506488800049,-0.3322294652462005
2505634095.0,-0.4015981256961822,-0.1930222958326339,9.986083984375,-3.2488458156585693,-2.8744168281555176,-0.3912446200847626
2505642428.0,-0.5107445120811462,-0.1202497780323028,9.80219268798828,-3.213369131088257,-2.488332986831665,-0.425413966178894
2505650761.0,-0.6708494424819946,-0.297812283039093,9.661444664001465,-3.348766803741455,-2.765735626220703,-0.4369916915893554
2505659094.0,-0.5165532231330872,-0.412296712398529,9.781094551086426,-3.2095534801483154,-3.137295961380005,-0.3655279874801636
2505667427.0,-0.2959086298942566,-0.2155953347682953,10.0062837600708,-3.2165462970733643,-3.030125856399536,-0.3805122673511505
2505675760.0,-0.4238514304161072,-0.0807359516620636,9.88429832458496,-3.195106506347656,-2.2619802951812744,-0.5337621569633484
2505684093.0,-0.7841480374336243,-0.2436240166425705,9.68437385559082,-3.2349624633789062,-2.407622814178467,-0.451796680688858
2505692426.0,-0.7850836515426636,-0.4836901724338531,9.758066177368164,-3.2736656665802,-3.0378358364105225,-0.3051295876502991
2505700759.0,-0.530935525894165,-0.3683557510375976,9.96848964691162,-3.1616034507751465,-3.065678119659424,-0.414989024400711
2505709092.0,-0.4291087985038757,-0.0192095339298248,9.938827514648438,-3.054945468902588,-2.5964508056640625,-0.3740830719470978
2505717425.0,-0.6151537299156189,-0.0141076808795332,9.715688705444336,-3.215777635574341,-2.4775495529174805,-0.3979043364524841
2505725758.0,-0.6491760015487671,-0.3227305114269256,9.673075675964355,-3.43977427482605,-2.9583544731140137,-0.4368636310100555
2505734091.0,-0.4678993225097656,-0.4219945967197418,9.889415740966797,-3.283527135848999,-3.2084262371063232,-0.3626079261302948
2505742424.0,-0.3170703053474426,-0.2359987050294876,10.017794609069824,-3.1899073123931885,-2.732616424560547,-0.4074841141700744
2505750757.0,-0.5230584144592285,-0.0396787822246551,9.832928657531738,-3.0539467334747314,-2.16574764251709,-0.3499288558959961
2505759090.0,-0.83338862657547,-0.1285082846879959,9.695170402526855,-3.3007657527923584,-2.5696330070495605,-0.3445242643356323
2505767423.0,-0.7643502354621887,-0.3346323072910309,9.810388565063477,-3.289687395095825,-3.031444787979126,-0.4049098789691925
2505775756.0,-0.4566826522350311,-0.2688279747962951,10.004298210144045,-3.2388432025909424,-2.987849473953247,-0.3614168763160705
2505784089.0,-0.4943453967571258,-0.0100842155516147,9.867488861083984,-3.171426296234131,-2.6213860511779785,-0.3930504322052002
2505792422.0,-0.6659993529319763,-0.2614395916461944,9.713774681091309,-3.25120210647583,-2.6401233673095703,-0.3753894567489624
2505800755.0,-0.5626668930053711,-0.3905981183052063,9.802753448486328,-3.3970754146575928,-3.102357864379883,-0.3890930414199829
2505809088.0,-0.3095390498638153,-0.2666727006435394,9.927760124206545,-3.2712323665618896,-3.101666212081909,-0.4623753726482391
2505817421.0,-0.352980762720108,-0.0296929720789194,9.873292922973633,-3.1119630336761475,-2.300401449203491,-0.3488786816596985
2505825754.0,-0.6916918754577637,-0.1744809448719024,9.728543281555176,-3.2458484172821045,-2.185342311859131,-0.4571245014667511
2505834087.0,-0.787748396396637,-0.3741109073162079,9.715641975402832,-3.37340784072876,-2.6819000244140625,-0.4356085360050201
2505842420.0,-0.6378646492958069,-0.4741633534431457,9.941720008850098,-3.2652387619018555,-3.237780332565308,-0.3567422926425934
2505850753.0,-0.4090918302536011,-0.117504172027111,10.00681209564209,-3.089320421218872,-2.809254169464112,-0.3971615135669708
2505859086.0,-0.5523929595947266,0.0591508410871028,9.761185646057127,-3.2195940017700195,-2.4823906421661377,-0.3476492166519165
2505867419.0,-0.6991315484046936,-0.2320539206266403,9.63758659362793,-3.43616271018982,-2.793398857116699,-0.3923973143100738
2505875752.0,-0.5064341425895691,-0.4326525926589966,9.803010940551758,-3.3775312900543213,-3.1999990940093994,-0.4352242350578308
2505884085.0,-0.2992475032806396,-0.3127570748329162,9.994125366210938,-3.1489500999450684,-2.9298715591430664,-0.5018981695175171
2505892418.0,-0.4314226806163788,-0.0440935231745243,9.881227493286133,-3.171516180038452,-2.320688247680664,-0.3705739080905914
2505900751.0,-0.733633816242218,-0.1285294890403747,9.70110321044922,-3.306836128234864,-2.3130805492401123,-0.4376832246780395
2505909084.0,-0.7688175439834595,-0.3274905979633331,9.760833740234377,-3.420294761657715,-2.9681262969970703,-0.3875945806503296
2505917417.0,-0.5137777924537659,-0.2827155292034149,9.968032836914062,-3.3237545490264893,-3.128779172897339,-0.4979407489299774
2505925750.0,-0.4410943984985351,-0.1409350633621215,9.905023574829102,-3.214830160140991,-2.728466987609864,-0.443215936422348
2505934083.0,-0.6112653017044067,-0.1790053397417068,9.704911231994627,-3.2770469188690186,-2.5766258239746094,-0.5277684926986694
2505942416.0,-0.6687572598457336,-0.3876054883003235,9.735602378845217,-3.300612211227417,-3.037118673324585,-0.4254396855831146
