SampleTimeFine,Acc_X,Acc_Y,Acc_Z,Gyr_X,Gyr_Y,Gyr_Z
3993341251.0,0.0,0.0,0.0,0.0,0.0,0.0
3993349584.0,-0.4645985960960388,0.0393978580832481,9.53669261932373,-1.118714690208435,-1.0943043231964111,0.1859593540430069
3993357917.0,-0.2488187998533249,0.0281464364379644,9.637847900390623,-1.1162811517715454,-1.1680219173431396,0.2841899394989013
3993366250.0,-0.2344914823770523,0.2741543352603912,9.73878288269043,-0.897970974445343,-0.7315553426742554,0.2997377514839172
3993374583.0,-0.5070580244064331,0.3366555869579315,9.708688735961914,-0.9728158712387084,-0.5311752557754517,0.185114100575447
3993382916.0,-0.634864866733551,0.1609246581792831,9.589494705200195,-1.1157944202423096,-0.7917744517326355,0.2383916676044464
3993391249.0,-0.4659647941589355,0.0558565519750118,9.626696586608888,-1.0291929244995115,-1.2604637145996094,0.309522420167923
3993399582.0,-0.3093532919883728,0.23158760368824,9.741735458374023,-1.0153865814208984,-1.0461750030517578,0.3396191298961639
3993407915.0,-0.4011099636554718,0.3268491625785827,9.71474838256836,-1.0210474729537964,-0.6829651594161987,0.341207206249237
3993416248.0,-0.5228155255317688,0.1561752557754516,9.566455841064451,-1.104447364807129,-0.9629799723625184,0.2093963623046875
3993424581.0,-0.378566175699234,0.0169555731117725,9.560304641723633,-1.006319284439087,-1.3742679357528689,0.355653703212738
3993432914.0,-0.1802587956190109,0.2265233844518661,9.706329345703123,-0.950505793094635,-1.1505529880523682,0.2872892916202545
3993441247.0,-0.3125577867031097,0.3976623117923736,9.80892276763916,-0.997738480567932,-0.59159916639328,0.163034588098526
3993449580.0,-0.5880566835403442,0.2635321915149688,9.634915351867676,-1.0950212478637695,-0.550923764705658,0.2863927483558655
3993457913.0,-0.6478687524795532,-0.0325311310589313,9.482967376708984,-1.1615670919418335,-1.0950725078582764,0.2468699812889099
3993466246.0,-0.3783542513847351,0.041230734437704,9.644572257995604,-0.9837788343429564,-1.3554155826568604,0.2725867033004761
3993474579.0,-0.2770367562770843,0.3197320699691772,9.781376838684082,-0.8398779034614563,-0.9594194889068604,0.2236378788948059
3993482912.0,-0.4380258023738861,0.4060811996459961,9.724183082580566,-0.9566020369529724,-0.6344518065452576,0.2050931900739669
3993491245.0,-0.5127801299095154,0.1586572080850601,9.582056045532228,-1.1501944065093994,-0.9682565927505492,0.2209227681159973
3993499578.0,-0.310679942369461,0.0242468751966953,9.590622901916504,-1.052911639213562,-1.2820565700531006,0.2897226512432098
3993507911.0,-0.1913815587759018,0.2332899123430252,9.70790958404541,-0.9633385539054872,-0.8860859870910645,0.2498924732208252
3993516244.0,-0.3689579367637634,0.390216201543808,9.762035369873049,-0.9456902742385864,-0.5215698480606079,0.1464621871709823
3993524577.0,-0.5925772786140442,0.2441765964031219,9.62686824798584,-1.0121337175369265,-0.6475406289100647,0.2911826074123382
3993532910.0,-0.5376219749450684,0.0540754944086074,9.575875282287598,-1.0583161115646362,-1.1711212396621704,0.2155181318521499
3993541243.0,-0.351791113615036,0.1555886417627334,9.71463394165039,-1.0139778852462769,-1.159236192703247,0.2797330319881439
3993549576.0,-0.3643515110015869,0.3455609977245331,9.713768005371094,-0.9957661628723145,-0.6198517084121704,0.292437732219696
3993557909.0,-0.5363630056381226,0.2793328762054443,9.60000991821289,-1.2395626306533811,-0.8051963448524475,0.1319645494222641
3993566242.0,-0.4457434117794037,0.0429012440145015,9.523868560791016,-1.145122766494751,-1.2573386430740356,0.2036331444978714
3993574575.0,-0.2116812318563461,0.1084299460053443,9.675335884094238,-0.9465612173080444,-1.2351056337356567,0.1826807260513305
3993582908.0,-0.2084122151136398,0.3431291878223419,9.826955795288086,-1.0544483661651611,-0.6285092830657959,0.2485092878341674
3993591241.0,-0.5078089237213135,0.3058841824531555,9.694812774658203,-1.0134143829345703,-0.4130679368972778,0.3382871747016907
3993599574.0,-0.6839834451675415,0.0211438033729791,9.54086971282959,-1.110184907913208,-0.7945919632911682,0.2801941037178039
3993607907.0,-0.4902344048023224,-0.0452989526093006,9.56252098083496,-0.9348812103271484,-1.2125139236450195,0.1642640978097915
3993616240.0,-0.3322495520114898,0.2558715045452118,9.77378749847412,-0.8460765480995178,-1.1104410886764526,0.2288119196891784
3993624573.0,-0.3601957261562347,0.4365165531635284,9.773709297180176,-0.9775288701057434,-0.6290984153747559,0.242618054151535
3993632906.0,-0.4915648400783539,0.233018159866333,9.593457221984863,-1.069048523902893,-0.698051929473877,0.2030184268951416
3993641239.0,-0.4058981537818908,-0.0442548543214798,9.572463989257812,-1.1376689672470093,-1.2724511623382568,0.2426180392503738
3993649572.0,-0.2353714555501938,0.084689661860466,9.669305801391602,-0.9425397515296936,-1.1558295488357544,0.2547079622745514
3993657905.0,-0.3383939564228058,0.341254860162735,9.7694091796875,-0.9229705333709716,-0.5949546098709106,0.2056054472923278
3993666238.0,-0.5896088480949402,0.3218421638011932,9.689212799072266,-0.9749161601066588,-0.5753597021102905,0.1960513442754745
3993674571.0,-0.6122404336929321,0.1176714226603508,9.602627754211426,-1.0825471878051758,-1.0933308601379397,0.2057335376739502
3993682904.0,-0.3656818866729736,0.0881016626954078,9.64900016784668,-0.9695627689361572,-1.198502779006958,0.1966404765844345
3993691237.0,-0.2819008231163025,0.2626666128635406,9.738988876342772,-1.0530396699905396,-0.8770185708999634,0.3425903618335724
3993699570.0,-0.4158877432346344,0.2855343520641327,9.695613861083984,-1.0146950483322144,-0.7366526126861572,0.1408526748418808
3993707903.0,-0.4480827748775482,0.0878726094961166,9.581554412841797,-1.1570590734481812,-1.0113909244537354,0.1784543693065643
3993716236.0,-0.287608653306961,0.0538752116262912,9.635001182556152,-0.956422746181488,-1.3163284063339231,0.1908260583877563
3993724569.0,-0.2113307416439056,0.2870579063892364,9.743022918701172,-0.8689500689506531,-0.8111387491226196,0.2127518504858017
3993732902.0,-0.4499853551387787,0.3854380846023559,9.701715469360352,-1.0508369207382202,-0.4494658410549164,0.3040153384208679
3993741235.0,-0.6737691760063171,0.1306752860546112,9.53896713256836,-1.1369261741638184,-0.7481276988983154,0.1436702460050583
3993749568.0,-0.5764892101287842,-0.0969753861427307,9.469382286071776,-1.16382098197937,-1.2037793397903442,0.2031464874744415
3993757901.0,-0.3219279944896698,0.1029437184333801,9.68576431274414,-0.9421043395996094,-1.2069554328918457,0.1776090860366821
3993766234.0,-0.2817433178424835,0.4217745363712311,9.812384605407717,-0.9042209982872008,-0.729224443435669,0.2455380409955978
3993774567.0,-0.4565589129924774,0.3653886318206787,9.682666778564451,-1.021559715270996,-0.847690224647522,0.2009692639112472
3993782900.0,-0.4440483748912811,0.0527308695018291,9.550798416137695,-1.1884620189666748,-1.0704572200775146,0.2649024426937103
3993791233.0,-0.265785276889801,0.0362721569836139,9.613492965698242,-0.958638310432434,-1.1846582889556885,0.1992146968841552
3993799566.0,-0.2672802805900574,0.2601846754550934,9.740970611572266,-0.9764275550842284,-0.7369086742401123,0.216645210981369
3993807899.0,-0.4898054003715515,0.3556391894817352,9.728666305541992,-0.9605209827423096,-0.5904209017753601,0.2542724907398224
3993816232.0,-0.651223361492157,0.1673265099525451,9.611461639404297,-1.085108757019043,-0.8404927849769592,0.1506116986274719
3993824565.0,-0.4815651476383209,0.0720005184412002,9.653627395629885,-1.0713666677474976,-1.21406352519989,0.2321802228689193
3993832898.0,-0.3420991599559784,0.2231042236089706,9.728338241577148,-1.017653465270996,-1.0178841352462769,0.3029267489910126
3993841231.0,-0.4162525534629822,0.3341307640075683,9.716099739074709,-1.0444843769073486,-0.8789396286010742,0.2153901010751724
3993849564.0,-0.5277582406997681,0.1696725934743881,9.591047286987305,-1.1370928287506104,-1.0254658460617063,0.2409915179014206
3993857897.0,-0.352041482925415,0.030964657664299,9.609222412109377,-1.0173205137252808,-1.2946970462799072,0.2413245141506195
3993866230.0,-0.1610605716705322,0.1805234551429748,9.73830223083496,-0.9577802419662476,-1.196786642074585,0.2994816303253174
3993874563.0,-0.2742757499217987,0.3780134320259094,9.754782676696776,-0.884856641292572,-0.5121951103210449,0.1801961660385131
3993882896.0,-0.5939649343490601,0.233576089143753,9.634557723999023,-1.0540385246276855,-0.4649111330509186,0.2259175479412078
3993891229.0,-0.6638767719268799,-0.0572512671351432,9.51001262664795,-1.1801117658615112,-1.029090404510498,0.1780957728624344
3993899562.0,-0.4291419684886932,0.0480313412845134,9.659770965576172,-0.9391329884529114,-1.2104390859603882,0.2059384286403656
3993907895.0,-0.2787176668643951,0.3544019162654876,9.829715728759766,-0.9358288645744324,-0.9511718153953552,0.1812463402748108
3993916228.0,-0.4181909561157226,0.4266027212142944,9.729032516479492,-0.9669758081436156,-0.5799703001976013,0.2482531517744064
3993924561.0,-0.4940753877162933,0.1608603745698928,9.579180717468262,-1.1655373573303225,-1.0391566753387451,0.208730399608612
3993932894.0,-0.336805909872055,-0.0411717630922794,9.566598892211914,-0.9597013592720032,-1.219429612159729,0.2996352910995483
3993941227.0,-0.2290770709514618,0.190523013472557,9.704883575439451,-0.9455878138542176,-1.0293207168579102,0.3163613677024841
3993949560.0,-0.4089924097061157,0.3924693465232849,9.753458976745604,-0.9954075813293456,-0.5358369946479797,0.1870607584714889
3993957893.0,-0.6474825143814087,0.2744688987731933,9.657224655151367,-1.124451994895935,-0.6459781527519226,0.1468463987112045
3993966226.0,-0.5340527296066284,0.072393923997879,9.606439590454102,-1.027783989906311,-1.1578530073165894,0.2103184759616851
3993974559.0,-0.3292954266071319,0.1505959630012512,9.682024002075195,-1.1024749279022217,-1.2221447229385376,0.2195395678281784
3993982892.0,-0.3368416130542755,0.3040460646152496,9.71151638031006,-0.9602649807929992,-0.8132903575897217,0.1527633070945739
3993991225.0,-0.4839398860931396,0.2274174839258194,9.607062339782717,-1.1244008541107178,-0.7643160223960876,0.1964355707168579
3993999558.0,-0.4453250765800476,0.0457284972071647,9.561891555786133,-1.1841204166412354,-1.177178978919983,0.1910437643527984
3994007891.0,-0.2306362688541412,0.110368363559246,9.704026222229004,-1.1165372133255005,-1.1824426651000977,0.1820403635501861
3994016224.0,-0.2403426766395568,0.3775914311408996,9.816883087158203,-0.9570374488830566,-0.6669049859046936,0.2675662934780121
3994024557.0,-0.519904375076294,0.3255187273025512,9.688783645629885,-1.0749526023864746,-0.4692783951759338,0.3086899220943451
3994032890.0,-0.6655863523483276,-0.0031830151565372,9.50061321258545,-1.1809699535369873,-0.9289514422416688,0.1444514840841293
3994041223.0,-0.4630535840988159,-0.0975147113204002,9.550232887268066,-0.9340614676475524,-1.2514216899871826,0.209088996052742
3994049556.0,-0.2646766602993011,0.2102435082197189,9.758795738220217,-0.9181038737297058,-1.0802676677703855,0.222075417637825
3994057889.0,-0.316491961479187,0.4576673209667206,9.80026626586914,-0.909113347530365,-0.6761006116867065,0.2546311020851135
3994066222.0,-0.4869084060192108,0.2919432818889618,9.652445793151855,-1.0429348945617676,-0.8370475172996521,0.1541592627763748
3994074555.0,-0.4005091488361358,0.0038982992991805,9.545619010925291,-1.154523253440857,-1.1335707902908323,0.2293242514133453
3994082888.0,-0.240428626537323,0.0649691522121429,9.631366729736328,-1.018409013748169,-1.1647430658340454,0.3016588091850281
3994091221.0,-0.3530714809894562,0.3289664089679718,9.726092338562012,-0.8864701986312866,-0.7418779134750366,0.2861878573894501
3994099554.0,-0.593435525894165,0.3227078020572662,9.672054290771484,-1.060403823852539,-0.5282936692237854,0.193707674741745
3994107887.0,-0.6391922831535339,0.1162981539964675,9.605145454406738,-1.0669353008270264,-0.956640362739563,0.1912230551242828
3994116220.0,-0.3988281488418579,0.1170849651098251,9.666438102722168,-1.0374021530151367,-1.175693392753601,0.1730113625526428
3994124553.0,-0.2936243116855621,0.2893252670764923,9.740554809570312,-1.00324547290802,-0.9662330150604248,0.2341397404670715
3994132886.0,-0.4167889952659607,0.2957772016525268,9.672395706176758,-1.079140543937683,-0.7638292908668518,0.1705395728349685
3994141219.0,-0.502379834651947,0.0916351974010467,9.549639701843262,-1.1614903211593628,-1.1450458765029907,0.2767618000507355
3994149552.0,-0.3142618834972381,0.0095416568219661,9.604549407958984,-1.0281425714492798,-1.3264716863632202,0.2218192666769027
3994157885.0,-0.2061164081096649,0.2545338571071625,9.776984214782717,-0.8546317219734192,-0.9581644535064696,0.2758909165859222
3994166218.0,-0.3978554308414459,0.3962460458278656,9.727479934692385,-0.963005542755127,-0.3754406273365021,0.3086259365081787
3994174551.0,-0.6916441321372986,0.1643222570419311,9.59498119354248,-1.162002444267273,-0.6220544576644897,0.2889541685581207
3994182884.0,-0.607240617275238,-0.0900686010718345,9.51453971862793,-1.1328920125961304,-1.1552788019180298,0.2323339283466339
3994191217.0,-0.3210696578025818,0.0865851640701294,9.69788932800293,-0.8838063478469849,-1.1755781173706057,0.2426948994398117
3994199550.0,-0.24361152946949,0.4156445562839508,9.830438613891602,-0.914953351020813,-0.9057832956314088,0.128378540277481
3994207883.0,-0.4357726573944092,0.373972088098526,9.694941520690918,-0.9773240089416504,-0.6695690155029297,0.2486630231142044
3994216216.0,-0.4610221982002258,0.0624729320406913,9.57055377960205,-1.047430157661438,-1.0826241970062256,0.1816817820072174
3994224549.0,-0.2685678005218506,0.0024248138070106,9.607741355895996,-0.9618785977363586,-1.20073139667511,0.1725118905305862
3994232882.0,-0.2781740725040436,0.2521877884864807,9.742679595947266,-0.896741509437561,-0.8060671091079712,0.2229206711053848
3994241215.0,-0.5026517510414124,0.3787644803524017,9.708338737487791,-0.821410059928894,-0.4577647745609283,0.2133409678936004
3994249548.0,-0.6637194156646729,0.1900010555982589,9.606268882751465,-1.0887714624404907,-0.8906198143959045,0.2085767239332199
3994257881.0,-0.4835679233074188,0.0630810484290123,9.629572868347168,-1.076015591621399,-1.2495777606964111,0.2503535449504852
3994266214.0,-0.2953051328659057,0.1844503581523895,9.70582103729248,-1.019100785255432,-1.0677677392959597,0.1805547326803207
3994274547.0,-0.3719693720340729,0.3114632070064544,9.716670989990234,-0.8719469308853149,-0.8060671091079712,0.2110612988471985
3994282880.0,-0.4979308545589447,0.208541139960289,9.610831260681152,-1.1067270040512085,-0.8174142241477966,0.169386938214302
3994291213.0,-0.3642942905426025,0.0068381177261471,9.57473087310791,-1.0925880670547483,-1.152320384979248,0.2729965150356293
3994299546.0,-0.1671619415283203,0.1900510340929031,9.719426155090332,-0.964183747768402,-1.010058879852295,0.2711010575294494
3994307879.0,-0.2802556753158569,0.3996863961219787,9.80568790435791,-1.0608519315719604,-0.6214654445648193,0.2655428051948547
3994316212.0,-0.6021048426628113,0.2792684435844421,9.650609016418455,-1.1317265033721924,-0.5130402445793152,0.181297555565834
3994324545.0,-0.6783469915390015,-0.0590252615511417,9.482158660888672,-1.1648200750350952,-1.061133861541748,0.2333200722932815
3994332878.0,-0.3960930109024048,-0.025945333763957,9.61517333984375,-1.0193055868148804,-1.3499085903167725,0.2462040185928344
3994341211.0,-0.235292762517929,0.3062775731086731,9.815088272094728,-0.8316942453384399,-0.9860968589782716,0.0762151628732681
3994349544.0,-0.3686861395835876,0.4319959580898285,9.74128532409668,-0.926684558391571,-0.5653958320617676,0.1880597025156021
3994357877.0,-0.4894618988037109,0.2238267660140991,9.622562408447266,-1.0999648571014404,-0.8966647982597351,0.3601361215114593
3994366210.0,-0.3623129427433014,-0.0387827157974243,9.555511474609377,-1.1116706132888794,-1.1781651973724363,0.2495594769716262
3994374543.0,-0.2249211519956588,0.1536001563072204,9.676065444946287,-0.9877488613128662,-0.9038110971450806,0.2578072547912597
3994382876.0,-0.3871048986911773,0.3579137623310089,9.754087448120115,-0.8805789351463318,-0.6508961319923401,0.2843436002731323
3994391209.0,-0.6179698705673218,0.2841323912143707,9.640759468078612,-1.063746452331543,-0.6879087090492249,0.230220764875412
3994399542.0,-0.5765031576156616,0.0865391567349433,9.606966018676758,-1.2030366659164429,-1.1868740320205688,0.2217936515808105
3994407875.0,-0.3626964688301086,0.1129880473017692,9.690282821655272,-1.0693559646606443,-1.3143305778503418,0.2217168360948562
3994416208.0,-0.3330077528953552,0.277287095785141,9.737629890441896,-0.9388000965118408,-0.9459208250045776,0.2782730758190155
3994424541.0,-0.4909783005714416,0.2770152986049652,9.620702743530272,-0.9794756174087524,-0.6770226359367371,0.2598820328712463
3994432874.0,-0.4885964095592499,0.0604987442493438,9.570253372192385,-1.1903830766677856,-1.1440470218658447,0.165186196565628
3994441207.0,-0.2335412055253982,0.0607753954827785,9.634567260742188,-0.9656821489334106,-1.4904409646987915,0.2280947566032409
3994449540.0,-0.1815747320652008,0.3064637780189514,9.771199226379396,-0.917053759098053,-0.8122402429580688,0.3443834185600281
3994457873.0,-0.4394919574260711,0.3652028143405914,9.718347549438477,-0.96589994430542,-0.3937804102897644,0.2785035669803619
3994466206.0,-0.7066078782081604,0.086964264512062,9.539567947387695,-1.114821195602417,-0.7110126614570618,0.2340884655714035
3994474539.0,-0.5402041673660278,-0.0719361379742622,9.562821388244627,-0.9723803400993348,-1.204445242881775,0.1738950312137603
3994482872.0,-0.2971219420433044,0.1547016948461532,9.730892181396484,-0.8775308728218079,-1.2702995538711548,0.2511475682258606
3994491205.0,-0.2826945185661316,0.4302651584148407,9.806641578674316,-0.9266589283943176,-0.7379075884819031,0.2735599875450134
3994499538.0,-0.4619733989238739,0.3325930833816528,9.641561508178713,-0.9796804189682008,-0.7400081157684326,0.2120602428913116
3994507871.0,-0.4735968708992004,0.03744513168931,9.510141372680664,-1.1421003341674805,-1.1053694486618042,0.2060921341180801
3994516204.0,-0.2420665174722671,0.0216015856713056,9.605917930603027,-0.9691529273986816,-1.282107710838318,0.291336327791214
3994524537.0,-0.2566869258880615,0.3024508059024811,9.76767921447754,-0.8608560562133789,-0.6906494498252869,0.1663644462823867
3994532870.0,-0.4986318349838257,0.3808960318565368,9.738173484802246,-0.907422661781311,-0.4408081769943237,0.285880446434021
3994541203.0,-0.6366031765937805,0.1685137152671814,9.581518173217772,-1.1196879148483276,-0.9980970621109008,0.2549640834331512
3994549536.0,-0.4580871164798736,0.0573580935597419,9.623839378356934,-1.1653581857681274,-1.2375903129577637,0.1569640338420868
3994557869.0,-0.2949975430965423,0.2138413935899734,9.747150421142578,-1.0565999746322632,-1.0548326969146729,0.2089353054761886
3994566202.0,-0.3975049555301666,0.3083447515964508,9.706450462341309,-1.0227636098861694,-0.7668262720108032,0.3366991281509399
3994574535.0,-0.5275505781173706,0.155016615986824,9.5943021774292,-0.9871341586112976,-0.7953091859817505,0.2690775096416473
3994582868.0,-0.3555791079998016,-0.0021675750613212,9.56372356414795,-1.0936895608901978,-1.3089258670806885,0.2475616037845611
3994591201.0,-0.145488828420639,0.2129401415586471,9.723803520202637,-0.984956920146942,-1.0492230653762815,0.2792463898658752
3994599534.0,-0.2887674272060394,0.4016392827033996,9.796154975891112,-0.884715735912323,-0.6223747134208679,0.2503663599491119
3994607867.0,-0.5928993225097656,0.2394269704818725,9.63552951812744,-1.1654733419418335,-0.4745549261569977,0.2288759797811508
3994616200.0,-0.6500290036201477,-0.0763424038887023,9.50129222869873,-1.0704059600830078,-1.0886433124542236,0.207654595375061
3994624533.0,-0.4054803550243377,-0.005643593147397,9.6273832321167,-0.8469474911689758,-1.309028148651123,0.2956907451152801
3994632866.0,-0.2960847914218902,0.3410475552082062,9.792113304138184,-0.7609348297119141,-0.8614963293075562,0.2584988474845886
3994641199.0,-0.4534330070018768,0.4458366930484772,9.698081970214844,-0.9990959763526917,-0.5806363224983215,0.2613420486450195
3994649532.0,-0.5178014636039734,0.1879838705062866,9.574444770812988,-1.0389518737792969,-1.0414364337921145,0.2878527641296386
3994657865.0,-0.3274521827697754,-0.0297495275735855,9.557863235473633,-1.07137930393219,-1.4672473669052124,0.2787597179412842
3994666198.0,-0.174608051776886,0.1627700924873352,9.726407051086426,-0.9918984174728394,-0.9498910903930664,0.2511475384235382
3994674531.0,-0.3485294282436371,0.3511473536491394,9.754825592041016,-0.9010576605796814,-0.486901044845581,0.2509298622608185
3994682864.0,-0.627518892288208,0.2457359135150909,9.617040634155272,-0.9418866038322448,-0.6784954071044922,0.2058231681585312
3994691197.0,-0.5572773814201355,0.071494348347187,9.578136444091797,-1.1663697957992554,-1.201665997505188,0.200879618525505
3994699530.0,-0.3855811655521393,0.1615111976861953,9.699505805969238,-1.0225458145141602,-1.2230284214019775,0.228286862373352
3994707863.0,-0.357906699180603,0.3303255140781402,9.756721496582031,-1.0669225454330444,-0.7905192971229553,0.2695642113685608
3994716196.0,-0.4986032247543335,0.253396600484848,9.611446380615234,-1.089360594749451,-0.7971789240837097,0.1945144832134246
3994724529.0,-0.4571914374828338,0.0327074229717254,9.556779861450195,-1.113642930984497,-1.2526769638061523,0.3044251799583435
3994732862.0,-0.2100860029458999,0.0585241392254829,9.642873764038086,-1.001657485961914,-1.4625344276428225,0.2033514231443405
3994741195.0,-0.1613109111785888,0.3300679326057434,9.816997528076172,-0.921689748764038,-0.8136489391326904,0.1925934255123138
3994749528.0,-0.4332190752029419,0.3463478088378906,9.711565017700195,-1.0166417360305786,-0.3044635951519012,0.1542745381593704
3994757861.0,-0.6680182814598083,0.076492503285408,9.551398277282717,-1.075016736984253,-0.8296578526496887,0.2046321183443069
3994766194.0,-0.5075299739837646,-0.0778729990124702,9.549796104431152,-0.9479699730873108,-1.2981421947479248,0.2626996040344238
3994774527.0,-0.3115134537220001,0.1697941869497299,9.755955696105955,-0.9227144122123718,-1.139820575714111,0.2104465514421463
3994782860.0,-0.3262911736965179,0.4256086051464081,9.77968978881836,-0.902082085609436,-0.7052110433578491,0.1648147851228714
3994791193.0,-0.5349968671798706,0.3047969341278076,9.59974479675293,-0.9412975311279296,-0.8196298480033875,0.3140177130699157
3994799526.0,-0.4282049536705017,0.0162727180868387,9.532393455505373,-1.0657697916030884,-1.2127442359924316,0.1733827590942382
3994807859.0,-0.2087843269109726,0.06694345921278,9.677166938781738,-0.9805256128311156,-1.267917513847351,0.2855218648910522
3994816192.0,-0.2863926887512207,0.3110986053943634,9.76963233947754,-0.9264411926269532,-0.6924552321434021,0.1763412058353424
3994824525.0,-0.4922084212303161,0.3401464223861694,9.687711715698242,-1.0327788591384888,-0.5539206266403198,0.1976906657218933
3994832858.0,-0.599987804889679,0.1174710467457771,9.589959144592283,-1.0627472400665283,-0.9012496471405028,0.2557325065135956
3994841191.0,-0.4484188854694366,0.0629521682858467,9.642433166503906,-0.995894193649292,-1.147965908050537,0.3062950074672699
3994849524.0,-0.3463120460510254,0.2629885673522949,9.721385955810549,-0.9130065441131592,-0.8879558444023132,0.1929007917642593
3994857857.0,-0.4525746703147888,0.3257476091384887,9.702266693115234,-0.988209903240204,-0.681530773639679,0.2266347557306289
3994866190.0,-0.511342465877533,0.1370699256658554,9.548001289367676,-1.0146437883377075,-1.1382838487625122,0.1261501014232635
3994874523.0,-0.2933826446533203,0.0431263111531734,9.587173461914062,-1.0247102975845337,-1.4026739597320557,0.2395443171262741
3994882856.0,-0.1443443745374679,0.2523666024208069,9.74997615814209,-0.919153928756714,-1.0599298477172852,0.2060665190219879
3994891189.0,-0.3375211954116821,0.378349632024765,9.775904655456545,-1.111542582511902,-0.4166795611381531,0.2258663326501846
3994899522.0,-0.6136354207992554,0.172748178243637,9.617976188659668,-1.007753610610962,-0.5003612637519836,0.2826018631458282
3994907855.0,-0.5747382044792175,-0.0820432007312774,9.512228965759276,-1.0591870546340942,-1.1373872756958008,0.170360267162323
3994916188.0,-0.3509257137775421,0.0955261290073394,9.672674179077148,-0.9365716576576232,-1.1569565534591677,0.2182845026254654
3994924521.0,-0.3122573494911194,0.401396095752716,9.8252592086792,-0.8254827857017517,-0.8654153943061829,0.2579353749752044
3994932854.0,-0.4636758863925934,0.3651597797870636,9.686437606811523,-0.9828565716743468,-0.7201826572418213,0.2098574191331863
3994941187.0,-0.466279536485672,0.0677588805556297,9.536627769470217,-1.0548324584960938,-1.1641795635223389,0.2357021421194076
3994949520.0,-0.2739395797252655,-0.0030471112113445,9.588507652282717,-1.016936182975769,-1.1212118864059448,0.228081926703453
3994957853.0,-0.2414585202932357,0.2319309264421463,9.758352279663086,-0.9374296069145204,-0.7083615660667419,0.3024912774562835
3994966186.0,-0.4983600378036499,0.3737789690494537,9.715785026550291,-1.0562541484832764,-0.5001435279846191,0.1870479583740234
3994974519.0,-0.6478689312934875,0.2092277258634567,9.582226753234863,-1.201256275177002,-0.8278007507324219,0.228466123342514
3994982852.0,-0.5094326138496399,0.0734097063541412,9.616211891174316,-1.015360951423645,-1.27946937084198,0.1395463347434997
3994991185.0,-0.3437298536300659,0.228225752711296,9.719125747680664,-0.9678723812103271,-1.0865429639816284,0.1692844629287719
3994999518.0,-0.393341988325119,0.3188093602657318,9.718195915222168,-1.042537808418274,-0.6713362336158752,0.2264554351568222
3995007851.0,-0.4991826117038727,0.1537360548973083,9.592992782592772,-1.0502220392227173,-0.8061184287071228,0.2027878910303115
3995016184.0,-0.3331236541271209,0.0156274419277906,9.540395736694336,-1.113245964050293,-1.3259464502334597,0.196038544178009
3995024517.0,-0.1601020842790603,0.1946073919534683,9.72052764892578,-0.9572039842605592,-1.0563055276870728,0.2725738883018493
3995032850.0,-0.2795833647251129,0.4133268892765045,9.764337539672852,-1.0780134201049805,-0.5023847222328186,0.2988668978214264
3995041183.0,-0.5916330814361572,0.2540689706802368,9.620659828186035,-1.0725064277648926,-0.4839681684970855,0.2951528131961822
3995049516.0,-0.6664446592330933,-0.03034951351583,9.465614318847656,-1.08979594707489,-1.2014741897583008,0.2186943292617797
3995057849.0,-0.4336625635623932,0.0054433136247098,9.632490158081056,-0.9528878927230836,-1.2792389392852783,0.2579353451728821
3995066182.0,-0.3100328147411346,0.317293107509613,9.786177635192873,-0.827250063419342,-0.940516233444214,0.1707188785076141
3995074515.0,-0.4324966371059418,0.4176688194274902,9.749839782714844,-0.894871711730957,-0.6929802894592285,0.2956138551235199
3995082848.0,-0.4715726375579834,0.1826764494180679,9.603263854980469,-1.083213210105896,-1.0913074016571045,0.2662087678909302
3995091181.0,-0.2886451184749603,0.0031477170996367,9.584113121032717,-1.0786538124084473,-1.2810574769973757,0.2991742491722107
3995099514.0,-0.1941639184951782,0.1940852403640747,9.709311485290527,-0.9234827756881714,-0.922560691833496,0.192977637052536
3995107847.0,-0.4013388752937317,0.35701984167099,9.763108253479004,-0.8871105909347534,-0.4162441194057464,0.2511731684207916
3995116180.0,-0.6088285446166992,0.2350209653377533,9.656752586364746,-1.015360951423645,-0.6909055709838867,0.2199494242668151
3995124513.0,-0.529925525188446,0.0757486075162887,9.586997985839844,-1.0967631340026855,-1.1010663509368896,0.2640059292316437
3995132846.0,-0.3604316711425781,0.1899009346961975,9.686866760253906,-0.9526317715644836,-1.0713025331497192,0.2594721913337707
3995141179.0,-0.3592299222946167,0.3557396829128265,9.748581886291504,-1.0226353406906128,-0.7429280281066895,0.2601637840270996
3995149512.0,-0.5160704851150513,0.2583535313606262,9.62745475769043,-1.1730936765670776,-0.7824764847755432,0.2166195660829544
3995157845.0,-0.4233624041080475,0.0438542440533638,9.55562686920166,-1.0531036853790283,-1.2588372230529783,0.3431666791439056
3995166178.0,-0.1872829794883728,0.1307609677314758,9.683660507202148,-0.9859302639961244,-1.2483994960784912,0.3358282148838043
3995174511.0,-0.22201007604599,0.3712252378463745,9.791017532348633,-0.8696929216384888,-0.5879875421524048,0.2630837857723236
3995182844.0,-0.5017075538635254,0.3323067724704742,9.68163776397705,-1.0703805685043335,-0.4417558908462524,0.2311428338289261
3995191177.0,-0.6782969236373901,0.0227245818823575,9.530097007751465,-1.0827522277832031,-0.825764536857605,0.1724862605333328
3995199510.0,-0.4814578592777252,0.0072386772371828,9.619100570678713,-0.8911833763122559,-1.2590806484222412,0.2890310287475586
3995207843.0,-0.3346744477748871,0.2561790347099304,9.759316444396973,-0.9515048265457152,-0.9726108312606812,0.1771736741065979
3995216176.0,-0.386839896440506,0.4288846552371979,9.76694393157959,-0.9964705109596252,-0.5999109745025635,0.2730861604213714
3995224509.0,-0.4928809404373169,0.2402496933937072,9.602599143981934,-1.1702502965927124,-0.9129809141159058,0.2442829757928848
3995232842.0,-0.3675702810287475,-0.0090197352692484,9.544002532958984,-1.1344929933547974,-1.1904600858688354,0.1521997898817062
3995241175.0,-0.1956017315387725,0.1162121593952179,9.681687355041504,-0.9814221262931824,-1.0207655429840088,0.2361888289451599
3995249508.0,-0.3334297835826874,0.3567551970481872,9.754088401794434,-0.9511206150054932,-0.6141397953033447,0.0564793944358825
3995257841.0,-0.580167293548584,0.2742899060249328,9.682180404663086,-0.9692041873931884,-0.641111433506012,0.2337554842233657
3995266174.0,-0.5497530698776245,0.0597478337585926,9.58189868927002,-1.167048454284668,-1.1373616456985474,0.2893384099006653
3995274507.0,-0.397018551826477,0.1007120311260223,9.68515682220459,-1.0631059408187866,-1.1940971612930298,0.3150038421154022
3995282840.0,-0.3619910776615143,0.2559716403484344,9.730355262756348,-0.952170729637146,-0.8648774027824402,0.185728833079338
3995291173.0,-0.4905991852283478,0.2170100957155227,9.63339138031006,-1.0598530769348145,-0.735192596912384,0.2317319959402084
3995299506.0,-0.4749845266342163,0.0266085751354694,9.544059753417969,-1.0704315900802612,-1.1846967935562134,0.2252515852451324
3995307839.0,-0.2529959678649902,0.0488039441406726,9.654027938842772,-1.0619789361953735,-1.179189682006836,0.2115479558706283
3995316172.0,-0.1752305328845977,0.2745760083198547,9.75294303894043,-0.9750441908836364,-0.7667236924171448,0.3021455109119415
3995324505.0,-0.4135773777961731,0.3028585314750671,9.710528373718262,-0.9650419354438782,-0.4084445834159851,0.1554655879735946
3995332838.0,-0.6237637400627136,0.0413362085819244,9.574136734008787,-1.0063064098358154,-0.8100245594978333,0.2051315903663635
3995341171.0,-0.499661922454834,-0.0708489939570427,9.554645538330078,-1.0426530838012695,-1.176692247390747,0.1446307748556137
3995349504.0,-0.3466267585754394,0.1516474187374115,9.734447479248049,-0.8320655822753906,-1.1155383586883545,0.2645694315433502
3995357837.0,-0.3840075135231018,0.4040068686008453,9.822941780090332,-0.7979729771614075,-0.7675689458847046,0.2405688911676406
3995366170.0,-0.541484534740448,0.2425171434879303,9.651524543762209,-1.046123743057251,-0.8040436506271362,0.1902881413698196
3995374503.0,-0.4100653231143951,0.0061729033477604,9.554803848266602,-1.0479167699813845,-1.2050601243972778,0.2265066653490066
3995382836.0,-0.2330897003412246,0.0992170870304107,9.65640926361084,-0.8562454581260681,-1.1915613412857056,0.1921835988759994
3995391169.0,-0.3196104764938354,0.3284084796905517,9.722129821777344,-0.8785809874534607,-0.623719334602356,0.3158747255802154
3995399502.0,-0.567706823348999,0.3119783997535705,9.670586585998535,-0.9422836303710938,-0.6045343279838562,0.1737413555383682
3995407835.0,-0.6008816957473755,0.1234938353300094,9.579645156860352,-1.0193312168121338,-0.937519371509552,0.1912102550268173
3995416168.0,-0.4361733198165893,0.1049106568098068,9.63263988494873,-1.0342388153076172,-1.162694215774536,0.2175929099321365
3995424501.0,-0.3895009160041809,0.2919575870037079,9.741148948669434,-1.0678702592849731,-0.8694111704826355,0.2606248259544372
3995432834.0,-0.5117787718772888,0.3028084635734558,9.67280387878418,-0.9413103461265564,-0.770540177822113,0.2015328109264373
3995441167.0,-0.4935103952884674,0.1378352791070938,9.536849975585938,-0.9805256128311156,-1.117817997932434,0.2612908184528351
3995449500.0,-0.2404394596815109,0.0873738154768943,9.627484321594238,-1.0264778137207031,-1.352521300315857,0.2311428636312484
3995457833.0,-0.1200391203165054,0.3165489733219147,9.791454315185549,-0.9863145351409912,-0.921203076839447,0.3398752212524414
3995466166.0,-0.3339088559150696,0.370681881904602,9.75278091430664,-1.031241774559021,-0.3942670822143554,0.2021731436252594
3995474499.0,-0.5999518632888794,0.1196026876568794,9.555190086364746,-1.076374053955078,-0.6567617058753967,0.3613656163215637
3995482832.0,-0.5499461889266968,-0.0444047041237354,9.504576683044434,-1.050734281539917,-1.2293936014175415,0.2922584116458893
3995491165.0,-0.3265416920185089,0.1873614490032196,9.736570358276367,-0.8331413865089417,-1.0954054594039917,0.3244298994541168
3995499498.0,-0.3615834712982178,0.4459438621997833,9.806782722473145,-0.7783012986183167,-0.8476133346557617,0.2204873263835907
3995507831.0,-0.4735539555549621,0.3470487892627716,9.669671058654783,-0.9431544542312622,-0.842644214630127,0.3047325313091278
3995516164.0,-0.4242556393146515,0.0571755170822143,9.506970405578612,-1.1318289041519165,-1.294914722442627,0.2119065523147583
3995524497.0,-0.2031335830688476,0.0940098166465759,9.674420356750488,-1.0940223932266235,-1.1345183849334717,0.2341397106647491
3995532830.0,-0.2551633715629577,0.3238306641578674,9.735312461853027,-0.9202042818069458,-0.6235913634300232,0.2593953907489776
3995541163.0,-0.488482117652893,0.3635287582874298,9.682051658630373,-1.0094441175460815,-0.434250921010971,0.2661062777042389
3995549496.0,-0.5974913835525513,0.170659601688385,9.592612266540527,-1.0886434316635132,-0.94545978307724,0.2209227383136749
3995557829.0,-0.4513445198535919,0.1299169957637787,9.641681671142578,-1.100707769393921,-1.101706862449646,0.2428229600191116
3995566162.0,-0.3533075153827667,0.2719153165817261,9.742115020751951,-1.055050253868103,-0.961506962776184,0.2570004165172577
3995574495.0,-0.4755282700061798,0.2842682301998138,9.678389549255373,-1.066205382347107,-0.834396481513977,0.211266204714775
3995582828.0,-0.505226731300354,0.0976649150252342,9.562320709228516,-1.1945326328277588,-0.9945366978645324,0.2233817428350448
3995591161.0,-0.289025217294693,0.0522354617714881,9.622509002685549,-1.107585072517395,-1.2402156591415403,0.3172707259654999
3995599494.0,-0.1674981266260147,0.2437831908464431,9.762372016906738,-1.0985945463180542,-0.9002634286880493,0.2014431655406952
3995607827.0,-0.3912821412086487,0.3413263857364654,9.74406623840332,-1.0678958892822266,-0.5092750191688538,0.2540163993835449
3995616160.0,-0.626596212387085,0.1340371221303939,9.569345474243164,-1.1741180419921875,-0.7079902291297913,0.2542724907398224
3995624493.0,-0.5676567554473877,-0.0890385881066322,9.530125617980955,-1.1108253002166748,-1.1105948686599731,0.2409275025129318
3995632826.0,-0.359158456325531,0.0764282420277595,9.702574729919434,-0.963005542755127,-1.209619402885437,0.2306817919015884
3995641159.0,-0.3225359320640564,0.3615405857563019,9.78316593170166,-0.9776568412780762,-0.7791721224784851,0.1333477050065994
3995649492.0,-0.4704496264457702,0.2991175949573517,9.686959266662598,-0.9750954508781432,-0.69976806640625,0.2318344116210937
3995657825.0,-0.4309374094009399,0.0147419068962335,9.56127643585205,-1.0461751222610474,-1.2287534475326538,0.2044015973806381
3995666158.0,-0.2346348166465759,0.0140123199671506,9.616252899169922,-1.060877561569214,-1.161823034286499,0.2320137321949005
3995674491.0,-0.2652059495449066,0.2577097713947296,9.748087882995604,-0.9471758604049684,-0.7376771569252014,0.3144147098064422
3995682824.0,-0.5102123022079468,0.306670993566513,9.721908569335938,-0.9023510217666626,-0.5020261406898499,0.2507633566856384
3995691157.0,-0.6071905493736267,0.0762707665562629,9.61392879486084,-1.0306271314620972,-0.9188721776008606,0.2095500528812408
3995699490.0,-0.429656982421875,0.0443690866231918,9.640716552734377,-1.031805396080017,-1.1620280742645264,0.3264534175395965
3995707823.0,-0.3634216487407684,0.2169671803712844,9.744138717651367,-0.8422857522964478,-0.9135444164276124,0.3259154856204986
3995716156.0,-0.4395422041416168,0.2690971195697784,9.68032169342041,-0.9239181876182556,-0.7806321382522583,0.2349081337451934
3995724489.0,-0.5206412076950073,0.1288798600435257,9.5768404006958,-1.0198434591293335,-0.980884313583374,0.1736388951539993
3995732822.0,-0.2971362173557281,0.0104503808543086,9.602042198181152,-0.9597014784812928,-1.333156943321228,0.1439263820648193
3995741155.0,-0.1392157822847366,0.2073537707328796,9.73320198059082,-0.9529136419296264,-0.9929487109184264,0.2123932540416717
3995749488.0,-0.316133975982666,0.3542160987854004,9.73737335205078,-0.9243536591529846,-0.4035394489765167,0.3870054483413696
3995757821.0,-0.6036999225616455,0.156661570072174,9.600109100341797,-1.101091980934143,-0.64139324426651,0.2233304977416992
3995766154.0,-0.6072620749473572,-0.0804909393191337,9.491006851196287,-0.9883891940116882,-1.1663825511932373,0.2780168950557709
3995774487.0,-0.3983848094940185,0.0897251963615417,9.69149398803711,-0.8036851286888123,-1.230008602142334,0.139879360795021
3995782820.0,-0.3335157334804535,0.3774411082267761,9.806303977966309,-0.8292863965034485,-0.7566956877708435,0.2094347923994064
3995791153.0,-0.4975660741329193,0.3601671159267425,9.683354377746582,-1.0429731607437134,-0.7271496653556824,0.2985338866710663
3995799486.0,-0.4580323100090027,0.0938381478190422,9.548802375793455,-1.0905901193618774,-1.1237093210220337,0.2048370391130447
3995807819.0,-0.2473023235797882,0.0559925511479377,9.577621459960938,-0.9200505018234252,-1.1696099042892456,0.2258919477462768
3995816152.0,-0.2292414605617523,0.2927014827728271,9.73345947265625,-0.8739191293716431,-0.8331157565116882,0.3048862218856811
3995824485.0,-0.4461085200309753,0.3939142227172851,9.671022415161133,-0.8949229121208191,-0.605763852596283,0.2069886326789856
3995832818.0,-0.6075769066810608,0.2266377657651901,9.635937690734863,-0.9688584208488464,-0.9367636442184448,0.1892251372337341
3995841151.0,-0.4862717092037201,0.113308347761631,9.60948085784912,-0.9437822103500366,-1.2901633977890017,0.3235462009906769
3995849484.0,-0.3452104926109314,0.2532750070095062,9.722867012023926,-0.9641838669776917,-0.926684558391571,0.2307330220937729
3995857817.0,-0.4408724904060364,0.3734358251094818,9.723875999450684,-1.035391330718994,-0.740187406539917,0.2634680271148681
3995866150.0,-0.524589478969574,0.212925836443901,9.620588302612305,-1.0986840724945068,-0.990054190158844,0.3184361457824707
3995874483.0,-0.3409596383571625,0.0922381207346916,9.585711479187012,-1.011518955230713,-1.353801965713501,0.2230999767780304
3995882816.0,-0.1655954718589782,0.2577240765094757,9.735577583312988,-0.9858790040016174,-1.150015115737915,0.3406949341297149
3995891149.0,-0.2880378365516662,0.4258444905281067,9.810925483703612,-1.0369282960891724,-0.5223894715309143,0.3147989511489868
3995899482.0,-0.5703033208847046,0.2839106321334839,9.62651824951172,-1.1940460205078125,-0.5720811486244202,0.2929756045341491
3995907815.0,-0.6307591795921326,-0.0051715052686631,9.504032135009766,-1.0957385301589966,-1.000658631324768,0.2354460656642913
3995916148.0,-0.3932418525218963,0.0899183899164199,9.69497776031494,-1.0196387767791748,-1.1911261081695557,0.2381867915391922
3995924481.0,-0.3215773999691009,0.3654890358448028,9.800976753234863,-0.9269536137580872,-0.789738118648529,0.2494954764842987
3995932814.0,-0.45246022939682,0.4044718146324157,9.750454902648926,-1.0073693990707395,-0.8099092841148376,0.2525563538074493
3995941147.0,-0.4701849818229675,0.1303247958421707,9.569173812866213,-1.1729910373687744,-1.1005027294158936,0.264185220003128
3995949480.0,-0.3062775731086731,0.037931527942419,9.574881553649902,-0.9941524863243104,-1.2146399021148682,0.2862390577793121
3995957813.0,-0.2321742326021194,0.252810001373291,9.714826583862305,-1.0542051792144775,-0.8100758194923401,0.2739314436912536
3995966146.0,-0.4017680287361145,0.3687791228294372,9.740991592407228,-0.8697441220283508,-0.5130402445793152,0.1838333755731582
3995974479.0,-0.5925413966178894,0.1957233250141143,9.634543418884276,-1.2247830629348757,-0.8273269534111023,0.2807576358318329
3995982812.0,-0.471966028213501,0.0543186888098716,9.582613945007324,-1.1950448751449585,-1.1677402257919312,0.1567078828811645
3995991145.0,-0.3475996851921081,0.1521480083465576,9.724225044250488,-1.0284755229949951,-0.9405930638313292,0.3428209125995636
3995999478.0,-0.4255655407905578,0.2952049672603607,9.660765647888184,-1.1498101949691772,-0.7580916881561279,0.3030932247638702
3996007811.0,-0.5792227983474731,0.1680418252944946,9.568537712097168,-1.098991632461548,-0.8727666139602661,0.2481251209974289
3996016144.0,-0.4144745171070099,-0.0028084167279303,9.53328800201416,-1.1436628103256226,-1.3934017419815063,0.226276159286499
3996024477.0,-0.1728983968496322,0.1421914994716644,9.705564498901367,-1.0263495445251465,-1.125809669494629,0.3475083112716675
3996032810.0,-0.1992279291152954,0.3352038562297821,9.789976119995115,-1.0171539783477783,-0.6561726331710815,0.3205877542495727
3996041143.0,-0.5141820907592773,0.190029576420784,9.618642807006836,-1.09576416015625,-0.4957763254642486,0.2422338426113128
3996049476.0,-0.6131917834281921,-0.091978408396244,9.48774528503418,-1.2817106246948242,-0.9264668226242064,0.2553355097770691
3996057809.0,-0.4163312315940857,-0.0478382147848606,9.604851722717283,-1.002079963684082,-1.2641392946243286,0.2624306380748749
3996066142.0,-0.3439659178256988,0.2644549012184143,9.784209251403809,-0.8617653250694275,-0.8215253353118896,0.2377897351980209
3996074475.0,-0.4588048160076141,0.3731495141983032,9.716872215270996,-0.8394680619239807,-0.7140608429908752,0.2451025992631912
3996082808.0,-0.4997976720333099,0.1197387054562568,9.609122276306152,-1.0686641931533811,-1.0684847831726074,0.2556300461292267
3996091141.0,-0.299660712480545,-0.0606791228055954,9.54018783569336,-1.0658724308013916,-1.3455030918121338,0.2747127115726471
3996099474.0,-0.1802731901407241,0.1202749833464622,9.715133666992188,-0.8815779089927673,-0.9779898524284364,0.23570217192173
3996107807.0,-0.357492059469223,0.3127865791320801,9.715819358825684,-0.9492507576942444,-0.5469022989273071,0.1944632679224014
3996116140.0,-0.5610260963439941,0.2238482236862182,9.654170989990234,-1.052348017692566,-0.635066568851471,0.249738797545433
3996124473.0,-0.5054485201835632,0.0597190856933593,9.629114151000977,-1.0509392023086548,-1.0473275184631348,0.1244595646858215
3996132806.0,-0.3470416367053985,0.1625197380781173,9.725642204284668,-0.9462410807609558,-1.0488260984420776,0.2345623821020126
3996141139.0,-0.4209305047988891,0.2790252566337585,9.704891204833984,-0.962352454662323,-0.7771870493888855,0.2209868282079696
3996149472.0,-0.5641447901725769,0.214477926492691,9.631037712097168,-1.0046415328979492,-0.93658447265625,0.23750801384449
3996157805.0,-0.4721877872943878,0.0316012613475322,9.57278537750244,-0.9982508420944214,-1.2785216569900513,0.0993576198816299
3996166138.0,-0.1976688206195831,0.1491081714630127,9.73247241973877,-0.8515836000442505,-1.2100036144256592,0.1382912546396255
3996174471.0,-0.2324601113796234,0.3831493556499481,9.78014087677002,-0.90381121635437,-0.7220525145530701,0.2368804663419723
3996182804.0,-0.5103697776794434,0.3444736301898956,9.68074893951416,-1.0388493537902832,-0.4674213826656341,0.20785953104496
3996191137.0,-0.6739694476127625,0.044397696852684,9.512165069580078,-0.9757615923881532,-0.8221273422241211,0.2066044360399246
3996199470.0,-0.4499495923519134,0.0175602287054061,9.60956573486328,-0.8993541598320007,-1.2665855884552002,0.1566566675901413
3996207803.0,-0.3130083978176117,0.2743687629699707,9.752279281616213,-0.9886197447776794,-0.9675905704498292,0.1291213631629943
3996216136.0,-0.3865610957145691,0.4600565433502197,9.763273239135742,-0.988107442855835,-0.6469002962112427,0.2304768711328506
3996224469.0,-0.4841974079608917,0.2588542401790619,9.628527641296388,-1.0607237815856934,-0.9917447566986084,0.1874705851078033
3996232802.0,-0.364759236574173,0.0560568310320377,9.57917308807373,-1.0408726930618286,-1.291584849357605,0.2528637051582336
3996241135.0,-0.2486471235752105,0.1932555139064788,9.702366828918455,-0.9215104579925536,-1.0142852067947388,0.2680017650127411
3996249468.0,-0.3744298815727234,0.397719532251358,9.747200965881348,-0.9312695264816284,-0.5798678398132324,0.2657220661640167
3996257801.0,-0.5875487923622131,0.3237306177616119,9.651124000549316,-1.153178572654724,-0.6930955648422241,0.2208331227302551
3996266134.0,-0.5420638918876648,0.1231361925601959,9.585367202758787,-1.1071113348007202,-1.1018604040145874,0.200303316116333
3996274467.0,-0.354609340429306,0.1576915830373764,9.666058540344238,-1.0276559591293335,-1.0762717723846436,0.2480738908052444
3996282800.0,-0.3526279926300049,0.3327073454856872,9.722845077514648,-1.1663057804107666,-0.8516349792480469,0.1567847430706024
3996291133.0,-0.4908137917518616,0.3118639588356018,9.665851593017578,-1.1154358386993408,-0.8175935745239258,0.2280947566032409
3996299466.0,-0.4582111239433288,0.0716571807861328,9.569259643554688,-1.0609288215637207,-1.1300616264343262,0.2030952721834182
3996307799.0,-0.217355266213417,0.1248570755124092,9.628880500793455,-1.0840840339660645,-1.2741928100585938,0.3069353699684143
3996316132.0,-0.1863244026899337,0.3558467924594879,9.751313209533691,-0.9675393104553224,-0.9205371737480164,0.2928731441497803
3996324465.0,-0.4786753952503204,0.3446025252342224,9.715341567993164,-1.1229920387268066,-0.5079431533813477,0.2698715627193451
3996332798.0,-0.6455439329147339,0.048131588846445,9.537858963012695,-1.1438933610916138,-0.9036318063735962,0.2897994220256805
3996341131.0,-0.4963572323322296,-0.0590395666658878,9.574931144714355,-1.0353403091430664,-1.2427387237548828,0.2668234705924988
3996349464.0,-0.3003121018409729,0.2020678073167801,9.781412124633787,-0.921382486820221,-1.0663334131240845,0.2516598701477051
3996357797.0,-0.3245532512664795,0.4244352281093597,9.797097206115724,-0.9447169899940492,-0.691340982913971,0.2678224146366119
3996366130.0,-0.5059135556221008,0.2548056542873382,9.65173053741455,-1.230674386024475,-0.7788392901420593,0.2173624038696289
3996374463.0,-0.3815848529338836,-0.0201376695185899,9.531394958496094,-1.209517002105713,-1.2239378690719604,0.2573974728584289
3996382796.0,-0.1989849358797073,0.0437181778252124,9.656145095825195,-1.0112627744674685,-1.0731210708618164,0.1719227284193039
3996391129.0,-0.2969718873500824,0.2997969686985016,9.77292823791504,-1.0223792791366575,-0.5844016075134277,0.1976906806230545
3996399462.0,-0.5445459485054016,0.3057339787483215,9.653727531433104,-1.0511057376861572,-0.5001435279846191,0.2788493633270263
3996407795.0,-0.6040647625923157,0.0926364660263061,9.596540451049805,-1.1504889726638794,-1.009866714477539,0.2591263949871063
3996416128.0,-0.4213884174823761,0.0691750049591064,9.642961502075195,-1.1736314296722412,-1.143073558807373,0.3156954348087311
3996424461.0,-0.3531716167926788,0.2405715733766555,9.732980728149414,-0.965772032737732,-0.825815737247467,0.2445647120475769
3996432794.0,-0.5017218589782715,0.2792040705680847,9.67855453491211,-1.065718650817871,-0.7207717299461365,0.2232024371623993
3996441127.0,-0.5449250340461731,0.0603342317044734,9.56498908996582,-1.0713281631469729,-1.129933476448059,0.1753550618886947
3996449460.0,-0.2959608137607574,0.0287032909691333,9.621140480041504,-0.9857637286186218,-1.4957687854766846,0.2708961069583893
3996457793.0,-0.1496875435113906,0.245600014925003,9.714447975158691,-0.9151581525802612,-0.9707154631614684,0.2189504653215408
3996466126.0,-0.3343523740768432,0.3681998550891876,9.761249542236328,-1.0141315460205078,-0.5120669603347778,0.160729318857193
3996474459.0,-0.6308949589729309,0.1136802062392234,9.60229206085205,-1.1193548440933228,-0.7067350745201111,0.2585244476795196
3996482792.0,-0.5864687561988831,-0.1502597779035568,9.504597663879396,-0.9112391471862792,-1.2166121006011963,0.203069657087326
3996491125.0,-0.3665689826011657,0.0585316158831119,9.687981605529783,-0.8945387005805969,-1.108315110206604,0.2362656891345977
3996499458.0,-0.3475494980812073,0.3835354447364807,9.78146266937256,-0.756618857383728,-0.7564651966094971,0.2374823689460754
3996507791.0,-0.5267782807350159,0.3819832801818847,9.691179275512695,-0.9066030383110046,-0.7297368049621582,0.1939765810966491
3996516124.0,-0.4894189834594726,0.0734382420778274,9.54983901977539,-1.0376968383789062,-1.1541903018951416,0.1815024614334106
3996524457.0,-0.2579243779182434,0.0185187105089426,9.595602989196776,-1.027937650680542,-1.2506533861160278,0.1485113054513931
3996532790.0,-0.2083623111248016,0.2610358595848083,9.71627140045166,-0.894372284412384,-0.748857855796814,0.1941175013780594
3996541123.0,-0.4276325702667236,0.3755887448787689,9.6754732131958,-0.9141080379486084,-0.4486973881721496,0.2341141253709793
3996549456.0,-0.6023694276809692,0.1922827810049057,9.618779182434082,-1.0772706270217896,-0.8664142489433289,0.1738950312137603
3996557789.0,-0.4665370881557464,0.0785596221685409,9.62537956237793,-1.0449711084365845,-1.189845323562622,0.0868322625756263
3996566122.0,-0.3283226490020752,0.2304431349039077,9.73306655883789,-0.9501472115516664,-0.9469711780548096,0.2212813645601272
3996574455.0,-0.4433761239051819,0.3511974215507507,9.711830139160156,-0.983855664730072,-0.6688516736030579,0.236777976155281
3996582788.0,-0.5512338280677795,0.1915602833032608,9.600781440734863,-1.0917171239852903,-0.880220353603363,0.1621124893426895
3996591121.0,-0.3926661908626556,0.0342226512730121,9.569751739501951,-1.0991196632385254,-1.2860268354415894,0.188853770494461
3996599454.0,-0.1720187216997146,0.2095926105976104,9.712531089782717,-0.9860839247703552,-1.193738579750061,0.2369572669267654
3996607787.0,-0.2324101775884628,0.4132483601570129,9.797471046447754,-0.9656054377555848,-0.5001692175865173,0.2890182435512543
3996616120.0,-0.5513554215431213,0.3060129284858703,9.649256706237791,-1.126501202583313,-0.5117340087890625,0.2717157900333404
3996624453.0,-0.6485553979873657,-0.0049855313263833,9.498875617980955,-1.1804447174072266,-1.0808310508728027,0.3295015096664428
3996632786.0,-0.4102513194084167,0.0364008173346519,9.611196517944336,-0.9743526577949524,-1.184056520462036,0.1793508827686309
3996641119.0,-0.30617755651474,0.3436223566532135,9.81214714050293,-0.8636863231658936,-0.8452953100204468,0.2756731808185577
3996649452.0,-0.4335552752017975,0.4598205089569092,9.729490280151367,-0.9767860174179076,-0.6041758060455322,0.2042735069990158
3996657785.0,-0.5053984522819519,0.2327034324407577,9.61244773864746,-1.0300122499465942,-0.9904126524925232,0.1264830827713012
3996666118.0,-0.3175892829895019,0.0135487336665391,9.563023567199709,-1.070918321609497,-1.301805019378662,0.3866468667984009
3996674451.0,-0.2070534527301788,0.1927332580089569,9.691815376281738,-0.9618529677391052,-1.0588284730911257,0.2763007581233978
3996682784.0,-0.3778632283210754,0.3607250154018402,9.756628036499023,-0.9028376936912536,-0.4986451268196106,0.2407994419336319
3996691117.0,-0.6047871708869934,0.2583821415901184,9.682896614074709,-1.0922805070877075,-0.6901627779006958,0.1826294958591461
3996699450.0,-0.586146891117096,0.0514933168888092,9.577828407287598,-1.1296005249023438,-1.0921012163162231,0.1701553463935852
3996707783.0,-0.3759820461273193,0.1526130586862564,9.709254264831545,-1.0738128423690796,-1.1790872812271118,0.3204084634780884
3996716116.0,-0.3682140409946441,0.3264700472354889,9.726407051086426,-1.031369924545288,-0.8066819310188293,0.2415422201156616
3996724449.0,-0.5269140601158142,0.2750340402126312,9.635946273803713,-1.0798577070236206,-0.7591674327850342,0.2807576358318329
3996732782.0,-0.4539951682090759,0.0340104401111602,9.54901123046875,-1.1163707971572876,-1.2265889644622805,0.3009544610977173
3996741115.0,-0.2183977514505386,0.0668218582868576,9.664299011230469,-1.0380425453186035,-1.2645747661590576,0.1983694583177566
3996749448.0,-0.1774406880140304,0.3192383646965027,9.801153182983398,-0.943193018436432,-0.7834113240242004,0.2135586738586425
3996757781.0,-0.482437789440155,0.3203257620334625,9.731342315673828,-1.0887458324432373,-0.5259754657745361,0.1846017837524414
3996766114.0,-0.6566810607910156,0.0447338782250881,9.537886619567873,-1.1563929319381714,-0.8715883493423462,0.1507141590118408
3996774447.0,-0.5084695219993591,-0.0691234841942787,9.567549705505373,-1.149029016494751,-1.26201331615448,0.237892210483551
3996782780.0,-0.3078440427780151,0.1824761778116226,9.73888874053955,-0.8483306169509888,-1.2010642290115356,0.173715740442276
3996791113.0,-0.3636219203472137,0.4098578989505768,9.771148681640623,-0.9074738621711732,-0.8157236576080322,0.2040686011314392
3996799446.0,-0.5206912159919739,0.2307721674442291,9.624528884887695,-1.1257200241088867,-0.7732168436050415,0.2315142601728439
3996807779.0,-0.4055090546607971,-0.0153715582564473,9.532435417175291,-1.1310988664627075,-1.2220038175582886,0.1932721883058548
3996816112.0,-0.1901226490736007,0.0682809278368949,9.677202224731444,-0.9454469680786132,-1.2088638544082642,0.2544901967048645
3996824445.0,-0.2737607657909393,0.3395955264568329,9.734790802001951,-0.8780303001403809,-0.6542388200759888,0.2338963896036148
3996832778.0,-0.5338739156723022,0.3026439249515533,9.661166191101074,-1.127666711807251,-0.5323150157928467,0.2497003525495529
3996841111.0,-0.6129629015922546,0.0763637498021125,9.562249183654783,-1.1330329179763794,-1.0371077060699463,0.2054774165153503
3996849444.0,-0.4077916145324707,0.0730427056550979,9.629284858703612,-1.113822102546692,-1.2626150846481323,0.2213838249444961
3996857777.0,-0.3416126370429992,0.2521234154701233,9.745405197143556,-0.9790914058685304,-0.7848585844039917,0.273201435804367
3996866110.0,-0.4617231786251068,0.3071502149105072,9.69788932800293,-1.053577542304993,-0.6643692255020142,0.2076289802789688
3996874443.0,-0.4913645386695862,0.1230217441916465,9.569695472717283,-1.120405197143555,-1.010725021362305,0.3221246004104614
3996882776.0,-0.2863211035728454,0.0337993502616882,9.617974281311035,-0.9829078912734984,-1.3396886587142944,0.2422082275152206
3996891109.0,-0.1423557698726654,0.231845274567604,9.753066062927246,-0.874213695526123,-0.9290538430213928,0.2279538810253143
3996899442.0,-0.3291950821876526,0.3705388605594635,9.761714935302734,-1.0200612545013428,-0.447531908750534,0.2808728814125061
3996907775.0,-0.6393855810165405,0.1774476766586303,9.579422950744627,-1.2231308221817017,-0.582877516746521,0.1936051696538925
3996916108.0,-0.6049587726593018,-0.0771290138363838,9.52617073059082,-0.8910295367240906,-1.208594799041748,0.1727167814970016
3996924441.0,-0.3612115085124969,0.1254107058048248,9.692115783691406,-0.7647513747215271,-1.1989127397537231,0.2032489627599716
3996932774.0,-0.3152329325675964,0.4355151355266571,9.828471183776855,-0.8538120985031128,-0.7517393231391907,0.2928219139575958
3996941107.0,-0.5003413558006287,0.3968969583511352,9.68921947479248,-0.9538100957870485,-0.7185177206993103,0.2314502149820327
3996949440.0,-0.4831744432449341,0.0922789499163627,9.549932479858398,-1.011365294456482,-1.1810595989227295,0.271075427532196
3996957773.0,-0.2394986450672149,0.0209721364080905,9.62040901184082,-0.9380059838294984,-1.1838514804840088,0.208525463938713
3996966106.0,-0.1972827017307281,0.2783599495887756,9.73735809326172,-0.8444373607635498,-0.7298904657363892,0.2477921098470688
3996974439.0,-0.4459368288516998,0.4165672659873962,9.706686973571776,-0.9253782629966736,-0.5081223845481873,0.193822905421257
3996982772.0,-0.6487557291984558,0.2258510142564773,9.62143898010254,-1.04655921459198,-0.8452568650245667,0.2148521989583969
3996991105.0,-0.5066143870353699,0.050871018320322,9.635516166687012,-1.0984410047531128,-1.1317137479782104,0.2304640561342239
3996999438.0,-0.3666046559810638,0.2094781547784805,9.708124160766602,-1.0101101398468018,-1.0375686883926392,0.2202824354171753
3997007771.0,-0.4233696162700653,0.36960169672966,9.709311485290527,-0.9818575382232666,-0.6463623642921448,0.2341397106647491
3997016104.0,-0.5548962354660034,0.2290697246789932,9.590266227722168,-1.0753239393234253,-0.9067566990852356,0.2507633566856384
3997024437.0,-0.4003088474273681,0.0561497434973716,9.56985855102539,-1.033854603767395,-1.302266240119934,0.1293775141239166
3997032770.0,-0.1774406880140304,0.1668542474508285,9.704497337341309,-1.003373622894287,-1.218430757522583,0.298098474740982
3997041103.0,-0.2366160452365875,0.3836856484413147,9.797935485839844,-0.9975847601890564,-0.551999568939209,0.2932317554950714
3997049436.0,-0.5546241402626038,0.2613221108913421,9.64070987701416,-1.12014901638031,-0.4568170309066772,0.2599332630634308
3997057769.0,-0.675299882888794,-0.0416366979479789,9.514904975891112,-1.1867713928222656,-0.9850592613220216,0.1480246484279632
3997066102.0,-0.4231192767620086,0.0018597391899675,9.627511978149414,-1.0159246921539309,-1.2692238092422483,0.1706164181232452
3997074435.0,-0.2642760872840881,0.3153330683708191,9.78244972229004,-0.9065518379211426,-0.9942805767059326,0.2137251794338226
3997082768.0,-0.3993289172649383,0.4220034182071686,9.750926971435549,-1.0715843439102173,-0.7610630393028259,0.341617077589035
3997091101.0,-0.5056058764457703,0.1878479570150375,9.582134246826172,-1.097019076347351,-1.05127215385437,0.3258130550384521
3997099434.0,-0.3444946110248565,-0.0499054118990898,9.551862716674805,-1.1705834865570068,-1.3410203456878662,0.3622108995914459
3997107767.0,-0.2018603831529617,0.1434931755065918,9.709111213684082,-0.9786302447319032,-1.0796271562576294,0.3057058751583099
3997116100.0,-0.3598882555961609,0.3894864916801452,9.742786407470703,-0.8723055720329285,-0.4747982621192932,0.2072959840297699
3997124433.0,-0.605831503868103,0.3091744780540466,9.666881561279297,-1.0178200006484983,-0.582378089427948,0.1169289872050285
3997132766.0,-0.5777708888053894,0.0818356797099113,9.575889587402344,-1.0867735147476196,-1.0615179538726809,0.2789133787155151
3997141099.0,-0.3581643104553222,0.1048177629709243,9.66714572906494,-1.043075680732727,-1.0840071439743042,0.2967921197414398
3997149432.0,-0.3251181840896606,0.2704775929450989,9.710456848144531,-0.9951514005661012,-0.8077576756477356,0.2311684489250183
3997157765.0,-0.4851415753364563,0.25574991106987,9.629436492919922,-0.89654940366745,-0.6839000582695007,0.2377128899097442
3997166098.0,-0.4781890213489532,0.0508567132055759,9.56061840057373,-1.0079073905944824,-1.1246827840805054,0.1746122390031814
3997174431.0,-0.2434437125921249,0.0816123336553573,9.67356777191162,-1.1036789417266846,-1.333899736404419,0.2080388069152832
3997182764.0,-0.1881054639816284,0.3157622516155243,9.789824485778809,-0.8227933049201965,-0.8971513509750366,0.2589598894119262
3997191097.0,-0.4628247022628784,0.3328360915184021,9.711607933044434,-0.921869158744812,-0.4006963074207306,0.1535317301750183
3997199430.0,-0.6947699189186096,0.0555203668773174,9.518509864807127,-1.0578806400299072,-0.8056572675704956,0.2165427356958389
3997207763.0,-0.535240113735199,-0.0880586504936218,9.541877746582031,-1.045112133026123,-1.2547646760940552,0.2234714180231094
3997216096.0,-0.315297394990921,0.151575818657875,9.722271919250488,-0.8832812309265137,-1.1358119249343872,0.1938357055187225
3997224429.0,-0.3325142860412597,0.442167192697525,9.786669731140137,-0.8740345239639282,-0.7375875115394592,0.1514953821897506
3997232762.0,-0.5190532803535461,0.318902313709259,9.658998489379885,-1.137617826461792,-0.8257133364677429,0.1467183530330658
3997241095.0,-0.4366390705108642,0.0059513798914849,9.527022361755373,-1.0857490301132202,-1.292174220085144,0.323430985212326
3997249428.0,-0.2013097107410431,0.0262579713016748,9.628812789916992,-0.951325535774231,-1.1268597841262815,0.2917717695236206
3997257761.0,-0.2662788927555084,0.2924082279205322,9.769718170166016,-0.9154911637306212,-0.7715902924537659,0.2159792184829712
3997266094.0,-0.5251903533935547,0.3585934638977051,9.740447998046877,-1.0700218677520752,-0.5318155288696289,0.2281203418970108
3997274427.0,-0.6456729173660278,0.1634709984064102,9.606904029846191,-1.070188283920288,-1.0174742937088013,0.1555936634540558
3997282760.0,-0.4582383632659912,0.0787491500377655,9.645160675048828,-1.1115295886993408,-1.2830681800842283,0.2237787246704101
3997291093.0,-0.3399673700332641,0.2457574754953384,9.69690227508545,-0.913954257965088,-0.9757359623908995,0.2734319567680359
3997299426.0,-0.4256442189216614,0.3276431262493133,9.70182991027832,-0.9208444952964784,-0.757938027381897,0.3448700606822967
3997307759.0,-0.5002985596656799,0.1345234364271164,9.578736305236816,-1.0102382898330688,-1.0606213808059692,0.1938485354185104
3997316092.0,-0.3068306446075439,0.0328833200037479,9.586817741394045,-1.0794607400894165,-1.3544552326202393,0.2607913613319397
3997324425.0,-0.1583996266126632,0.2514225244522095,9.73525619506836,-0.9361106157302856,-0.9905152320861816,0.286367118358612
3997332758.0,-0.3557251989841461,0.3899157643318176,9.79090404510498,-0.977912962436676,-0.4214181900024414,0.2500205338001251
3997341091.0,-0.623134195804596,0.2019176036119461,9.580182075500488,-1.165639877319336,-0.5414465665817261,0.2286583036184311
3997349424.0,-0.6193433403968811,-0.0840960517525672,9.484854698181152,-1.0953030586242676,-1.0794733762741089,0.1530706584453582
3997357757.0,-0.354459136724472,0.059075329452753,9.68025016784668,-0.9151839017868042,-1.2183282375335691,0.282345712184906
3997366090.0,-0.2954052686691284,0.3923906683921814,9.805747032165527,-0.8755586743354797,-0.8800666928291321,0.2223827838897705
3997374423.0,-0.4803420305252075,0.4110166728496551,9.709033012390137,-0.8962292671203613,-0.6004616618156433,0.3042715191841125
3997382756.0,-0.4990967810153961,0.1098032891750335,9.55531883239746,-1.1238629817962646,-1.0617483854293823,0.3101115226745605
3997391089.0,-0.3000632524490356,-0.0088962605223059,9.573927879333496,-1.0142340660095217,-1.3058520555496216,0.3486609756946563
3997399422.0,-0.2389478683471679,0.2465370446443557,9.715255737304688,-0.8880839347839355,-0.9073715209960938,0.2388783395290374
3997407755.0,-0.4515519440174103,0.390681117773056,9.729811668395996,-0.8807838559150696,-0.4373502433300018,0.1378557980060577
3997416088.0,-0.6217107772827148,0.2171102464199066,9.64732551574707,-1.0295002460479736,-0.7475386261940002,0.059245727956295
3997424421.0,-0.4980166256427765,0.0806269496679306,9.629465103149414,-1.044407606124878,-1.2055468559265137,0.1981517225503921
3997432754.0,-0.3535792529582977,0.1568476408720016,9.732544898986816,-0.9940499663352966,-1.0273997783660889,0.2368548214435577
3997441087.0,-0.410902202129364,0.2841967642307281,9.73202896118164,-1.0207912921905518,-0.6506912708282471,0.2280435562133789
3997449420.0,-0.5544096827507019,0.2098715603351593,9.581748008728027,-1.145225167274475,-0.8128805756568909,0.2657220661640167
3997457753.0,-0.423523336648941,0.0412321239709854,9.557249069213867,-1.186054229736328,-1.2264224290847778,0.2889029383659363
3997466086.0,-0.1774207502603531,0.1508830040693283,9.719245910644531,-1.0396689176559448,-1.3418145179748535,0.1870095282793045
3997474419.0,-0.2173820436000824,0.3761250972747803,9.802541732788086,-0.9884661436080932,-0.6808904409408569,0.3168480992317199
3997482752.0,-0.5297109484672546,0.2711285054683685,9.684062004089355,-1.0827521085739136,-0.4345839023590088,0.2338067144155502
3997491085.0,-0.6705003380775452,-0.073316641151905,9.463504791259766,-1.2478102445602417,-0.9170025587081908,0.1631626784801483
3997499418.0,-0.4540338814258575,-0.046214647591114,9.597247123718262,-1.049325466156006,-1.2531635761260986,0.2538883090019226
3997507751.0,-0.3012491464614868,0.2814928889274597,9.780052185058594,-0.7863442301750183,-0.9458183646202089,0.1084506660699844
3997516084.0,-0.4317956566810608,0.4495776295661926,9.795153617858888,-0.9581644535064696,-0.6655730605125427,0.2356253415346145
3997524417.0,-0.5355190634727478,0.2145352214574813,9.628828048706056,-1.1099928617477417,-0.8410433530807495,0.3117380142211914
3997532750.0,-0.392655462026596,-0.0376272983849048,9.562336921691896,-1.2111049890518188,-1.387433409690857,0.3290404379367828
3997541083.0,-0.1890068501234054,0.1000824645161628,9.67791748046875,-0.9609050750732422,-0.974864900112152,0.350530743598938
3997549416.0,-0.3075364828109741,0.3407972157001495,9.753172874450684,-0.8696416616439819,-0.5902416110038757,0.1901600658893585
3997557749.0,-0.5859395265579224,0.2726161777973175,9.679640769958496,-1.0389645099639893,-0.5572633147239685,0.1741383522748947
3997566082.0,-0.5995298624038696,0.0989953428506851,9.613520622253418,-1.1099672317504885,-1.0888867378234863,0.1497280001640319
3997574415.0,-0.3626132607460022,0.1228144243359565,9.69206714630127,-1.122402906417847,-0.9736610054969788,0.2946405410766601
3997582748.0,-0.3342379629611969,0.3061631917953491,9.749175071716309,-1.0633108615875244,-0.8336024284362793,0.2555788159370422
3997591081.0,-0.4963857233524322,0.2553136944770813,9.667582511901855,-1.1413960456848145,-0.7794155478477478,0.3401442468166351
3997599414.0,-0.4843192100524902,0.0560265854001045,9.538294792175291,-1.1402175426483154,-1.241778016090393,0.2485477328300476
3997607747.0,-0.2438689768314361,0.0397627539932727,9.629644393920898,-1.0256067514419556,-1.3007802963256836,0.2055542171001434
3997616080.0,-0.1869182288646698,0.316620409488678,9.786460876464844,-0.873022735118866,-0.8494064211845398,0.2434632927179336
3997624413.0,-0.4360800087451935,0.3736431896686554,9.740971565246582,-0.9978665113449096,-0.4556643962860107,0.294281929731369
3997632746.0,-0.6943050026893616,0.0990168079733848,9.563916206359863,-1.2623335123062134,-0.6100414395332336,0.2215631455183029
3997641079.0,-0.5398608446121216,-0.1052254736423492,9.49519157409668,-1.0419485569000244,-1.280673265457153,0.0863455906510353
3997649412.0,-0.3086236417293548,0.1382001787424087,9.716436386108398,-0.8969208002090454,-1.2330307960510254,0.21713188290596
3997657745.0,-0.2942106127738952,0.4342850744724273,9.830961227416992,-0.8962548971176147,-0.8339353799819946,0.226916491985321
3997666078.0,-0.4768085181713104,0.3046181201934814,9.643634796142578,-1.0332142114639282,-0.7626767158508301,0.2155694216489792
3997674411.0,-0.4539480209350586,0.0314653553068637,9.561112403869627,-1.2123090028762815,-1.1104668378829956,0.214519202709198
3997682744.0,-0.2239412069320678,0.0484247468411922,9.644299507141112,-0.928900182247162,-1.1790744066238403,0.2629941701889038
3997691077.0,-0.2847905457019806,0.2972863912582397,9.744588851928713,-0.8768136501312256,-0.7466421127319336,0.1538646966218948
3997699410.0,-0.529889702796936,0.3518269956111908,9.67290496826172,-0.9501215815544128,-0.4778975546360016,0.123306930065155
3997707743.0,-0.6439704298973083,0.155252456665039,9.574430465698242,-1.0654624700546265,-1.0507087707519531,0.1953597515821457
3997716076.0,-0.4142481088638305,0.0682999640703201,9.61806583404541,-1.1839284896850586,-1.276984930038452,0.2627508640289306
3997724409.0,-0.3186520040035248,0.2514510452747345,9.721400260925291,-0.9946392774581908,-0.9977129697799684,0.3139024376869201
3997732742.0,-0.4109165072441101,0.3368559777736664,9.7086181640625,-1.0272973775863647,-0.7460274696350098,0.2337298989295959
3997741075.0,-0.5151262879371643,0.1528562605381012,9.591862678527832,-1.0858641862869265,-1.0016189813613892,0.2582811117172241
3997749408.0,-0.3100684881210327,0.0027825620491057,9.602112770080566,-1.0405782461166382,-1.1344032287597656,0.2460375279188156
3997757741.0,-0.1844503581523895,0.2213447242975235,9.747386932373049,-0.8622263073921204,-1.0463926792144775,0.2981881201267242
3997766074.0,-0.3430145978927612,0.3867613673210144,9.769087791442873,-0.91706645488739,-0.4610306322574615,0.2848943173885345
3997774407.0,-0.6543992757797241,0.2160516232252121,9.609880447387695,-1.0903851985931396,-0.5179582238197327,0.2632375061511993
3997782740.0,-0.6457439064979553,-0.0551753751933574,9.489197731018066,-1.1150388717651367,-1.2441858053207395,0.2170934379100799
3997791073.0,-0.3567122220993042,0.0460286438465118,9.685558319091797,-0.9253142476081848,-1.2218501567840576,0.2107282876968383
3997799406.0,-0.2717365026473999,0.3782781064510345,9.78179931640625,-0.8665679097175598,-0.869974672794342,0.2360607832670211
3997807739.0,-0.4366309940814972,0.4178905487060547,9.719039916992188,-0.9314231872558594,-0.6387550234794617,0.250737726688385
3997816072.0,-0.471436858177185,0.1181362494826316,9.582412719726562,-1.0520918369293213,-1.0266826152801514,0.2842667698860168
3997824405.0,-0.2809064388275146,0.0068452707491815,9.584416389465332,-1.1133099794387815,-1.1134380102157593,0.2094475924968719
3997832738.0,-0.1906375139951706,0.2329180836677551,9.739211082458496,-0.9898364543914796,-0.923444390296936,0.1736004799604416
3997841071.0,-0.4319959580898285,0.3776701092720032,9.734840393066406,-0.908344864845276,-0.4920367002487182,0.1763284057378769
3997849404.0,-0.6434983611106873,0.2374386191368103,9.61972999572754,-1.0002230405807495,-0.7472055554389954,0.1686953455209732
3997857737.0,-0.5212777256965637,0.0904262438416481,9.566362380981444,-1.0441514253616333,-1.2383841276168823,0.0984867289662361
3997866070.0,-0.3431004285812378,0.2006444036960601,9.6995267868042,-0.9865195751190186,-1.1837234497070312,0.1484345048666
3997874403.0,-0.3556678295135498,0.3169855773448944,9.728275299072266,-1.0311777591705322,-0.697398841381073,0.2334865778684616
3997882736.0,-0.507952094078064,0.2380394041538238,9.601139068603516,-1.085415959358215,-0.8900818228721619,0.2046833485364914
3997891069.0,-0.3906584680080414,0.0151746161282062,9.526707649230955,-1.1234787702560425,-1.267174482345581,0.2217680364847183
3997899402.0,-0.1722619235515594,0.1398380845785141,9.687238693237305,-1.0022722482681274,-1.121147871017456,0.3223038911819458
3997907735.0,-0.2206294387578964,0.3640010356903076,9.768415451049805,-0.9754540920257568,-0.6066859364509583,0.3307822346687317
3997916068.0,-0.5484799742698669,0.3101114928722381,9.6456298828125,-1.099170804023743,-0.4007219076156616,0.2253796458244323
3997924401.0,-0.6791481375694275,-0.0102214124053716,9.493603706359863,-1.0995807647705078,-0.8749950528144836,0.2062202095985412
3997932734.0,-0.4561764597892761,-0.0143783083185553,9.590493202209473,-0.9647729992866516,-1.3816190958023071,0.2032745778560638
3997941067.0,-0.311499148607254,0.2729024291038513,9.730927467346191,-0.8350113034248352,-1.0274509191513062,0.1186707466840744
3997949400.0,-0.3981631398200989,0.4310658872127533,9.759623527526855,-0.9380059838294984,-0.6667513847351074,0.2573462128639221
3997957733.0,-0.4973943829536438,0.2149500846862793,9.598471641540527,-1.1494516134262085,-0.9649266600608826,0.3160796463489532
3997966066.0,-0.3812049627304077,-0.001680664718151,9.549065589904783,-1.204598903656006,-1.1461985111236572,0.2739954590797424
3997974399.0,-0.2052007615566253,0.1671833992004394,9.712966918945312,-1.0319205522537231,-1.0135551691055298,0.3209335505962372
3997982732.0,-0.3501960337162018,0.3474064171314239,9.754560470581056,-0.9329088926315308,-0.5251814723014832,0.2380587011575698
3997991065.0,-0.589573085308075,0.2831524312496185,9.67475700378418,-1.0740944147109983,-0.5930847525596619,0.2755323052406311
3997999398.0,-0.5670130252838135,0.1030939221382141,9.59300708770752,-1.0092648267745972,-1.081317663192749,0.2637753784656524
3998007731.0,-0.3769333064556122,0.1553884148597717,9.714447975158691,-1.0571634769439695,-1.0286293029785156,0.1405452936887741
3998016064.0,-0.3458971679210663,0.2957485914230346,9.761270523071287,-1.0099562406539917,-0.8465375900268555,0.1644433736801147
3998024397.0,-0.4768300950527191,0.2812282741069793,9.679341316223145,-1.1411526203155518,-0.7428768873214722,0.2517366707324981
3998032730.0,-0.4634827673435211,0.0547979287803173,9.576741218566896,-1.0322535037994385,-1.1169086694717407,0.2254949063062667
3998041063.0,-0.2266949713230133,0.0787958055734634,9.667325019836426,-1.1061122417449951,-1.2332613468170166,0.1884951293468475
3998049396.0,-0.2004727274179458,0.3145319521427154,9.781105041503906,-0.9864681959152222,-0.7169808149337769,0.2126493602991104
3998057729.0,-0.4659147262573242,0.3392593264579773,9.745047569274902,-1.105471968650818,-0.4662430584430694,0.3384664952754974
3998066062.0,-0.6534909009933472,0.0542972311377525,9.529167175292969,-1.0712000131607056,-0.6891381144523621,0.3959960639476776
3998074395.0,-0.5221840739250183,-0.0815217569470405,9.546109199523926,-0.9881843328475952,-1.3479362726211548,0.214365541934967
3998082728.0,-0.3214917480945587,0.1745936572551727,9.708539009094238,-0.7868820428848267,-1.1273976564407349,0.2355484962463379
3998091061.0,-0.3408114314079284,0.4266457259654999,9.78995418548584,-0.8236769437789917,-0.6912513971328735,0.191812202334404
3998099394.0,-0.5100120306015015,0.2870507538318634,9.63478660583496,-1.080472469329834,-0.802148163318634,0.1213602423667907
3998107727.0,-0.411567360162735,0.0146991722285747,9.55447483062744,-1.0474811792373655,-1.201089859008789,0.1550941914319992
3998116060.0,-0.2284475713968277,0.0801832899451255,9.62442111968994,-0.929975926876068,-1.1929317712783811,0.1917097568511963
3998124393.0,-0.3099755942821502,0.3226432800292969,9.758237838745115,-0.9147740602493286,-0.563116192817688,0.179248422384262
3998132726.0,-0.5618702173233032,0.315805047750473,9.693023681640623,-0.9104452133178712,-0.5291260480880737,0.1922348290681839
3998141059.0,-0.6226336359977722,0.0891171917319297,9.568586349487305,-1.1010150909423828,-0.901095986366272,0.2054517716169357
3998149392.0,-0.4177403450012207,0.0752407535910606,9.62273406982422,-1.0253760814666748,-1.225320816040039,0.2576279640197754
3998157725.0,-0.2972006201744079,0.2627811431884765,9.730076789855955,-0.8354466557502747,-0.8624696731567383,0.3220734000205993
3998166058.0,-0.4331046342849731,0.3089885115623474,9.665271759033203,-1.080446720123291,-0.7111408114433289,0.1784287542104721
3998174391.0,-0.4970153868198395,0.1211333200335502,9.541769981384276,-1.028091311454773,-1.0351608991622925,0.1849603801965713
3998182724.0,-0.2789688110351562,0.0074681909754872,9.612944602966309,-1.023147702217102,-1.3976792097091677,0.1788129657506942
3998191057.0,-0.1594798415899276,0.2270383387804031,9.715291023254396,-0.9541430473327636,-1.008726954460144,0.1639567166566848
3998199390.0,-0.3716545701026916,0.3968254327774048,9.767908096313477,-1.0766046047210691,-0.4532566964626312,0.3652077317237854
3998207723.0,-0.6701069474220276,0.1967317909002304,9.614394187927246,-1.1787285804748535,-0.6587852835655212,0.2873148322105407
3998216056.0,-0.615802526473999,-0.0665858164429664,9.517894744873049,-1.033726453781128,-1.245581865310669,0.2999427020549774
3998224389.0,-0.3418272137641907,0.0759345814585685,9.685342788696287,-0.9221509099006652,-1.2390501499176023,0.2559118270874023
3998232722.0,-0.2374815344810485,0.3551887273788452,9.820781707763672,-0.8147375583648682,-0.840326189994812,0.1955518573522567
3998241055.0,-0.4193069636821747,0.3595016896724701,9.705920219421388,-0.9484438300132751,-0.6449408531188965,0.2783882915973663
3998249388.0,-0.4445849657058716,0.113608606159687,9.57341480255127,-1.1033331155776978,-1.018703579902649,0.2080259919166565
3998257721.0,-0.2631745338439941,0.0211081430315971,9.638586044311523,-0.9660024046897888,-1.284822702407837,0.214954674243927
3998266054.0,-0.1988849490880966,0.2535466253757477,9.747607231140137,-0.8861627578735352,-0.8668496012687683,0.3039641380310058
3998274387.0,-0.4539623260498047,0.3951087296009063,9.74703598022461,-1.0152074098587036,-0.4784098863601684,0.189699038863182
3998282720.0,-0.6655719876289368,0.2227539122104644,9.620824813842772,-1.0825471878051758,-0.8282491564750671,0.1979980319738388
3998291053.0,-0.5197324752807617,0.0344627723097801,9.56810188293457,-1.0926647186279297,-1.2674307823181152,0.2206666469573974
3998299386.0,-0.318995326757431,0.164429560303688,9.70391845703125,-1.0170003175735474,-1.081215262413025,0.221947357058525
3998307719.0,-0.3639008998870849,0.3465123176574707,9.751163482666016,-0.9669501185417176,-0.7923635244369507,0.3089588582515716
3998316052.0,-0.5041323900222778,0.2403927445411682,9.645694732666016,-1.094995617866516,-0.7750994563102722,0.2452306896448135
3998324385.0,-0.4075395464897156,0.0322041623294353,9.544447898864746,-1.0945860147476196,-1.2889466285705566,0.2033001631498336
3998332718.0,-0.1959674060344696,0.1077776923775672,9.653493881225586,-1.1124134063720703,-1.24153470993042,0.2586269676685333
3998341051.0,-0.2451493889093399,0.3721409738063812,9.783708572387695,-0.991514265537262,-0.4949566423892975,0.1626247614622116
3998349384.0,-0.5431582927703857,0.289554238319397,9.63394260406494,-1.0926390886306765,-0.4479033350944519,0.230886697769165
3998357717.0,-0.69553542137146,-0.0147707033902406,9.47371768951416,-1.2108232975006104,-0.8932579755783081,0.1902625262737274
3998366050.0,-0.4553785920143127,-0.0582813657820224,9.597662925720217,-0.8989827632904053,-1.3022276163101196,0.2947045564651489
3998374383.0,-0.2924439907073974,0.2635464966297149,9.76821517944336,-0.8418630361557007,-1.0608134269714355,0.2522105872631073
3998382716.0,-0.4086562097072601,0.4286269545555115,9.802970886230469,-0.9393892288208008,-0.6644204258918762,0.2042735069990158
3998391049.0,-0.4752563536167145,0.2339122742414474,9.574759483337402,-1.054076910018921,-0.9765940308570862,0.2119705826044082
3998399382.0,-0.3831992447376251,-0.0128107415512204,9.564037322998049,-1.060378074645996,-1.1910873651504517,0.1454504281282425
3998407715.0,-0.216323435306549,0.0960054546594619,9.667482376098633,-0.9375449419021606,-0.9608539342880248,0.2928731441497803
3998416048.0,-0.3383294641971588,0.3678778707981109,9.76645565032959,-0.92619788646698,-0.4674725532531738,0.2419776767492294
3998424381.0,-0.5873270630836487,0.2849335074424743,9.665300369262695,-0.9811020493507384,-0.5397174954414368,0.201468750834465
3998432714.0,-0.5825918912887573,0.0986591652035713,9.599393844604492,-1.0723655223846436,-1.0235960483551023,0.2653250396251678
3998441047.0,-0.3781279027462005,0.096928171813488,9.664278030395508,-1.0792174339294434,-1.1926884651184082,0.2408250272274017
3998449380.0,-0.3204545080661773,0.3035237491130829,9.77944564819336,-0.9778233170509338,-0.8053115606307983,0.2998530268669128
3998457713.0,-0.470413863658905,0.2846473753452301,9.669262886047363,-1.0120056867599487,-0.6194930672645569,0.181528091430664
3998466046.0,-0.4524316191673279,0.1152823716402053,9.592284202575684,-1.1661776304244995,-1.063695192337036,0.2120346128940582
3998474379.0,-0.2242399305105209,0.0617218725383281,9.66408634185791,-1.0530651807785034,-1.2818771600723269,0.3164894580841064
3998482712.0,-0.1974828392267227,0.2895184755325317,9.794395446777344,-0.9704848527908324,-0.8520447015762329,0.1978699564933776
3998491045.0,-0.4588477313518524,0.3838501572608948,9.761213302612305,-0.9719448685646056,-0.3383256196975708,0.2493545711040496
3998499378.0,-0.6947985291481018,0.125975877046585,9.553451538085938,-1.0808310508728027,-0.689240574836731,0.1668511182069778
3998507711.0,-0.5320097208023071,-0.0685317814350128,9.539701461791992,-1.114206314086914,-1.265023112297058,0.2284277230501175
3998516044.0,-0.2852697670459747,0.1087088361382484,9.703495979309082,-0.8631613850593567,-1.159287452697754,0.1656984984874725
3998524377.0,-0.2868218421936035,0.4473173320293426,9.81657600402832,-1.0241978168487549,-0.7049165368080139,0.1969734579324722
3998532710.0,-0.5131306648254395,0.3701310157775879,9.685965538024902,-1.1073931455612185,-0.7375491261482239,0.1838589906692505
3998541043.0,-0.4919367730617523,0.036307830363512,9.53394603729248,-1.1089938879013062,-1.1988998651504517,0.2323595434427261
3998549376.0,-0.2667892873287201,-0.0147224497050046,9.592755317687988,-1.0321128368377686,-1.325626254081726,0.1950267851352691
3998557709.0,-0.2572448551654815,0.2351067960262298,9.6972017288208,-0.8570394515991211,-0.765289306640625,0.2455892711877823
3998566042.0,-0.5376076698303223,0.3982846140861511,9.724647521972656,-0.9532209038734436,-0.3209335505962372,0.2354716509580612
3998574375.0,-0.7123659253120422,0.1894072741270065,9.58753490447998,-1.0310112237930298,-0.8284795880317688,0.271049827337265
3998582708.0,-0.4924726188182831,0.0577140152454376,9.602002143859863,-1.1000161170959473,-1.3797235488891602,0.1935411542654037
3998591041.0,-0.2872439324855804,0.1765177845954895,9.694297790527344,-0.9578955173492432,-1.2218501567840576,0.1982925981283188
3998599374.0,-0.3365770280361175,0.3105120658874511,9.740147590637209,-0.9809099435806274,-0.672207236289978,0.2875966429710388
3998607707.0,-0.5406904220581055,0.1957805752754211,9.60136890411377,-1.1222748756408691,-0.7993050217628479,0.3448700606822967
3998616040.0,-0.4460870325565338,0.0227962378412485,9.574682235717772,-1.0151305198669434,-1.2881014347076416,0.2458454072475433
3998624373.0,-0.169386476278305,0.0986949279904365,9.655372619628906,-0.9589841961860656,-1.3417633771896362,0.1755343526601791
3998632706.0,-0.2011522501707077,0.399979829788208,9.797334671020508,-0.9026840925216676,-0.6512803435325623,0.3010440766811371
3998641039.0,-0.5550675392150879,0.3143675625324249,9.654979705810549,-1.035980463027954,-0.360738068819046,0.3112641870975494
3998649372.0,-0.7288246154785156,-0.0567291975021362,9.498432159423828,-1.113207459449768,-0.8839856386184692,0.3725846707820892
3998657705.0,-0.4695197641849518,-0.0699977204203605,9.548916816711426,-0.885509729385376,-1.3669548034667969,0.1876626908779144
3998666038.0,-0.2276034653186798,0.2315375208854675,9.773758888244627,-0.8643908500671387,-1.1168190240859983,0.2724073827266693
3998674371.0,-0.3452605903148651,0.496972382068634,9.7842378616333,-0.8642115592956543,-0.6084021925926208,0.2767618298530578
3998682704.0,-0.5235024094581604,0.3181869685649872,9.620637893676758,-1.1401407718658447,-0.7529816031455994,0.3003140985965729
3998691037.0,-0.4086219072341919,-0.0369365997612476,9.488006591796877,-1.1140271425247192,-1.3737043142318726,0.1927215158939361
3998699370.0,-0.1430783122777938,0.0100497445091605,9.615796089172363,-1.0960716009140017,-1.203548789024353,0.2739442586898803
3998707703.0,-0.2104366421699524,0.318136990070343,9.752986907958984,-0.8389943242073059,-0.5330321788787842,0.248522087931633
3998716036.0,-0.5412628054618835,0.3991357982158661,9.720785140991213,-0.92122882604599,-0.3785656094551086,0.2360608130693435
3998724369.0,-0.6499786972999573,0.1854518800973892,9.605310440063477,-1.166907787322998,-1.0078433752059937,0.257615178823471
3998732702.0,-0.4197016954421997,0.0446609109640121,9.623937606811523,-1.1432273387908936,-1.3304418325424194,0.1505860835313797
3998741035.0,-0.2307936251163482,0.2291556298732757,9.713896751403809,-1.0089061260223389,-1.1188679933547974,0.2500717341899872
3998749368.0,-0.3586506843566894,0.3549526929855346,9.740856170654297,-1.0495047569274902,-0.5967475771903992,0.1561956107616424
3998757701.0,-0.5348180532455444,0.1729414314031601,9.620809555053713,-0.9724572896957396,-0.8967159390449524,0.2928475439548492
3998766034.0,-0.3789433240890503,-0.014985310845077,9.590072631835938,-0.9864426255226136,-1.317660212516785,0.200533851981163
3998774367.0,-0.1172422468662262,0.1984055638313293,9.719575881958008,-0.97993665933609,-1.1427407264709473,0.3000195622444153
3998782700.0,-0.2194849848747253,0.4224540591239929,9.804186820983888,-0.9427318572998048,-0.4402318298816681,0.3241865634918213
3998791033.0,-0.6042079329490662,0.3187949359416961,9.654998779296877,-1.0502989292144775,-0.3393758237361908,0.2009948939085006
3998799366.0,-0.7447253465652466,-0.0529309809207916,9.501049995422363,-1.211950421333313,-0.972764492034912,0.0790711417794227
3998807699.0,-0.4261024594306946,-0.1338565945625305,9.604496002197266,-1.0601603984832764,-1.445475459098816,0.2026598453521728
3998816032.0,-0.1971466541290283,0.261593759059906,9.810975074768066,-0.8163768649101257,-1.0299739837646484,0.1963587403297424
3998824365.0,-0.3763255178928375,0.5012139678001404,9.789015769958496,-0.8458332419395447,-0.5007838606834412,0.2237531393766403
3998832698.0,-0.6011676788330078,0.3150256872177124,9.603672981262209,-1.0662821531295776,-0.6994607448577881,0.2435145527124405
3998841031.0,-0.5119489431381226,-0.0569728873670101,9.500844955444336,-1.3220659494400024,-1.2560579776763916,0.3437430262565613
3998849364.0,-0.1930909901857376,-0.0015450140926986,9.643677711486816,-0.9461898803710938,-1.2047654390335083,0.2804374396800995
3998857697.0,-0.2289839684963226,0.33805051445961,9.78940200805664,-0.8171581625938416,-0.5601961016654968,0.2303488254547119
3998866030.0,-0.5888863801956177,0.3845225274562835,9.720534324645996,-0.9530928134918212,-0.3160924315452575,0.2410555481910705
3998874363.0,-0.753873884677887,0.157662957906723,9.583507537841797,-1.2175086736679075,-0.9483030438423156,0.2462808787822723
3998882696.0,-0.4780365526676178,0.0016878755996003,9.60732364654541,-1.056907296180725,-1.367121338844299,0.2384428977966308
3998891029.0,-0.2351782768964767,0.2007732093334198,9.656968116760254,-0.8299268484115601,-1.083072304725647,0.1653014719486236
3998899362.0,-0.3678278028964996,0.3375784158706665,9.69635772705078,-0.9275811910629272,-0.529638409614563,0.2507121562957763
3998907695.0,-0.5717911124229431,0.2173963487148285,9.562399864196776,-1.041513204574585,-0.7686191201210022,0.2502254545688629
3998916028.0,-0.4569838047027588,-0.0524349138140678,9.535072326660156,-1.0837382078170776,-1.4997646808624268,0.1920939534902572
3998924361.0,-0.1753948628902435,0.1127001941204071,9.69137954711914,-0.97603040933609,-1.3267916440963743,0.2238043695688247
3998932694.0,-0.2198496311903,0.399679571390152,9.78386688232422,-0.924584150314331,-0.6789949536323547,0.2683859467506408
3998941027.0,-0.5713333487510681,0.3364840447902679,9.684662818908691,-1.0143364667892456,-0.4824313223361969,0.1866765469312667
3998949360.0,-0.6993191242218018,-0.0115089239552617,9.516292572021484,-1.1377969980239868,-0.9505314230918884,0.2338067144155502
3998957693.0,-0.43206787109375,-0.1196154430508613,9.598690032958984,-0.9883636236190796,-1.4101018905639648,0.2413885444402694
3998966026.0,-0.1325707882642746,0.2501563727855682,9.785882949829102,-0.7478203177452087,-1.1199952363967896,0.1603195071220398
3998974359.0,-0.2711712419986725,0.5183451771736145,9.787900924682615,-0.7602689266204834,-0.4978767335414886,0.3373651206493377
3998982692.0,-0.5299398303031921,0.3652527630329132,9.638720512390137,-1.1060354709625244,-0.7259714603424072,0.2412348985671997
3998991025.0,-0.4650463163852691,-0.0655368566513061,9.54112148284912,-1.1094679832458496,-1.2387171983718872,0.2660551071166992
3998999358.0,-0.1564827263355255,-0.0261435657739639,9.63385772705078,-0.952503740787506,-1.278803467750549,0.156759113073349
3999007691.0,-0.141118437051773,0.3146607279777527,9.787041664123535,-0.8326802849769592,-0.6510497331619263,0.213315337896347
3999016024.0,-0.4815723896026611,0.4357582032680511,9.747385025024414,-0.8521215319633484,-0.344216912984848,0.1093471646308898
3999024357.0,-0.6966082453727722,0.2060948610305786,9.648533821105955,-1.230699896812439,-0.7997660040855408,0.1943608224391937
3999032690.0,-0.4689553380012512,-0.0264472104609012,9.62720775604248,-1.214972734451294,-1.246119737625122,0.2302975803613662
3999041023.0,-0.226129874587059,0.169880136847496,9.71571445465088,-0.9979433417320251,-1.0708926916122437,0.2876734435558319
3999049356.0,-0.3128081262111664,0.3465051651000976,9.721185684204102,-0.9973927736282348,-0.6468363404273987,0.1868942528963089
3999057689.0,-0.5644665956497192,0.2574951946735382,9.631939888000488,-1.0598657131195068,-0.664279580116272,0.1781854033470153
3999066022.0,-0.472681313753128,0.0150638874620199,9.587177276611328,-1.118022918701172,-1.2175085544586182,0.2171830832958221
3999074355.0,-0.2175679802894592,0.0542543791234493,9.676753044128418,-0.93662291765213,-1.195634126663208,0.1486137956380844
3999082688.0,-0.2171960771083831,0.3620554506778717,9.773530006408691,-0.869103729724884,-0.6481042504310608,0.304809421300888
3999091021.0,-0.5334089398384094,0.3661898076534271,9.656831741333008,-0.9825621247291564,-0.3193070888519287,0.2113046497106552
3999099354.0,-0.7813336253166199,0.0111584346741437,9.49808120727539,-1.1209300756454468,-0.7447338104248047,0.2641468048095703
3999107687.0,-0.5422065258026123,-0.1469132751226425,9.559619903564451,-1.0378373861312866,-1.4010728597640991,0.2637369632720947
3999116020.0,-0.2522593438625335,0.1749513000249862,9.732107162475586,-0.8659403920173645,-1.2606046199798584,0.1691179871559143
3999124353.0,-0.3063562512397766,0.5174724459648132,9.739168167114258,-0.7932215929031372,-0.5965299010276794,0.2601765692234039
3999132686.0,-0.5845375061035156,0.4148577451705932,9.639142990112305,-1.0417180061340332,-0.7066071033477783,0.1555296331644058
3999141019.0,-0.5806035995483398,0.0049138502217829,9.534582138061523,-1.118253469467163,-1.2016021013259888,0.3155673742294311
3999149352.0,-0.2318356931209564,-0.0814495757222175,9.601487159729004,-0.9836507439613342,-1.3730127811431885,0.3966876864433288
3999157685.0,-0.1354604214429855,0.2804344892501831,9.78602695465088,-0.8124962449073792,-0.8133416175842285,0.2365986853837967
3999166018.0,-0.4609935879707336,0.4689117670059204,9.694162368774414,-0.8772875070571899,-0.4212004542350769,0.2913491129875183
3999174351.0,-0.7192254066467285,0.3132445812225342,9.622576713562012,-1.1031794548034668,-0.865863561630249,0.2876350581645965
3999182684.0,-0.588481068611145,0.0388483479619026,9.61319351196289,-1.2325698137283323,-1.441786766052246,0.2298621535301208
3999191017.0,-0.2461958676576614,0.1000086069107055,9.70442008972168,-1.0392078161239624,-1.4813607931137085,0.2056566774845123
3999199350.0,-0.2116383165121078,0.3623987734317779,9.769861221313477,-0.9084728956222534,-0.7172626852989197,0.1767382472753524
3999207683.0,-0.4617732465267181,0.3333368003368377,9.629643440246582,-0.9737891554832458,-0.5697758197784424,0.2021987587213516
3999216016.0,-0.5313663482666016,0.0664462745189666,9.565366744995115,-1.2062768936157229,-1.2208001613616943,0.305257648229599
3999224349.0,-0.2757017910480499,0.0096407011151313,9.637463569641112,-1.1334811449050903,-1.3672109842300415,0.1919146478176117
3999232682.0,-0.0991240963339805,0.3296387791633606,9.772700309753418,-0.9689736366271972,-0.9695371389389038,0.2610858380794525
3999241015.0,-0.3741652071475982,0.3994934260845184,9.716114044189451,-1.0194337368011477,-0.3274908065795898,0.1441312879323959
3999249348.0,-0.6674103140830994,0.137019857764244,9.54159927368164,-1.1259890794754028,-0.6191601157188416,0.1898527294397354
3999257681.0,-0.5821947455406189,-0.1331310272216797,9.532000541687012,-1.183339238166809,-1.2899969816207886,0.1631370633840561
3999266014.0,-0.2465656250715255,0.0277102254331111,9.715543746948242,-0.8351649641990662,-1.318454384803772,0.2310660183429718
3999274347.0,-0.1700016111135482,0.4359657764434814,9.800138473510742,-0.7623180747032166,-0.750637948513031,0.2655171751976013
3999282680.0,-0.4386696517467499,0.4938893914222717,9.69524097442627,-0.9774518609046936,-0.4899618625640869,0.1974601298570633
3999291013.0,-0.6053091883659363,0.1212479546666145,9.562529563903809,-1.258286476135254,-0.8067588210105896,0.2673358023166656
3999299346.0,-0.3681618869304657,-0.1570485830307006,9.56882381439209,-1.1193292140960691,-1.386255145072937,0.2449233084917068
3999307679.0,-0.1136658266186714,0.1067418754100799,9.67005729675293,-0.9267101287841796,-1.0730186700820925,0.3276316523551941
3999316012.0,-0.2941320538520813,0.3869330286979675,9.771191596984863,-0.8659532070159912,-0.4334312677383423,0.2438731342554092
3999324345.0,-0.6205019950866699,0.37880739569664,9.69149398803711,-1.028193712234497,-0.4734150767326355,0.3273243010044098
3999332678.0,-0.695444643497467,0.0546151436865329,9.597328186035156,-1.215408205986023,-1.1284222602844238,0.3236102163791656
3999341011.0,-0.3563845753669739,-0.0205279421061277,9.632911682128906,-1.0355451107025146,-1.4102046489715576,0.2029928267002105
3999349344.0,-0.2326748222112655,0.2411008775234222,9.71169376373291,-0.8517757058143616,-1.0394256114959717,0.3198321461677551
3999357677.0,-0.4159950315952301,0.358836680650711,9.67099380493164,-0.9300144910812378,-0.6116551160812378,0.2535809278488159
3999366010.0,-0.6026557087898254,0.1818037629127502,9.572305679321287,-1.236335039138794,-0.6960283517837524,0.1971015185117721
3999374343.0,-0.4616373181343078,-0.050449002534151,9.5608549118042,-1.1158969402313232,-1.204727053642273,0.2850607931613922
3999382676.0,-0.202833279967308,0.1602521538734436,9.675263404846191,-0.9520426988601683,-1.2210689783096311,0.3342401683330536
3999391009.0,-0.2718722820281982,0.4027409553527832,9.758896827697754,-1.0208041667938232,-0.5850546956062317,0.2166067659854889
3999399342.0,-0.5918691158294678,0.3359118103981018,9.647103309631348,-1.0815225839614868,-0.5256425142288208,0.2461015582084655
3999407675.0,-0.7208848595619202,-0.0449268780648708,9.576162338256836,-1.0370564460754397,-1.0294489860534668,0.3024528920650482
3999416008.0,-0.442070871591568,-0.1156481802463531,9.580768585205078,-0.965848743915558,-1.4612280130386353,0.2549640834331512
3999424341.0,-0.2194849848747253,0.2845830023288727,9.746213912963867,-0.7893155217170715,-0.9821650981903076,0.2018145769834518
3999432674.0,-0.3466124534606933,0.4956490993499756,9.73813819885254,-0.8591654300689697,-0.6082740426063538,0.2802709341049194
3999441007.0,-0.5418350100517273,0.3201827108860016,9.68665885925293,-1.101847529411316,-0.6894070506095886,0.2692952454090118
3999449340.0,-0.5298253893852234,-0.0820288062095642,9.571391105651855,-1.1067270040512085,-1.217713475227356,0.3123911917209625
3999457673.0,-0.2000252455472946,-0.066248208284378,9.62971019744873,-0.9538869261741638,-1.4607415199279783,0.240568920969963
3999466006.0,-0.1551666259765625,0.3385369181632995,9.702781677246094,-0.8786834478378296,-0.8248679637908936,0.1943351924419403
3999474339.0,-0.4430685639381408,0.4825450778007507,9.751112937927246,-0.8759171366691589,-0.3597390949726105,0.20680932700634
3999482672.0,-0.6834684610366821,0.2567870616912842,9.676508903503418,-1.1672532558441162,-0.7358328700065613,0.2015584111213684
3999491005.0,-0.5642503499984741,-0.0252391081303358,9.613011360168455,-1.165614128112793,-1.3128446340560913,0.3548339903354645
3999499338.0,-0.2409386336803436,0.0885038450360298,9.648008346557615,-0.9835994243621826,-1.3533411026000977,0.2761470973491668
3999507671.0,-0.2267093509435653,0.3515836894512176,9.712451934814451,-0.8776333332061768,-0.6857571005821228,0.1741255670785904
3999516004.0,-0.4588622748851776,0.337864339351654,9.696757316589355,-1.0095210075378418,-0.5180094242095947,0.3543473184108734
3999524337.0,-0.5616841316223145,0.0932230055332183,9.644235610961914,-1.0946882963180542,-1.083366870880127,0.1928239464759826
3999532670.0,-0.3427673280239105,0.0108024794608354,9.59278964996338,-1.136631727218628,-1.285117506980896,0.2357406169176101
3999541003.0,-0.1438579708337783,0.3042175769805908,9.681100845336914,-0.8764678835868835,-1.0411931276321411,0.2643772959709167
3999549336.0,-0.3163060545921325,0.4177187383174896,9.730304718017578,-0.9426167011260986,-0.4922159910202026,0.2961261570453644
3999557669.0,-0.6312384009361267,0.2193419337272644,9.657933235168455,-1.101245641708374,-0.3965979814529419,0.2761470675468445
3999566002.0,-0.6541632413864136,-0.0953044816851615,9.583135604858398,-1.0509648323059082,-1.1248875856399536,0.2351642698049545
3999574335.0,-0.3593659698963165,-0.0162870232015848,9.607698440551758,-0.9634665846824646,-1.313562035560608,0.1363958120346069
3999582668.0,-0.2132334858179092,0.402175635099411,9.688989639282228,-0.8118047118186951,-0.9229705333709716,0.2045808732509613
3999591001.0,-0.39404296875,0.5056988596916199,9.690621376037598,-1.045073628425598,-0.6684674620628357,0.2475359886884689
3999599334.0,-0.5356335043907166,0.2335975468158722,9.664692878723145,-1.1670613288879397,-0.7892258167266846,0.26617032289505
3999607667.0,-0.4449820816516876,-0.117935262620449,9.569048881530762,-1.2142939567565918,-1.2129364013671875,0.2980856597423553
3999616000.0,-0.2211586683988571,0.0331249274313449,9.576227188110352,-0.9337540864944458,-1.0348279476165771,0.3028627038002014
3999624333.0,-0.2739109694957733,0.3786929547786712,9.710185050964355,-0.8257902264595032,-0.7508941888809204,0.2226389497518539
3999632666.0,-0.5668485164642334,0.4259088933467865,9.740455627441406,-1.0463030338287354,-0.5761025547981262,0.30662801861763
3999640999.0,-0.6495854258537292,0.1325922459363937,9.694519996643066,-1.2276774644851685,-0.9320891499519348,0.2311940938234329
3999649332.0,-0.4432283937931061,-0.0644776225090026,9.619153022766112,-1.1684573888778689,-1.424369215965271,0.2555788159370422
3999657665.0,-0.2804201245307922,0.1795076876878738,9.609243392944336,-0.9145434498786926,-1.0143877267837524,0.1747915297746658
3999665998.0,-0.3767116367816925,0.3430432081222534,9.662596702575684,-0.990694522857666,-0.7677226066589355,0.2746102213859558
3999674331.0,-0.5100263357162476,0.2209727764129638,9.670486450195312,-1.0128252506256104,-0.8237410187721252,0.2201031148433685
3999682664.0,-0.4700356721878052,-0.0257786307483911,9.65900993347168,-1.0798577070236206,-1.2871280908584597,0.2226389199495315
3999690997.0,-0.244462713599205,0.0596046410501003,9.632054328918455,-0.9306803941726683,-1.177857756614685,0.3222782909870147
3999699330.0,-0.2540189027786255,0.4201365411281585,9.719032287597656,-0.8404414653778076,-0.8764806985855103,0.2237147241830825
3999707663.0,-0.5120790004730225,0.3894939124584198,9.72525691986084,-1.0548583269119265,-0.6376280188560486,0.2249442189931869
3999715996.0,-0.6218324303627014,0.0438969954848289,9.663912773132324,-1.1271671056747437,-0.9256086945533752,0.1865996867418289
3999724329.0,-0.483997106552124,-0.2049146443605423,9.60641860961914,-1.097633957862854,-1.253778338432312,0.1477172970771789
3999732662.0,-0.2864713668823242,0.1183008700609207,9.645257949829102,-0.6966302394866943,-1.1673686504364014,0.1055690646171569
3999740995.0,-0.3242097496986389,0.5654394030570984,9.72639274597168,-0.6725785136222839,-0.7051598429679871,0.2801300883293152
3999749328.0,-0.5415775179862976,0.4877595007419586,9.713610649108888,-1.1378995180130005,-0.6886259317398071,0.1435165554285049
3999757661.0,-0.4642963409423828,0.0199904814362525,9.652758598327637,-1.310385823249817,-1.219122290611267,0.187573030591011
3999765994.0,-0.1766620129346847,-0.1523293405771255,9.624792098999023,-1.0362621545791626,-1.4421452283859253,0.2678736448287964
3999774327.0,-0.1999720335006714,0.2296777814626693,9.663140296936035,-0.9173611402511596,-0.8984577059745789,0.2175417095422744
3999782660.0,-0.4882959723472595,0.4741548001766205,9.709233283996582,-0.8359333872795105,-0.4518223404884338,0.1839614361524582
3999790993.0,-0.6511232852935791,0.3309548795223236,9.714977264404297,-1.16242516040802,-0.8804125785827637,0.2611755430698395
3999799326.0,-0.4952777922153473,-0.0237845666706562,9.661782264709473,-1.215690016746521,-1.422192096710205,0.174202412366867
3999807659.0,-0.2370452135801315,0.0426023341715335,9.65615940093994,-1.0572402477264404,-1.2046245336532593,0.2833958566188812
3999815992.0,-0.3456968963146209,0.366475909948349,9.672274589538574,-0.8572187423706055,-0.5791250467300415,0.2751480937004089
3999824325.0,-0.5789867043495178,0.3334585726261139,9.602849960327148,-1.07322359085083,-0.6941584944725037,0.2266091406345367
3999832658.0,-0.5287759900093079,0.0193628817796707,9.638676643371582,-1.2119886875152588,-1.2096834182739258,0.2042606920003891
3999840991.0,-0.1854232251644134,-0.0525767803192138,9.64272117614746,-0.9883124828338624,-1.438892483711243,0.1439263820648193
3999849324.0,-0.1041453927755355,0.3651597797870636,9.772021293640137,-0.9041696786880492,-0.8472805619239807,0.2995584607124328
3999857657.0,-0.444463163614273,0.5057418942451477,9.692368507385254,-0.9254550933837892,-0.2567698955535888,0.2874685525894165
3999865990.0,-0.7147262692451477,0.1786638349294662,9.565441131591797,-1.2718236446380615,-0.7173522114753723,0.3398624360561371
3999874323.0,-0.5144295692443848,-0.1844461113214492,9.551984786987305,-1.1096981763839722,-1.2903554439544678,0.2350618094205856
3999882656.0,-0.2176252454519271,0.0383893065154552,9.742043495178224,-0.8028525114059448,-1.1515134572982788,0.1561827957630157
3999890989.0,-0.324867695569992,0.5322003364562988,9.831275939941406,-0.8752768039703369,-0.5836586952209473,0.2435657531023025
3999899322.0,-0.6426113843917847,0.5101193189620972,9.621367454528809,-0.9752747416496276,-0.578177273273468,0.2569107711315155
3999907655.0,-0.5885463953018188,0.1121785342693328,9.57006549835205,-1.2679047584533691,-1.244134783744812,0.2136739641427993
3999915988.0,-0.2858862280845642,-0.0506300367414951,9.68160629272461,-1.210541605949402,-1.586020588874817,0.1937204599380493
3999924321.0,-0.012417335063219,0.1406606584787368,9.726929664611816,-0.7684399485588074,-0.8124452233314514,0.2999427318572998
3999932654.0,-0.4224470555782318,0.4608432650566101,9.743544578552246,-0.9436668157577516,-0.1734723895788192,0.2213069796562194
3999940987.0,-0.6801066398620605,0.2965497076511383,9.61829948425293,-1.147978663444519,-0.546710193157196,0.329155683517456
3999949320.0,-0.5813890695571899,0.014634896069765,9.630064964294434,-1.3135619163513184,-1.3332335948944092,0.2213069796562194
3999957653.0,-0.2888174057006836,0.1142810806632042,9.789423942565918,-0.9720601439476012,-1.1891409158706665,0.2300798892974853
3999965986.0,-0.3393308818340301,0.3252326250076294,9.760604858398438,-1.01076340675354,-0.7632273435592651,0.1987280398607254
3999974319.0,-0.5688726305961609,0.290884792804718,9.58056926727295,-1.0901801586151123,-0.5223126411437988,0.1760978549718856
3999982652.0,-0.530773937702179,0.0132657112553715,9.478923797607422,-1.193174958229065,-1.245581865310669,0.2599588632583618
3999990985.0,-0.2011770904064178,0.0553000308573246,9.693007469177246,-1.028040051460266,-1.331568717956543,0.2102416306734085
3999999318.0,-0.1413974016904831,0.333987683057785,9.87474250793457,-0.8396217823028564,-0.8664398789405823,0.2509426474571228
4000007651.0,-0.4526460170745849,0.3558897674083709,9.68047332763672,-1.0974161624908447,-0.2624434232711792,0.2263145595788955
4000015984.0,-0.7195045948028564,0.0080468775704503,9.446101188659668,-1.2067633867263794,-0.7516753077507019,0.1990353912115097
4000024317.0,-0.4928994476795196,-0.0874112695455551,9.591625213623049,-1.067434787750244,-1.5127638578414917,0.1629577577114105
4000032650.0,-0.2439762651920318,0.2111734896898269,9.846590042114258,-0.8979965448379517,-1.1412293910980225,0.2432840019464492
4000040983.0,-0.338365226984024,0.4489911198616028,9.779380798339844,-0.8953840136528015,-0.5188035368919373,0.2230231463909149
4000049316.0,-0.532886803150177,0.2989888489246368,9.544453620910645,-1.0421792268753052,-0.7278412580490112,0.1669535785913467
4000057649.0,-0.4547445178031921,0.015601834282279,9.481990814208984,-1.1371439695358276,-1.407604694366455,0.1656856834888458
4000065982.0,-0.199800357222557,0.0544045232236385,9.730262756347656,-0.9803207516670228,-1.2543931007385254,0.2282228171825409
4000074315.0,-0.2353927791118621,0.2674306035041809,9.832585334777832,-0.8910039663314819,-0.5192901492118835,0.2460759431123733
4000082648.0,-0.5745592713356018,0.3033663630485534,9.663820266723633,-0.9315256476402284,-0.47169890999794,0.2704862952232361
4000090981.0,-0.6574394106864929,0.1647227108478546,9.53317928314209,-1.043946385383606,-0.9669501185417176,0.2916180491447449
4000099314.0,-0.4041895866394043,0.1370013654232025,9.6737642288208,-1.0601859092712402,-1.299371600151062,0.2894408404827118
4000107647.0,-0.2845257818698883,0.2398992031812667,9.786483764648438,-1.064437985420227,-0.8926944732666016,0.1920555382966995
4000115980.0,-0.4383691251277923,0.1956016421318054,9.644571304321287,-0.9815247654914856,-0.709219753742218,0.2659270167350769
4000124313.0,-0.4514087736606598,0.0939525887370109,9.500598907470703,-0.9989423751831056,-1.0887459516525269,0.2403639853000641
4000132646.0,-0.2394561469554901,0.1193480938673019,9.618274688720703,-1.095969319343567,-1.3244225978851318,0.3088820874691009
4000140979.0,-0.2210514545440673,0.275820791721344,9.786691665649414,-1.0142850875854492,-0.8259181976318359,0.2290937006473541
4000149312.0,-0.4419741630554199,0.3353181183338165,9.74167823791504,-0.9761968851089478,-0.4781024754047394,0.2621104717254638
4000157645.0,-0.6356159448623657,0.0969496369361877,9.5419282913208,-1.0258500576019287,-0.8238306045532227,0.2957803606986999
4000165978.0,-0.5047833919525146,0.0096562132239341,9.533551216125488,-0.99289733171463,-1.1655629873275757,0.2708705365657806
4000174311.0,-0.3763039112091064,0.1868823319673538,9.700299263000488,-0.8979197144508362,-0.8597033023834229,0.1954110115766525
4000182644.0,-0.4354865252971649,0.361404538154602,9.793071746826172,-0.8799641728401184,-0.7457200884819031,0.1488955616950988
4000190977.0,-0.481643795967102,0.2762571275234222,9.647490501403809,-0.93010413646698,-0.9219586849212646,0.0868962854146957
4000199310.0,-0.3430718183517456,0.100182719528675,9.55021858215332,-1.0926648378372192,-1.200526475906372,0.1679525375366211
4000207643.0,-0.2120174169540405,0.1413330286741256,9.653290748596191,-0.9737891554832458,-1.026349663734436,0.2560654878616333
4000215976.0,-0.3417483568191528,0.3193674087524414,9.77915382385254,-0.9795780777931212,-0.5343513488769531,0.2640827894210815
4000224309.0,-0.5530291795730591,0.2632174789905548,9.672932624816896,-1.088797092437744,-0.6655474901199341,0.2437450438737869
4000232642.0,-0.5347822904586792,0.1101752370595932,9.602505683898926,-1.0474811792373655,-0.999428927898407,0.1807852685451507
4000240975.0,-0.4153012037277221,0.1458965390920639,9.664864540100098,-0.9970853328704834,-1.0717763900756836,0.2864823937416076
4000249308.0,-0.42035111784935,0.360145628452301,9.733316421508787,-0.9797572493553162,-0.8065794706344604,0.1899039298295974
4000257641.0,-0.5190460681915283,0.3184660375118255,9.732014656066896,-1.05841863155365,-0.8607022762298584,0.2474591135978698
4000265974.0,-0.4471820294857025,0.0663377717137336,9.6221284866333,-1.1875783205032349,-1.182814121246338,0.2068477421998977
4000274307.0,-0.2214019447565078,0.0463003516197204,9.634486198425291,-1.0256578922271729,-1.2550846338272097,0.1445155143737793
4000282640.0,-0.1908020824193954,0.3086952567100525,9.734468460083008,-1.007266879081726,-0.7804017066955566,0.1693869233131408
4000290973.0,-0.4755639135837555,0.3387801051139831,9.679234504699709,-1.0769120454788208,-0.4535128176212311,0.2884674966335296
4000299306.0,-0.6156954169273376,0.089524894952774,9.604049682617188,-1.093177080154419,-0.7977169752120972,0.2709729671478271
4000307639.0,-0.4792619347572326,-0.0260291956365108,9.553400993347168,-0.961315095424652,-1.2187893390655518,0.217464879155159
4000315972.0,-0.3260193765163421,0.2573307752609253,9.719999313354492,-0.8514299392700195,-1.0529370307922363,0.2514549493789673
4000324305.0,-0.3798803389072418,0.3962102830410003,9.779294967651367,-1.0052690505981443,-0.6770738363265991,0.2392625659704208
4000332638.0,-0.4741047322750091,0.1698227971792221,9.673625946044922,-1.0969679355621338,-0.8822695016860962,0.1819891333580017
4000340971.0,-0.3718834519386291,-0.0398627929389476,9.545927047729492,-1.106880784034729,-1.202447533607483,0.209088996052742
4000349304.0,-0.1955015063285827,0.1895717978477478,9.69778823852539,-0.9001224637031555,-1.0833925008773804,0.1998678594827652
4000357637.0,-0.3286659717559814,0.3958311676979065,9.76722812652588,-1.0034247636795044,-0.6216446757316589,0.2732270359992981
4000365970.0,-0.5807176828384399,0.2773373425006866,9.660802841186523,-1.0897191762924194,-0.6135761737823486,0.2201543450355529
4000374303.0,-0.546462893486023,0.056207038462162,9.55798625946045,-1.1742461919784546,-1.0401300191879272,0.2294010818004608
4000382636.0,-0.3283870220184326,0.1386363953351974,9.697602272033691,-0.9872366189956664,-1.1756293773651123,0.2455893009901046
4000390969.0,-0.3316558599472046,0.2776018381118774,9.733624458312988,-0.9667453169822692,-0.5862714052200317,0.1842944025993347
4000399302.0,-0.5461766719818115,0.1874332427978515,9.57437515258789,-0.9884404540061952,-0.6674685478210449,0.1991762965917587
4000407635.0,-0.4790104627609253,0.0591322518885135,9.532763481140137,-1.0392849445343018,-1.3221173286437988,0.2930012345314026
4000415968.0,-0.2045940905809402,0.1422774940729141,9.703235626220703,-1.0159245729446411,-1.3369989395141602,0.1557345390319824
4000424301.0,-0.1639645099639892,0.3546238243579864,9.788073539733888,-0.9040287733078004,-0.7679659724235535,0.2017761468887329
4000432634.0,-0.4510082006454468,0.2746548652648926,9.667196273803713,-1.0883359909057615,-0.4091745615005493,0.1932081580162048
4000440967.0,-0.6178123950958252,0.0324668586254119,9.476701736450195,-1.1502968072891235,-0.85773104429245,0.2902604639530182
4000449300.0,-0.4578535556793213,0.0224240608513355,9.599322319030762,-0.9666684865951538,-1.2479127645492554,0.2016864866018295
4000457633.0,-0.3471918404102325,0.2788035273551941,9.771970748901367,-0.7640214562416077,-0.9441664218902588,0.2410939633846283
4000465966.0,-0.4509223699569702,0.3541944921016693,9.73886013031006,-0.925532042980194,-0.6192881464958191,0.1698479801416397
4000474299.0,-0.4983171224594116,0.1870396882295608,9.576919555664062,-1.096660614013672,-1.031241774559021,0.2747895121574402
4000482632.0,-0.3079656660556793,0.0463003516197204,9.586934089660645,-1.045790672302246,-1.2961442470550537,0.1932593733072281
4000490965.0,-0.2037272751331329,0.1908163875341415,9.706830024719238,-0.956063985824585,-0.9797315001487732,0.2329358160495758
4000499298.0,-0.3680066168308258,0.3199967443943023,9.715498924255373,-0.9104067087173462,-0.498094379901886,0.2359199076890945
4000507631.0,-0.5622707009315491,0.2254361510276794,9.631016731262209,-0.9300527572631836,-0.7140223979949951,0.1587186157703399
4000515964.0,-0.5036888718605042,0.133464902639389,9.577613830566406,-1.1072903871536257,-1.01636004447937,0.2978679239749908
4000524297.0,-0.3624846935272217,0.2172675430774688,9.742865562438965,-1.0099307298660278,-1.0553960800170898,0.1665437370538711
4000532630.0,-0.4441700875759125,0.296206384897232,9.73912525177002,-1.0077664852142334,-0.6666616201400757,0.2658885717391968
4000540963.0,-0.5522854328155518,0.2021750658750534,9.625873565673828,-1.117139220237732,-0.8442707657814026,0.1584880650043487
4000549296.0,-0.419228047132492,0.0617434568703174,9.536506652832031,-0.9882996678352356,-1.2401388883590698,0.2388911843299865
4000557629.0,-0.1774977594614029,0.1985057890415191,9.71265983581543,-0.91400545835495,-1.2056235074996948,0.2129567414522171
4000565962.0,-0.2200214564800262,0.3327788710594177,9.813743591308594,-1.0925111770629885,-0.7097064256668091,0.2271470427513122
4000574295.0,-0.5209916234016418,0.2276535332202911,9.666659355163574,-1.0638359785079956,-0.4500164687633514,0.2633271515369415
4000582628.0,-0.6005455255508423,0.0108437100425362,9.527944564819336,-1.0465977191925049,-1.0207016468048096,0.282076746225357
4000590961.0,-0.42090904712677,0.0925863981246948,9.65666675567627,-0.9423476457595824,-1.3461816310882568,0.2867385447025299
4000599294.0,-0.3762180805206299,0.3257404565811157,9.766749382019045,-0.9356496930122375,-0.832040011882782,0.1631882786750793
4000607627.0,-0.5046616792678833,0.3423922955989837,9.690428733825684,-0.9385182857513428,-0.834498941898346,0.2877502739429474
4000615960.0,-0.4573599398136139,0.1267984509468078,9.588078498840332,-1.0845706462860107,-1.1307787895202637,0.2275824695825576
4000624293.0,-0.2257151156663894,0.0493045449256897,9.62686824798584,-1.033982515335083,-1.285539984703064,0.191773772239685
4000632626.0,-0.2036772072315216,0.2477601766586303,9.718388557434082,-0.8166586756706238,-0.716378927230835,0.2324875891208648
4000640959.0,-0.4393918812274933,0.3344671130180359,9.734119415283203,-0.9536306858062744,-0.5811485648155212,0.1963074952363968
4000649292.0,-0.5908033847808838,0.1966531127691269,9.637561798095703,-1.1349284648895264,-0.9503521919250488,0.2348569333553314
4000657625.0,-0.4234339892864227,0.0843391716480255,9.639764785766602,-0.9634153842926024,-1.1643588542938232,0.2356253415346145
4000665958.0,-0.3778132796287536,0.2464368045330047,9.731242179870604,-1.0060503482818604,-0.8648133873939514,0.2818206250667572
4000674291.0,-0.482280433177948,0.3249607980251312,9.708939552307127,-1.1217368841171265,-0.6456452012062073,0.2703582346439361
4000682624.0,-0.5906316041946411,0.147119790315628,9.545047760009766,-1.196761131286621,-0.9975592494010924,0.2823713421821594
4000690957.0,-0.3874975442886352,0.0185015238821506,9.581572532653809,-1.0699962377548218,-1.3427109718322754,0.2205897569656372
4000699290.0,-0.1793575137853622,0.2605352103710174,9.780877113342283,-0.927401840686798,-1.1484780311584473,0.1466927081346511
4000707623.0,-0.2252930998802185,0.4029768705368042,9.784088134765623,-1.0644123554229736,-0.5653189420700073,0.2587037682533264
4000715956.0,-0.5207483172416687,0.1850727200508117,9.590868949890137,-1.2216966152191162,-0.596939742565155,0.2411196082830429
4000724289.0,-0.5771343111991882,-0.0729804560542106,9.48847484588623,-1.0194337368011477,-1.0462006330490112,0.157860517501831
4000732622.0,-0.3294956684112549,0.0918783992528915,9.692769050598145,-0.8839856386184692,-1.322065830230713,0.2611114978790283
4000740955.0,-0.3465482294559479,0.3350676000118255,9.799565315246582,-0.89986652135849,-0.6568129658699036,0.2640571594238281
4000749288.0,-0.5644451379776001,0.326341301202774,9.676680564880373,-1.078269600868225,-0.614549458026886,0.1705139428377151
4000757621.0,-0.5466488599777222,0.0812133774161338,9.566991806030272,-1.0750935077667236,-1.260105013847351,0.14797343313694
4000765954.0,-0.2556497454643249,0.0706773400306701,9.639708518981934,-0.9188979268074036,-1.3346681594848633,0.2051188051700592
4000774287.0,-0.2245635092258453,0.2564222812652588,9.736207008361816,-1.0439082384109497,-0.6685827970504761,0.1588466763496399
4000782620.0,-0.4764150977134704,0.3023435175418854,9.656495094299316,-0.9030297994613647,-0.5482214689254761,0.1603323072195053
4000790953.0,-0.5732645392417908,0.1487291157245636,9.589216232299805,-1.0176663398742676,-0.9111623167991638,0.1555296331644058
4000799286.0,-0.3932919204235077,0.1135585382580757,9.660622596740724,-0.9861352443695068,-1.1366957426071167,0.2269933372735977
4000807619.0,-0.3707104027271271,0.2634821236133575,9.78925895690918,-1.1120164394378662,-0.7918127775192261,0.2780041098594665
4000815952.0,-0.5122939348220825,0.2855772078037262,9.700827598571776,-1.0793710947036743,-0.7201058864593506,0.2529149651527405
4000824285.0,-0.5471996665000916,0.1029222607612609,9.54969596862793,-1.0336496829986572,-1.136183500289917,0.2420545220375061
4000832618.0,-0.2902325093746185,0.041000984609127,9.551924705505373,-1.0441770553588867,-1.316456317901611,0.2424899339675903
4000840951.0,-0.1795006841421127,0.2644476890563965,9.768336296081545,-0.8635966777801514,-0.9395685195922852,0.2918485701084137
4000849284.0,-0.3199111521244049,0.3612827658653259,9.786088943481444,-1.072941780090332,-0.5462875366210938,0.3455360233783722
4000857617.0,-0.5359267592430115,0.1335721909999847,9.587069511413574,-1.0567920207977295,-0.6787516474723816,0.27580127120018
4000865950.0,-0.5798024535179138,0.0006507813232019,9.528472900390623,-0.9305907487869264,-0.9907841682434082,0.3305900990962982
4000874283.0,-0.4109309315681457,0.1907447576522827,9.721885681152344,-0.9321146607398988,-1.0652062892913818,0.2914899885654449
4000882616.0,-0.4070897400379181,0.35023894906044,9.80506706237793,-0.9191411137580872,-0.7328232526779175,0.3627103567123413
4000890949.0,-0.5069577693939209,0.2550203204154968,9.629379272460938,-0.9283366799354552,-0.7460914254188538,0.2883266508579254
4000899282.0,-0.4011242687702179,0.0762994810938835,9.585933685302734,-1.0493512153625488,-1.280775785446167,0.1848835349082946
4000907615.0,-0.1739499866962433,0.1451812535524368,9.67158031463623,-0.7888031601905823,-1.154062032699585,0.2348312735557556
4000915948.0,-0.2314945012331009,0.3061489164829254,9.726107597351074,-0.8150066137313843,-0.6117063760757446,0.2230743914842605
4000924281.0,-0.526792585849762,0.3095392882823944,9.691122055053713,-0.9562689661979676,-0.6128333210945129,0.3081904649734497
4000932614.0,-0.547886312007904,0.1246454417705535,9.603629112243652,-1.06401526927948,-0.9653750061988832,0.2998786568641662
4000940947.0,-0.35007444024086,0.1145098656415939,9.676351547241213,-1.0470587015151978,-1.0394256114959717,0.2966256439685821
4000949280.0,-0.4480469226837158,0.2913782000541687,9.707974433898926,-0.9197431206703186,-0.5827110409736633,0.2087816298007965
4000957613.0,-0.6087211966514587,0.31407430768013,9.645652770996094,-0.9964448809623718,-0.7581813335418701,0.1085659340023994
4000965946.0,-0.5158272981643677,0.0869785696268081,9.561762809753418,-1.0353530645370483,-1.223950743675232,0.2861238121986389
4000974279.0,-0.2171593308448791,0.0955045893788337,9.639776229858398,-1.0915377140045166,-1.3514198064804075,0.1760722398757934
4000982612.0,-0.1587287336587906,0.366075336933136,9.798486709594728,-0.8357540965080261,-0.88270503282547,0.311238557100296
4000990945.0,-0.3681639730930328,0.3323139250278473,9.688618659973145,-1.0172566175460815,-0.5744120478630066,0.329860121011734
4000999278.0,-0.5402113199234009,0.0238690376281738,9.52401065826416,-1.1952755451202393,-0.7434148192405701,0.2431303262710571
4001007611.0,-0.4980238378047943,-0.0018025164026767,9.539982795715332,-1.0442283153533936,-1.0880032777786257,0.2057079374790191
4001015944.0,-0.3638294637203216,0.2706992626190185,9.74510383605957,-0.8539657592773438,-0.9797059893608092,0.2849583625793457
4001024277.0,-0.4415163695812225,0.3849016427993774,9.769538879394531,-0.9604698419570924,-0.8185157179832458,0.2548360526561737
4001032610.0,-0.5661545395851135,0.2063453197479248,9.608057022094728,-1.0780646800994873,-0.946279525756836,0.2771716117858886
4001040943.0,-0.4279976785182953,0.0381025783717632,9.54928493499756,-1.1143088340759275,-1.3322603702545166,0.2481763660907745
4001049276.0,-0.1942211389541626,0.1335221230983734,9.683225631713867,-1.0005559921264648,-1.236488699913025,0.2436938136816024
4001057609.0,-0.3065853416919708,0.2862995564937591,9.738994598388672,-0.9256088137626648,-0.5420355796813965,0.2755067050457001
4001065942.0,-0.5630287528038025,0.2795404195785522,9.633421897888184,-0.9924876689910888,-0.6776118278503418,0.2112918347120285
4001074275.0,-0.4951734244823456,0.0981175377964973,9.599204063415527,-1.159415602684021,-1.2590807676315308,0.2023524791002273
4001082608.0,-0.3114848434925079,0.1526416689157486,9.721635818481444,-1.0444587469100952,-1.0903339385986328,0.261444479227066
4001090941.0,-0.418548434972763,0.319338858127594,9.788931846618652,-0.9591378569602966,-0.631531834602356,0.275481104850769
4001099274.0,-0.5702533721923828,0.2379177808761596,9.628019332885742,-0.9934352040290833,-0.8240995407104492,0.2431815266609192
4001107607.0,-0.483719915151596,0.018310023471713,9.53965663909912,-1.1318033933639526,-1.3412766456604004,0.2093707472085952
4001115940.0,-0.230607658624649,0.1293234080076217,9.644757270812988,-0.890466034412384,-1.2083131074905396,0.2157231122255325
4001124273.0,-0.2203719317913055,0.3867756724357605,9.81180477142334,-0.971803903579712,-0.9187313318252563,0.3114306330680847
4001132606.0,-0.4258015751838684,0.2512793838977813,9.679069519042969,-1.0962507724761963,-0.5778955221176147,0.3386457860469818
4001140939.0,-0.5621204972267151,-0.0317228585481643,9.476415634155272,-1.0832899808883667,-0.8184643983840942,0.2607272863388061
