SampleTimeFine,Acc_X,Acc_Y,Acc_Z,Gyr_X,Gyr_Y,Gyr_Z
4199180185.0,0.0,0.0,0.0,0.0,0.0,0.0
4199188518.0,-0.641905665397644,-0.3557827472686767,9.682439804077148,-3.559277534484864,-3.2707841396331787,-0.430370420217514
4199196851.0,-0.2937760651111603,-0.5055369138717651,10.178857803344728,-3.249601364135742,-2.9677677154541016,-0.3837524652481079
4199205184.0,-0.3933660089969635,-0.0765821933746337,10.01422882080078,-2.7989184856414795,-2.332483291625977,-0.4714299738407135
4199213517.0,-0.8125205039978027,0.2151483744382858,9.525614738464355,-2.955472946166992,-2.2424750328063965,-0.4133625328540802
4199221850.0,-0.8773700594902039,-0.0852388888597488,9.56998062133789,-3.5113532543182373,-2.917179822921753,-0.3373394906520843
4199230183.0,-0.5190537571907043,-0.4526165425777435,10.071791648864746,-3.508535623550415,-3.1005778312683105,-0.4050635397434234
4199238516.0,-0.3642489612102508,-0.2839493751525879,10.115188598632812,-3.0485801696777344,-2.712419033050537,-0.4314717650413513
4199246849.0,-0.6529719829559326,0.0570183098316192,9.65712547302246,-2.95257830619812,-2.290860414505005,-0.3594189286231994
4199255182.0,-0.7863819599151611,-0.0427809655666351,9.482440948486328,-3.313688039779663,-2.993792057037353,-0.3654127120971679
4199263515.0,-0.4653678238391876,-0.3617825806140899,9.941262245178224,-3.436329364776612,-3.2674546241760254,-0.368358314037323
4199271848.0,-0.2422104030847549,-0.3359275758266449,10.162084579467772,-3.17975115776062,-2.840618848800659,-0.2225621044635772
4199280181.0,-0.5579473376274109,-0.0412253551185131,9.826749801635742,-2.9579572677612305,-2.19557523727417,-0.2523514330387115
4199288514.0,-0.9629333019256592,-0.0876857489347457,9.485020637512209,-3.316197872161865,-2.5152151584625244,-0.4302679002285003
4199296847.0,-0.8174457550048828,-0.4556533694267273,9.783053398132324,-3.6181390285491934,-3.192199945449829,-0.3538606762886047
4199305180.0,-0.4040986895561218,-0.4865234196186065,10.196231842041016,-3.2157647609710693,-3.1002190113067627,-0.426553875207901
4199313513.0,-0.3984253108501434,-0.0212209187448024,10.029424667358398,-2.86277437210083,-2.5386266708374023,-0.3634915351867676
4199321846.0,-0.71097332239151,0.1076842546463012,9.508971214294434,-3.135284900665283,-2.4364001750946045,-0.4602109491825104
4199330179.0,-0.7372106313705444,-0.2819732427597046,9.586928367614746,-3.6425492763519287,-2.976553678512573,-0.3961498141288757
4199338512.0,-0.4152999818325043,-0.6556229591369629,10.059404373168944,-3.4443464279174805,-3.187333106994629,-0.3528617322444916
4199346845.0,-0.3385331630706787,-0.3696526885032654,10.17142391204834,-2.983750820159912,-2.514242172241211,-0.2612395882606506
4199355178.0,-0.6919553279876709,0.064857542514801,9.73758029937744,-2.829707384109497,-2.128927230834961,-0.3418732285499573
4199363511.0,-0.9395493865013124,0.000545292161405,9.49811553955078,-3.3130221366882324,-2.690237522125244,-0.4291665256023407
4199371844.0,-0.6663778424263,-0.4476836025714874,9.88933277130127,-3.535942792892456,-3.228802442550659,-0.2761982977390289
4199380177.0,-0.3771299421787262,-0.4994925558567047,10.178937911987305,-3.220247507095337,-2.97460675239563,-0.3714064657688141
4199388510.0,-0.5169169902801514,-0.1283122897148132,9.835785865783691,-2.918281078338623,-2.517366886138916,-0.4283468425273895
4199396843.0,-0.7471713423728943,-0.0111337825655937,9.501934051513672,-3.1588244438171387,-2.704146146774292,-0.4060112237930298
4199405176.0,-0.5552088618278503,-0.3301652371883392,9.7145414352417,-3.4414777755737305,-3.3132784366607666,-0.4026558101177215
4199413509.0,-0.2819711565971374,-0.4656312465667724,10.12149715423584,-3.20869517326355,-3.019483089447021,-0.3813703656196594
4199421842.0,-0.3997170031070709,-0.1361306756734848,9.97182559967041,-2.825301170349121,-2.286480188369751,-0.4127221703529358
4199430175.0,-0.8132175803184509,-0.0045522954314947,9.50906753540039,-3.022991418838501,-2.3074066638946533,-0.4301910102367401
4199438508.0,-0.878887414932251,-0.334124207496643,9.611963272094728,-3.4578452110290527,-3.004678249359131,-0.3934602737426758
4199446841.0,-0.5230834484100342,-0.5297752618789673,10.071393966674805,-3.257490396499634,-3.27160382270813,-0.443997174501419
4199455174.0,-0.3508828282356262,-0.2033199369907379,10.154389381408691,-2.688188314437866,-2.7199244499206543,-0.4651032984256744
4199463507.0,-0.5690655708312988,0.1788634359836578,9.67172622680664,-2.808293581008911,-2.4485671520233154,-0.4480441808700561
4199471840.0,-0.7473713159561157,-0.0088752675801515,9.444242477416992,-3.4099209308624268,-2.723741054534912,-0.41525799036026
4199480173.0,-0.5021059513092041,-0.4787603914737701,9.887701988220217,-3.513812303543091,-3.2826948165893555,-0.4135418534278869
4199488506.0,-0.2699479460716247,-0.4426602125167846,10.22427749633789,-3.127754211425781,-2.892590045928955,-0.428705483675003
4199496839.0,-0.4701557755470276,0.0014545794110745,9.905390739440918,-2.712445020675659,-2.220139503479004,-0.3490964472293854
4199505172.0,-0.8435615301132202,0.1591891199350357,9.54018497467041,-3.167558431625366,-2.366934537887573,-0.3829584121704101
4199513505.0,-0.7908414602279663,-0.2303189039230346,9.746554374694824,-3.5649638175964355,-3.1539065837860107,-0.4955073893070221
4199521838.0,-0.5041823387145996,-0.4210250973701477,10.16611099243164,-3.240713357925415,-3.1533944606781006,-0.3247885406017303
4199530171.0,-0.5124574303627014,-0.1639654636383056,9.967303276062012,-3.0551373958587646,-2.6624972820281982,-0.36395263671875
4199538504.0,-0.6953896880149841,0.0221120826900005,9.57281494140625,-3.027935266494751,-2.544492244720459,-0.3583687245845794
4199546837.0,-0.6605023741722107,-0.2207232266664505,9.570514678955078,-3.481743097305298,-3.124885320663452,-0.4033986032009125
4199555170.0,-0.4041093587875366,-0.3984329402446747,10.00545597076416,-3.428337574005127,-3.196272611618042,-0.4207138419151306
4199563503.0,-0.3530185520648956,-0.2041214853525161,10.076214790344238,-2.9498631954193115,-2.630479097366333,-0.4136698842048645
4199571836.0,-0.6962249875068665,0.0339189283549785,9.683675765991213,-2.9371585845947266,-2.30097770690918,-0.3635172247886657
4199580169.0,-0.8927977085113525,-0.1357244551181793,9.51595401763916,-3.377416610717773,-2.600383043289185,-0.3675130903720855
4199588502.0,-0.6708957552909851,-0.5162250399589539,9.955628395080566,-3.4146852493286133,-3.20782470703125,-0.2944100499153137
4199596835.0,-0.3755393028259277,-0.3333231806755066,10.183947563171388,-3.0694820880889893,-3.005138874053955,-0.246357724070549
4199605168.0,-0.4760074913501739,0.0909976884722709,9.874590873718262,-2.9094691276550293,-2.4181368350982666,-0.3483023345470428
4199613501.0,-0.7401406764984131,0.1075273975729942,9.45172119140625,-3.2208614349365234,-2.475154399871826,-0.394536018371582
4199621834.0,-0.6071657538414001,-0.355539858341217,9.742292404174805,-3.5822019577026367,-3.0644872188568115,-0.3526311814785003
4199630167.0,-0.333025723695755,-0.5284023284912109,10.185959815979004,-3.276573181152344,-2.9498636722564697,-0.3835732042789459
4199638500.0,-0.415395975112915,-0.1671225130558014,10.043694496154783,-2.883599042892456,-2.3798182010650635,-0.3742495775222778
4199646833.0,-0.7631562948226929,0.0883444175124168,9.596664428710938,-3.083082914352417,-2.2908859252929688,-0.4452009797096252
4199655166.0,-0.822364330291748,-0.1740282773971557,9.583894729614258,-3.5540010929107666,-2.8872365951538086,-0.4203552603721618
4199663499.0,-0.5251104235649109,-0.4893971979618072,10.030010223388672,-3.464120626449585,-3.072939872741699,-0.3840342462062835
4199671832.0,-0.4269501864910126,-0.3023512363433838,10.086126327514648,-2.9957895278930664,-2.608860969543457,-0.3617498278617859
4199680165.0,-0.645301103591919,-0.0537642911076545,9.682483673095703,-2.933034658432007,-2.353256225585937,-0.4725057780742645
4199688498.0,-0.7240000367164612,-0.1747645884752273,9.49008083343506,-3.41104793548584,-2.703582525253296,-0.3952276706695556
4199696831.0,-0.4343224763870239,-0.4881148636341095,9.954704284667969,-3.4036710262298584,-3.1460940837860107,-0.3947409689426422
4199705164.0,-0.275753915309906,-0.3665014803409576,10.115267753601074,-2.9639508724212646,-2.679863452911377,-0.4125171899795532
4199713497.0,-0.5678896307945251,-0.0600988306105136,9.792142868041992,-2.9207653999328613,-2.1789772510528564,-0.3699207901954651
4199721830.0,-0.8704019784927368,-0.1122068986296653,9.47963047027588,-3.2353079319000244,-2.475026130676269,-0.430754542350769
4199730163.0,-0.7385690212249756,-0.5089410543441772,9.82382106781006,-3.412174940109253,-3.0763463973999023,-0.4240692853927612
4199738496.0,-0.4305352568626404,-0.4306187033653259,10.14984893798828,-3.084261417388916,-3.0601327419281006,-0.3698951601982116
4199746829.0,-0.4418401420116424,-0.0154981864616274,9.936460494995115,-2.8658998012542725,-2.468008279800415,-0.383854866027832
4199755162.0,-0.6686859726905823,0.0783420130610466,9.508950233459473,-3.1180970668792725,-2.518801212310791,-0.4505543410778045
4199763495.0,-0.6140406727790833,-0.3248697221279144,9.629010200500488,-3.309333562850952,-2.929781913757324,-0.4449961483478546
4199771828.0,-0.4012937545776367,-0.5463170409202576,10.068350791931152,-3.294989824295044,-3.039487838745117,-0.4504263401031494
4199780161.0,-0.3840264678001404,-0.2270773649215698,10.055633544921877,-2.945918798446656,-2.438628673553467,-0.3808068037033081
4199788494.0,-0.677497923374176,0.0937419608235359,9.68407154083252,-2.86213493347168,-2.1963951587677,-0.3960985839366913
4199796827.0,-0.8468331098556519,-0.0676315873861312,9.576998710632324,-3.2708866596221924,-2.767131328582764,-0.3322422504425049
4199805160.0,-0.632461428642273,-0.3862456977367401,9.958551406860352,-3.3915297985076904,-3.03582501411438,-0.3389788269996643
4199813493.0,-0.4687823355197906,-0.3036950528621673,10.099831581115724,-2.9833667278289795,-2.7969207763671875,-0.3722003996372223
4199821826.0,-0.6531067490577698,-0.0331483595073223,9.764229774475098,-2.918613910675049,-2.4038445949554443,-0.3663603961467743
4199830159.0,-0.770424485206604,-0.0680166333913803,9.554375648498535,-3.222193956375122,-2.764518976211548,-0.3759145140647888
4199838492.0,-0.5329342484474182,-0.3481868207454681,9.819487571716309,-3.4275686740875244,-3.355593204498291,-0.3928711414337158
4199846825.0,-0.2885136306285858,-0.3105293214321136,10.07965850830078,-3.0896403789520264,-2.9319334030151367,-0.301428347826004
4199855158.0,-0.5146903395652771,-0.0153891248628497,9.87371826171875,-2.963976621627808,-2.292807102203369,-0.3366478979587555
4199863491.0,-0.8192367553710938,-0.0554766170680522,9.538090705871582,-3.2702462673187256,-2.392651081085205,-0.3856991529464721
4199871824.0,-0.7954368591308594,-0.3950414061546325,9.733150482177734,-3.5095345973968506,-2.976681709289551,-0.3361612558364868
4199880157.0,-0.4794511795043945,-0.4218811988830566,10.104491233825684,-3.100090742111206,-3.1547772884368896,-0.3625694811344147
4199888490.0,-0.4746181666851043,-0.0308863930404186,10.003732681274414,-2.822099208831787,-2.59157133102417,-0.4109291136264801
4199896823.0,-0.7002819776535034,0.16022290289402,9.56288719177246,-3.1051626205444336,-2.49382758140564,-0.4507336914539337
4199905156.0,-0.704586923122406,-0.1848185956478119,9.558320045471191,-3.512838840484619,-2.989795923233032,-0.219155415892601
4199913489.0,-0.4057385623455047,-0.5249133110046387,10.00912857055664,-3.3539538383483887,-3.1414835453033447,-0.4057807326316833
4199921822.0,-0.3363440036773681,-0.2701069414615631,10.1249418258667,-3.0133867263793945,-2.630018472671509,-0.3862626552581787
4199930155.0,-0.6264639496803284,0.0816858112812042,9.741809844970703,-2.9559338092803955,-2.2634527683258057,-0.4791142046451568
4199938488.0,-0.8202522397041321,0.0137246660888195,9.540816307067873,-3.2454004287719727,-2.63696026802063,-0.4807023704051971
4199946821.0,-0.6310255527496338,-0.358553946018219,9.904915809631348,-3.484740257263184,-3.111079692840576,-0.4014519453048706
4199955154.0,-0.4004327952861786,-0.3418760001659393,10.13637351989746,-3.11228346824646,-2.9037322998046875,-0.3218940794467926
4199963487.0,-0.5705315470695496,-0.0657319724559784,9.834884643554688,-3.0069313049316406,-2.4404470920562744,-0.426937997341156
4199971820.0,-0.7247791290283203,-0.0336051769554615,9.524395942687988,-3.212562799453736,-2.649228811264038,-0.4336746037006378
4199980153.0,-0.5564562678337097,-0.3643836975097656,9.796012878417969,-3.494678497314453,-3.2408413887023926,-0.3482767939567566
4199988486.0,-0.2706443667411804,-0.3972609937191009,10.17337703704834,-3.2214255332946777,-2.8428215980529785,-0.36697518825531
4199996819.0,-0.4205949306488037,-0.086539015173912,9.931038856506348,-2.974273681640625,-2.2626333236694336,-0.3948690295219421
4200005152.0,-0.7970174551010132,-0.0458011291921138,9.558320999145508,-3.142610549926758,-2.2138895988464355,-0.4962245523929596
4200013485.0,-0.8352115750312805,-0.3949425816535949,9.661883354187012,-3.469909429550171,-2.8237643241882324,-0.514103353023529
4200021818.0,-0.5107391476631165,-0.5267984867095947,10.071178436279297,-3.2611279487609863,-3.105982542037964,-0.3615193665027618
4200030151.0,-0.3937472105026245,-0.1475844383239746,10.073860168457031,-2.8350346088409424,-2.654582262039185,-0.3872615694999695
4200038484.0,-0.6091896295547485,0.1534795463085174,9.674890518188477,-2.9319331645965576,-2.365781784057617,-0.2503022849559784
4200046817.0,-0.7150848507881165,-0.1167141795158386,9.509570121765137,-3.406053066253662,-2.7963571548461914,-0.4981968998908996
4200055150.0,-0.44892019033432,-0.5447643995285034,9.853919982910156,-3.4457039833068848,-3.0841846466064453,-0.3417963683605194
4200063483.0,-0.370758444070816,-0.3825857937335968,10.105151176452637,-3.002218723297119,-2.8069615364074707,-0.2952296435832977
4200071816.0,-0.5555208325386047,-0.0120009463280439,9.888503074645996,-2.855731010437012,-2.3940343856811523,-0.4428445100784302
4200080149.0,-0.7983363270759583,0.0146552063524723,9.632623672485352,-3.1037023067474365,-2.330357313156128,-0.4946108162403106
4200088482.0,-0.7278397679328918,-0.3451606631278991,9.769675254821776,-3.424366950988769,-3.014206647872925,-0.3532459139823913
4200096815.0,-0.5370566248893738,-0.3904884457588196,9.99669075012207,-3.2129218578338623,-2.89005446434021,-0.4027839004993438
4200105148.0,-0.533393383026123,-0.0952306017279625,9.906272888183594,-3.006803512573242,-2.564112901687622,-0.3111616969108581
4200113481.0,-0.7008993625640869,-0.0797152370214462,9.644393920898438,-3.121811628341675,-2.4994113445281982,-0.378603994846344
4200121814.0,-0.633086621761322,-0.3113661408424377,9.72397518157959,-3.311203718185425,-2.9779624938964844,-0.4692016243934631
4200130147.0,-0.3757276237010956,-0.4013054668903351,10.04794692993164,-3.1937365531921387,-2.9727370738983154,-0.4383620619773865
4200138480.0,-0.3801285922527313,-0.1132794246077537,9.962586402893066,-2.9963526725769043,-2.4675211906433105,-0.4498115181922912
4200146813.0,-0.7065097093582153,0.0114767532795667,9.65187931060791,-3.039820432662964,-2.3296146392822266,-0.3902328610420227
4200155146.0,-0.9121708869934082,-0.2886477410793304,9.632966995239258,-3.3955769538879395,-2.717388391494751,-0.3341121077537536
4200163479.0,-0.6602058410644531,-0.5304199457168579,9.97420597076416,-3.3155579566955566,-3.112334489822388,-0.4606720507144928
4200171812.0,-0.4147367477416992,-0.2055342644453048,10.126447677612305,-2.8438971042633057,-2.843794822692871,-0.3060132563114166
4200180145.0,-0.5687132477760315,0.1482264399528503,9.75401782989502,-2.936185121536255,-2.397287368774414,-0.4896929264068603
4200188478.0,-0.7345524430274963,0.0088665168732404,9.512937545776367,-3.322345733642578,-2.751455545425415,-0.3425647914409637
4200196811.0,-0.5554399490356445,-0.4508227407932281,9.826960563659668,-3.4514667987823486,-3.0988104343414307,-0.3873897194862366
4200205144.0,-0.2973191440105438,-0.4584293961524963,10.111482620239258,-3.101115465164185,-2.986722469329834,-0.3842135369777679
4200213477.0,-0.4465759396553039,-0.0190498251467943,9.944839477539062,-2.92944884300232,-2.342216968536377,-0.3904121518135071
4200221810.0,-0.7811917066574097,0.1520717144012451,9.58110237121582,-3.1265501976013184,-2.29905652999878,-0.4141309559345245
4200230143.0,-0.7852529883384705,-0.2176477164030075,9.68906021118164,-3.49045205116272,-2.825224637985229,-0.3525799512863159
4200238476.0,-0.5176875591278076,-0.4646250605583191,10.051228523254396,-3.3510079383850098,-3.066638708114624,-0.3795773684978485
4200246809.0,-0.4729072451591491,-0.1911559849977493,10.002618789672852,-2.99714732170105,-2.709268808364868,-0.2969202101230621
4200255142.0,-0.6947537660598755,0.0476021356880664,9.641048431396484,-3.0621559619903564,-2.4444174766540527,-0.5055736899375916
4200263475.0,-0.7257179021835327,-0.1158033162355423,9.58060073852539,-3.30054783821106,-2.978423357009888,-0.4335978031158447
4200271808.0,-0.4363607168197632,-0.4158656597137451,9.938721656799316,-3.4968557357788086,-3.2076966762542725,-0.4111853539943695
4200280141.0,-0.2650430500507355,-0.3204201161861419,10.07137393951416,-3.088385343551636,-2.8452038764953613,-0.4273479282855987
4200288474.0,-0.5204238295555115,-0.0003547221422195,9.825926780700684,-2.990487098693848,-2.267884016036988,-0.4311899542808532
4200296807.0,-0.8507701754570007,-0.0545554831624031,9.518338203430176,-3.085900068283081,-2.438474655151367,-0.4762710034847259
4200305140.0,-0.7779474854469299,-0.4630421102046966,9.827014923095703,-3.584712505340576,-3.077934741973877,-0.3671800494194031
4200313473.0,-0.4389466643333435,-0.4989524483680725,10.136736869812012,-3.155059576034546,-3.003884077072144,-0.4015544056892395
4200321806.0,-0.4195133745670318,-0.022812770679593,9.952251434326172,-2.7585506439208984,-2.504380464553833,-0.508135199546814
4200330139.0,-0.6688546538352966,0.1592484265565872,9.577181816101074,-3.035363912582397,-2.4944167137146,-0.4908455610275268
4200338472.0,-0.7168715000152588,-0.2060490399599075,9.540460586547852,-3.496214866638184,-2.871791362762451,-0.4188952147960663
4200346805.0,-0.4407775998115539,-0.6145267486572266,9.99822998046875,-3.490657091140747,-3.1066482067108154,-0.3811910450458526
4200355138.0,-0.3932038247585296,-0.2884931266307831,10.077006340026855,-2.9634387493133545,-2.6762516498565674,-0.4605695307254791
4200363471.0,-0.5917841792106628,0.0104761980473995,9.837920188903809,-2.866821527481079,-2.331740379333496,-0.3370064496994018
4200371804.0,-0.8211571574211121,0.0982959866523742,9.496871948242188,-3.299241542816162,-2.522746086120605,-0.3699720203876495
4200380137.0,-0.6919167041778564,-0.39317587018013,9.813478469848633,-3.477772951126098,-3.0414342880249023,-0.3814728260040283
4200388470.0,-0.5150249600410461,-0.5829012393951416,10.146294593811035,-3.298703670501709,-2.876222610473633,-0.3179751336574554
4200396803.0,-0.5229816436767578,-0.1091265380382537,9.90302562713623,-2.8889520168304443,-2.592647075653076,-0.2713571786880493
4200405136.0,-0.695979654788971,0.0430825725197792,9.590453147888184,-3.0131044387817383,-2.661113977432251,-0.4491711854934692
4200413469.0,-0.6497929096221924,-0.2032796293497085,9.675426483154297,-3.414839029312134,-2.9132864475250244,-0.2842411696910858
4200421802.0,-0.4407954216003418,-0.5168781280517578,10.055136680603027,-3.3672988414764404,-3.0734522342681885,-0.3410023152828216
4200430135.0,-0.3951172828674316,-0.2642212212085724,10.046502113342283,-2.999529361724853,-2.611806631088257,-0.3602129817008972
4200438468.0,-0.6645752787590027,0.0307462755590677,9.688980102539062,-2.8358798027038574,-2.3347630500793457,-0.4352882802486419
4200446801.0,-0.8932995796203613,-0.0931875109672546,9.55416202545166,-3.3155064582824707,-2.519364833831787,-0.2962030172348022
4200455134.0,-0.734788179397583,-0.4906914234161377,9.926565170288086,-3.431282758712769,-3.0601837635040283,-0.3583943843841553
4200463467.0,-0.4207694828510284,-0.4746000170707702,10.213899612426758,-2.954396963119507,-2.9453041553497314,-0.3707148134708404
4200471800.0,-0.4684578776359558,0.0527907535433769,9.872431755065918,-2.7544264793396,-2.4458770751953125,-0.3916415870189667
4200480133.0,-0.6703383326530457,0.1981303542852401,9.489752769470217,-3.100321054458618,-2.477383136749268,-0.4312924742698669
4200488466.0,-0.6894723773002625,-0.2308379709720611,9.628096580505373,-3.5159895420074463,-2.8404653072357178,-0.478064090013504
4200496799.0,-0.4393555521965027,-0.6424065828323364,10.092424392700195,-3.2800052165985107,-3.125782012939453,-0.4297300577163696
4200505132.0,-0.3663596212863922,-0.3034402728080749,10.11825942993164,-2.9363901615142822,-2.5830674171447754,-0.380320131778717
4200513465.0,-0.6103358864784241,0.1566486954689026,9.726167678833008,-2.72865891456604,-2.223879337310791,-0.3718162477016449
4200521798.0,-0.8382784128189087,0.1174960508942604,9.517417907714844,-3.2746005058288574,-2.659987211227417,-0.3983525931835174
4200530131.0,-0.7104318141937256,-0.3711110055446625,9.84101104736328,-3.6538450717926025,-3.0350565910339355,-0.2770435810089111
4200538464.0,-0.4531915485858917,-0.5558505654335022,10.173287391662598,-3.3000099658966064,-3.022172451019287,-0.382574200630188
4200546797.0,-0.444330632686615,-0.1412840485572815,9.914108276367188,-2.924325704574585,-2.595310688018799,-0.3481230437755584
4200555130.0,-0.6468684673309326,0.1033946946263313,9.541494369506836,-2.9105453491210938,-2.5583243370056152,-0.3411559760570526
4200563463.0,-0.6645966172218323,-0.1408282220363617,9.63048267364502,-3.4705498218536377,-2.968101024627685,-0.3983013927936554
4200571796.0,-0.4325164556503296,-0.5157412886619568,10.061307907104492,-3.484611988067627,-3.019021987915039,-0.4042950868606567
4200580129.0,-0.3724465668201446,-0.2935898005962372,10.05018424987793,-3.083339214324951,-2.521977424621582,-0.3797310292720794
4200588462.0,-0.6922411918640137,0.1445600986480713,9.600847244262695,-3.040896415710449,-2.3772568702697754,-0.3528617024421692
4200596795.0,-0.8019939064979553,-0.0609895773231983,9.598344802856444,-3.3217310905456543,-2.6444907188415527,-0.3473034501075744
4200605128.0,-0.6437507271766663,-0.5393064618110657,9.949912071228027,-3.5580732822418213,-2.9836742877960205,-0.3577540516853332
4200613461.0,-0.4293374717235565,-0.50246661901474,10.196057319641112,-3.1187636852264404,-2.892897367477417,-0.3910525441169739
4200621794.0,-0.4620358049869537,-0.0151942512020468,9.875654220581056,-2.8317816257476807,-2.565213918685913,-0.4467378258705139
4200630127.0,-0.6861458420753479,0.2534464597702026,9.52179718017578,-3.0189449787139893,-2.6064016819000244,-0.3111872971057892
4200638460.0,-0.6999424695968628,-0.1154903694987297,9.641032218933104,-3.488377332687378,-2.9163856506347656,-0.3944079875946045
4200646793.0,-0.4680434167385101,-0.6377689838409424,10.10602569580078,-3.3883280754089355,-3.1162538528442383,-0.4557797610759735
4200655126.0,-0.3869445621967315,-0.3792671859264374,10.126648902893066,-2.9521169662475586,-2.737034320831299,-0.4271941184997558
4200663459.0,-0.6095268130302429,0.1124120280146598,9.760567665100098,-2.773970365524292,-2.384710788726806,-0.4888476431369781
4200671792.0,-0.8367456793785095,0.1378799080848693,9.493900299072266,-3.3124330043792725,-2.5935182571411133,-0.4240180552005768
4200680125.0,-0.7347022294998169,-0.3071474730968475,9.803165435791016,-3.6286916732788086,-2.981574058532715,-0.45647132396698
4200688458.0,-0.5113136768341064,-0.5695765018463135,10.15799331665039,-3.363200664520264,-2.96886944770813,-0.2221266627311706
4200696791.0,-0.5041171312332153,-0.1749050319194793,9.920116424560549,-2.907625198364258,-2.731015205383301,-0.4940729439258575
4200705124.0,-0.6697813272476196,0.1073352023959159,9.581216812133787,-3.0704803466796875,-2.5685439109802246,-0.4251450002193451
4200713457.0,-0.7030920386314392,-0.1239225193858146,9.626930236816406,-3.527311086654663,-2.907011032104492,-0.3650797307491302
4200721790.0,-0.5143382549285889,-0.5172056555747986,10.054931640625,-3.3978822231292725,-3.0720176696777344,-0.3848795294761657
4200730123.0,-0.4378769993782043,-0.3836185932159424,10.078648567199709,-2.897763729095459,-2.67517638206482,-0.3805250525474548
4200738456.0,-0.608855128288269,0.0243378523737192,9.72158908843994,-2.9080605506896973,-2.3927788734436035,-0.4231470823287964
4200746789.0,-0.7969607710838318,0.0094269579276442,9.49845027923584,-3.2624337673187256,-2.5568385124206543,-0.436236023902893
4200755122.0,-0.7157115340232849,-0.4022448658943176,9.849940299987791,-3.432102918624878,-2.979524612426758,-0.3425903916358948
4200763455.0,-0.5326185822486877,-0.6388429403305054,10.188922882080078,-3.2965009212493896,-3.0762951374053955,-0.3894644677639007
4200771788.0,-0.3613024353981018,-0.030818136408925,9.981080055236816,-2.7819106578826904,-2.821074962615967,-0.4031936526298523
4200780121.0,-0.6417480707168579,0.203512504696846,9.554341316223145,-3.065511703491211,-2.5558907985687256,-0.350812554359436
4200788454.0,-0.6771122217178345,-0.0367940813302993,9.564252853393556,-3.3588972091674805,-2.8244564533233643,-0.3546290993690491
4200796787.0,-0.5333441495895386,-0.5933400988578796,10.04852294921875,-3.4706006050109863,-3.035363912582397,-0.3729688823223114
4200805120.0,-0.3825825452804565,-0.5154864192008972,10.14197826385498,-3.0851831436157227,-2.743950366973877,-0.375863254070282
4200813453.0,-0.5631735324859619,0.045153796672821,9.776371955871582,-2.798790454864502,-2.4514870643615723,-0.3238151371479034
4200821786.0,-0.7646653652191162,0.1669102162122726,9.464499473571776,-3.125500202178955,-2.528611660003662,-0.3215610682964325
4200830119.0,-0.6918372511863708,-0.2137827724218368,9.759193420410156,-3.619957208633423,-3.001450300216675,-0.3011977970600128
4200838452.0,-0.5032624006271362,-0.58708256483078,10.137104034423828,-3.393450975418091,-3.078805446624756,-0.4059600234031677
4200846785.0,-0.4959682524204254,-0.2716301083564758,9.965235710144045,-2.919484853744507,-2.7790420055389404,-0.4702260792255401
4200855118.0,-0.6267527341842651,0.0889882445335388,9.57430648803711,-2.9912302494049072,-2.670872926712036,-0.4735815823078155
4200863451.0,-0.6748237013816833,-0.0582565441727638,9.581095695495604,-3.438327074050904,-2.8896186351776123,-0.3776562809944153
4200871784.0,-0.5180689096450806,-0.4565529823303222,10.013639450073242,-3.5268754959106445,-2.956420660018921,-0.4376448094844818
4200880117.0,-0.425040453672409,-0.4348333477973938,10.131686210632324,-3.026757001876831,-2.7801432609558105,-0.30603888630867
4200888450.0,-0.583441972732544,0.008394781500101,9.755444526672363,-2.856755495071411,-2.5200307369232178,-0.3879019618034363
4200896783.0,-0.7343910336494446,0.0518124289810657,9.532724380493164,-3.269810914993286,-2.504611253738404,-0.4519375562667846
4200905116.0,-0.7202242016792297,-0.3179875612258911,9.778923988342283,-3.4709339141845703,-2.9158732891082764,-0.347277820110321
4200913449.0,-0.5035651326179504,-0.6034940481185913,10.165416717529297,-3.2959115505218506,-2.9147465229034424,-0.3448700904846191
4200921782.0,-0.4990695416927337,-0.2516670227050781,9.984333992004396,-2.833677053451538,-2.702327251434326,-0.2685908675193786
4200930115.0,-0.6551558971405029,0.1981272548437118,9.622869491577148,-2.8730461597442627,-2.5492823123931885,-0.3748899698257446
4200938448.0,-0.7025607824325562,0.0656371340155601,9.50125503540039,-3.3415818214416504,-2.723126173019409,-0.4212261140346527
4200946781.0,-0.5892320275306702,-0.4590281248092651,9.92996311187744,-3.611453533172608,-2.98124098777771,-0.2554251849651336
4200955114.0,-0.4366389811038971,-0.593658447265625,10.1519775390625,-3.2162771224975586,-2.799610376358032,-0.337185800075531
4200963447.0,-0.5358081459999084,-0.1008740961551666,9.82066535949707,-2.85888147354126,-2.6001009941101074,-0.4435873031616211
4200971780.0,-0.6926817893981934,0.1753953099250793,9.587061882019045,-3.061131477355957,-2.48330020904541,-0.3271706104278564
4200980113.0,-0.722715437412262,-0.099643237888813,9.699679374694824,-3.4954724311828613,-2.858856201171875,-0.3582662940025329
4200988446.0,-0.591700553894043,-0.5546626448631287,10.091745376586914,-3.4681930541992188,-2.9097259044647217,-0.3515553772449493
4200996779.0,-0.5296027660369873,-0.4017293751239776,10.000948905944824,-3.013822317123413,-2.654812812805176,-0.3651821315288543
4201005112.0,-0.6404860019683838,0.033305462449789,9.668018341064451,-2.9103150367736816,-2.664264678955078,-0.341796338558197
4201013445.0,-0.7248839139938354,0.0568117797374725,9.5527982711792,-3.256901264190674,-2.6725895404815674,-0.3877483010292053
4201021778.0,-0.6080315113067627,-0.3107178211212158,9.887558937072754,-3.5404253005981445,-2.995123863220215,-0.4162057340145111
4201030111.0,-0.4333789348602295,-0.5422425270080566,10.140950202941896,-3.27823805809021,-2.914259672164917,-0.4163338243961334
4201038444.0,-0.4789643883705139,-0.1811214238405227,9.863194465637209,-2.923506259918213,-2.7527616024017334,-0.3780660629272461
4201046777.0,-0.6742405295372009,0.1261403411626815,9.583558082580566,-3.005164384841919,-2.594132661819458,-0.3818313479423523
4201055110.0,-0.7049179077148438,-0.1072706803679466,9.678828239440918,-3.3883280754089355,-2.7591912746429443,-0.4540379643440246
4201063443.0,-0.6123732328414917,-0.5395063757896423,10.0763578414917,-3.342939615249634,-3.0185351371765137,-0.3852124810218811
4201071776.0,-0.5074024200439453,-0.4461249411106109,10.066993713378906,-2.986952543258667,-2.710114002227783,-0.3423598408699035
4201080109.0,-0.6016596555709839,0.0770902186632156,9.72495460510254,-2.768181562423706,-2.6122162342071533,-0.4290640354156494
4201088442.0,-0.6606511473655701,0.1927361488342285,9.543905258178713,-3.2137157917022705,-2.842796087265014,-0.3540399670600891
4201096775.0,-0.6157621145248413,-0.2289055287837982,9.83881378173828,-3.560839891433716,-3.018740177154541,-0.4390536248683929
4201105108.0,-0.4721748530864715,-0.5876723527908325,10.131769180297852,-3.349496841430664,-2.944305181503296,-0.3841111063957214
4201113441.0,-0.4592713117599487,-0.3176086843013763,9.944005966186523,-2.8768627643585205,-2.6116528511047363,-0.4184853434562683
4201121774.0,-0.5818223357200623,0.1479364931583404,9.61667823791504,-2.9830336570739746,-2.61926007270813,-0.4453290700912475
4201130107.0,-0.6650574207305908,0.0843110904097557,9.649942398071287,-3.450493335723877,-2.800251007080078,-0.4531414210796356
4201138440.0,-0.6632709503173828,-0.3552260398864746,9.965224266052246,-3.6397573947906494,-2.878015756607056,-0.374915599822998
4201146773.0,-0.5726277828216553,-0.528026819229126,10.102631568908691,-3.148655891418457,-2.832832098007202,-0.3640039265155792
4201155106.0,-0.5870642066001892,-0.1447778493165969,9.736430168151855,-3.041588306427002,-2.86743712425232,-0.2862647175788879
4201163439.0,-0.651205837726593,0.1033211424946785,9.570724487304688,-3.3025460243225098,-2.9046545028686523,-0.3175909519195556
4201171772.0,-0.5956465005874634,-0.148276537656784,9.793274879455566,-3.6180365085601807,-2.778657913208008,-0.4115183055400848
4201180105.0,-0.5384829044342041,-0.4798185229301452,10.076971054077148,-3.472137689590454,-2.980267286300659,-0.3498904109001159
4201188438.0,-0.5127049088478088,-0.4056248664855957,9.938304901123049,-3.0905113220214844,-2.857652425765991,-0.4103144407272339
4201196771.0,-0.5445314645767212,0.0332856625318527,9.615681648254396,-2.9431519508361816,-2.789774179458618,-0.3622108697891235
4201205104.0,-0.6118568778038025,0.024509523063898,9.684709548950195,-3.2988319396972656,-2.826197862625122,-0.4450986087322235
4201213437.0,-0.6387876868247986,-0.353053331375122,9.939732551574709,-3.407180070877075,-2.4939043521881104,-0.3439992070198059
4201221770.0,-0.6357011198997498,-0.5716272592544556,10.068649291992188,-3.244324445724488,-2.8754029273986816,-0.298098474740982
4201230103.0,-0.6579400300979614,-0.2601824998855591,9.792896270751951,-2.9349048137664795,-2.810752391815185,-0.2656196057796478
4201238436.0,-0.5967603325843811,0.1350105702877044,9.597384452819824,-3.157313108444214,-2.972096920013428,-0.3902585208415985
4201246769.0,-0.5527232885360718,-0.00905183237046,9.790095329284668,-3.372934103012085,-2.818948984146118,-0.3695365786552429
4201255102.0,-0.5578936338424683,-0.4077122211456299,9.988240242004396,-3.442707061767578,-2.752352476119995,-0.3544497787952423
4201263435.0,-0.5939377546310425,-0.5355393886566162,9.976558685302734,-3.029292821884156,-2.7643392086029053,-0.336161196231842
4201271768.0,-0.551774263381958,-0.1220612600445747,9.67278289794922,-2.8881843090057373,-2.951323270797729,-0.3168224692344665
4201280101.0,-0.5517076849937439,0.1107964515686035,9.674642562866213,-3.195990800857544,-2.949428081512451,-0.3044252097606659
4201288434.0,-0.5897706747055054,-0.0921186059713363,9.874100685119627,-3.3005990982055664,-2.682527780532837,-0.3398240804672241
4201296767.0,-0.7027235627174377,-0.4577910602092743,10.034502029418944,-3.28330945968628,-2.7170557975769043,-0.2946661710739136
4201305100.0,-0.6990845799446106,-0.4133206605911255,9.848747253417969,-3.1164841651916504,-2.8090877532958984,-0.3287587463855743
4201313433.0,-0.6385482549667358,-0.0044488860294222,9.642903327941896,-3.04701828956604,-2.902707815170288,-0.415309190750122
4201321766.0,-0.5258284211158752,0.0201070811599493,9.744551658630373,-3.2288026809692383,-2.919177770614624,-0.4012726247310638
4201330099.0,-0.5180238485336304,-0.2810862362384796,9.967520713806152,-3.477952241897583,-2.882293224334717,-0.4519632160663605
4201338432.0,-0.5458782911300659,-0.4869627356529236,10.011938095092772,-3.2469372749328613,-2.762162208557129,-0.2815260589122772
4201346765.0,-0.580166220664978,-0.2411440312862396,9.730158805847168,-2.959212064743042,-2.811494827270508,-0.3390043675899505
4201355098.0,-0.5239322185516357,0.0936456620693206,9.628735542297363,-3.1058030128479004,-2.954550743103028,-0.4451498091220855
4201363431.0,-0.5248780846595764,-0.0854866653680801,9.885104179382324,-3.390889406204224,-2.7920286655426025,-0.3410279750823974
4201371764.0,-0.6514623165130615,-0.4863517582416534,9.992831230163574,-3.343374967575073,-2.685396671295166,-0.3745313584804535
4201380097.0,-0.7061012387275696,-0.484963983297348,9.944452285766602,-3.0754497051239014,-2.7675669193267822,-0.3863651156425476
4201388430.0,-0.6558667421340942,-0.0288327448070049,9.65005111694336,-2.826786756515503,-2.915488719940185,-0.4478392899036407
4201396763.0,-0.5474785566329956,0.2091283202171325,9.671520233154297,-3.2059035301208496,-2.992126941680908,-0.381165474653244
4201405096.0,-0.5051485896110535,-0.1204945221543312,9.89224338531494,-3.6136820316314697,-2.7813985347747803,-0.4479674100875854
4201413429.0,-0.5451682209968567,-0.5654495358467102,10.0198392868042,-3.3649678230285645,-2.6681835651397705,-0.4178962409496307
4201421762.0,-0.5734491348266602,-0.4450507462024688,9.883353233337402,-2.975451946258545,-2.95964789390564,-0.3190765380859375
4201430095.0,-0.5798477530479431,0.0710861310362815,9.654372215270996,-2.939976453781128,-2.901119470596313,-0.3720979988574981
4201438428.0,-0.5504307746887207,0.1485597938299179,9.74772834777832,-3.2965009212493896,-2.791721105575561,-0.3747106790542602
4201446761.0,-0.5881559252738953,-0.2801685333251953,9.958279609680176,-3.5981087684631348,-2.7301957607269287,-0.4202015697956085
4201455094.0,-0.6464853286743164,-0.5684376955032349,10.028337478637695,-3.325624465942383,-2.744360446929932,-0.3881069123744964
4201463427.0,-0.6446657776832581,-0.2227806150913238,9.773114204406738,-3.029216289520264,-2.9080612659454346,-0.3587786257266998
4201471760.0,-0.6174607276916504,0.1305483877658844,9.600231170654297,-3.087386131286621,-2.9237372875213623,-0.3843672275543213
4201480093.0,-0.5540119409561157,-0.066449150443077,9.803747177124023,-3.4157097339630127,-2.8705103397369385,-0.4094947874546051
4201488426.0,-0.5048534274101257,-0.4954029619693756,10.03598690032959,-3.476927757263184,-2.846433162689209,-0.3606996834278106
4201496759.0,-0.5018819570541382,-0.4362883865833282,9.975106239318848,-3.0143086910247803,-2.831166982650757,-0.3083953857421875
4201505092.0,-0.5890018343925476,0.0386214181780815,9.630343437194824,-2.866847276687622,-2.7070913314819336,-0.4167691469192505
4201513425.0,-0.6609296798706055,0.0925221219658851,9.596858024597168,-3.359281539916992,-2.716415405273437,-0.3694853484630584
4201521758.0,-0.6640405654907227,-0.3761990368366241,9.848906517028809,-3.572827339172364,-2.854220151901245,-0.4340332448482513
4201530091.0,-0.6076802015304565,-0.6739547848701477,10.14289093017578,-3.080573081970215,-2.9080357551574707,-0.4005810618400574
4201538424.0,-0.5796815752983093,-0.2225777506828308,9.87425422668457,-2.857933759689331,-2.7458715438842773,-0.3816008567810058
4201546757.0,-0.6520537734031677,0.2908061146736145,9.551201820373535,-3.003038167953491,-2.671744108200073,-0.4950719177722931
4201555090.0,-0.6455696225166321,0.0399552546441555,9.627766609191896,-3.4560775756835938,-2.8502752780914307,-0.4904613792896271
4201563423.0,-0.4822563827037811,-0.533560037612915,10.038702964782717,-3.4305148124694824,-3.100654602050781,-0.5235037207603455
4201571756.0,-0.377943605184555,-0.6050974130630493,10.154985427856444,-2.957496166229248,-2.874480724334717,-0.3835987746715545
4201580089.0,-0.559380054473877,0.002590668387711,9.755666732788086,-2.755195140838623,-2.3829433917999268,-0.3293734490871429
4201588422.0,-0.7845449447631836,0.2567798197269439,9.478842735290527,-3.149654150009156,-2.5173158645629883,-0.3791930973529815
4201596755.0,-0.7383716702461243,-0.1381261050701141,9.77374267578125,-3.626233339309693,-2.9654881954193115,-0.3785271644592285
4201605088.0,-0.4794231653213501,-0.602561354637146,10.220752716064451,-3.39196515083313,-3.052807331085205,-0.3889009654521942
4201613421.0,-0.4772227108478546,-0.3381581604480743,10.090585708618164,-2.9593148231506348,-2.603328227996826,-0.406421035528183
4201621754.0,-0.6883945465087891,0.1211614832282066,9.531633377075195,-2.817540407180786,-2.538140058517456,-0.4599804282188415
4201630087.0,-0.7017261981964111,-0.0265554152429103,9.496101379394531,-3.4318978786468506,-3.0595948696136475,-0.4210980534553528
4201638420.0,-0.389203131198883,-0.4871433675289154,10.039803504943848,-3.505743741989136,-3.355618715286255,-0.3815752863883972
4201646753.0,-0.2476255148649215,-0.4798251986503601,10.296180725097656,-3.0099027156829834,-2.854808807373047,-0.3935627043247223
4201655086.0,-0.5391150116920471,-0.0155493887141346,9.787296295166016,-2.716466426849365,-2.0920169353485107,-0.2843436002731323
4201663419.0,-0.9205564856529236,0.1212645098567009,9.326544761657717,-3.232516527175904,-2.3679332733154297,-0.3624670505523681
4201671752.0,-0.784320592880249,-0.3382808566093445,9.661843299865724,-3.643983602523804,-3.3029046058654785,-0.4363384842872619
4201680085.0,-0.3230627477169037,-0.6821976900100708,10.40011215209961,-3.217864990234375,-3.156980037689209,-0.5209935307502747
4201688418.0,-0.4351292848587036,-0.186735913157463,10.18807315826416,-2.6819639205932617,-2.4771268367767334,-0.406856507062912
4201696751.0,-0.8366346955299377,0.3034706711769104,9.385135650634766,-2.824301719665528,-2.293062925338745,-0.4291152060031891
4201705084.0,-0.8591244220733643,0.0196117591112852,9.302590370178224,-3.61626935005188,-3.149731636047364,-0.4377729296684265
4201713417.0,-0.3353613913059234,-0.5487529039382935,10.071799278259276,-3.629178047180176,-3.5848402976989746,-0.2930268347263336
4201721750.0,-0.1495726406574249,-0.5265836715698242,10.47961139678955,-3.063872098922729,-2.79236102104187,-0.4012469351291656
4201730083.0,-0.649951159954071,0.0253372155129909,9.774645805358888,-2.6499462127685547,-1.9928641319274905,-0.4731717705726623
4201738416.0,-1.0138936042785645,0.2063120007514953,9.196174621582031,-3.209284543991089,-2.653097152709961,-0.4565481543540954
4201746749.0,-0.7538541555404663,-0.2475794851779937,9.732157707214355,-3.821976661682129,-3.5384528636932373,-0.3764267563819885
4201755082.0,-0.3220993876457214,-0.5144506096839905,10.439129829406738,-3.493781805038452,-3.122119188308716,-0.378911405801773
4201763415.0,-0.5053560733795166,-0.1808182001113891,10.094576835632324,-2.811828374862671,-2.311326026916504,-0.4094179272651672
4201771748.0,-0.8935138583183289,0.0907439067959785,9.34108829498291,-3.04110074043274,-2.509579658508301,-0.4305239915847778
4201780081.0,-0.7675663828849792,-0.1961941123008728,9.415851593017578,-3.645058870315552,-3.4720349311828613,-0.4422041475772857
4201788414.0,-0.2165384888648986,-0.5002627968788147,10.182103157043455,-3.514195919036865,-3.401442527770996,-0.3246092200279236
4201796747.0,-0.2354626506567001,-0.2567565143108368,10.316971778869627,-3.0269360542297363,-2.3786656856536865,-0.4391047656536102
4201805080.0,-0.7463337182998657,0.0452540107071399,9.616806030273438,-2.8834710121154785,-2.084717035293579,-0.2884674966335296
4201813413.0,-1.00068998336792,-0.1422415226697921,9.315388679504396,-3.398292064666748,-2.8370070457458496,-0.3171810805797577
4201821746.0,-0.6349422931671143,-0.4792186319828033,9.932387351989746,-3.522648811340332,-3.49759840965271,-0.320229172706604
4201830079.0,-0.3149095475673675,-0.3438601791858673,10.33161735534668,-3.0174596309661865,-2.945970058441162,-0.3623646199703216
4201838412.0,-0.5326790809631348,0.0434541217982769,9.912898063659668,-2.8512485027313232,-2.432634830474853,-0.3685119748115539
4201846745.0,-0.825899600982666,0.02423289231956,9.396007537841797,-3.215227127075196,-2.7584996223449707,-0.3490451872348785
4201855078.0,-0.6226999759674072,-0.3631867468357086,9.64747714996338,-3.651668071746826,-3.417272090911865,-0.3629537224769592
4201863411.0,-0.2451227605342865,-0.4244199395179748,10.191865921020508,-3.268709659576416,-3.1444292068481445,-0.4429470002651214
4201871744.0,-0.3780250549316406,-0.0899710208177566,10.092679977416992,-2.9506828784942627,-2.39078140258789,-0.3610070049762726
4201880077.0,-0.7715563178062439,-0.0131947435438632,9.613365173339844,-3.0502710342407227,-2.307560682296753,-0.4647190272808075
4201888410.0,-0.8398411870002747,-0.275126963853836,9.587078094482422,-3.4039273262023926,-2.881934404373169,-0.3612119555473327
4201896743.0,-0.5359567999839783,-0.3382716178894043,10.012510299682615,-3.293324708938598,-3.152369737625122,-0.2765825092792511
4201905076.0,-0.4481346011161804,-0.1319203972816467,10.018728256225586,-2.985441207885742,-2.69167160987854,-0.3891826272010803
4201913409.0,-0.6741060614585876,-0.1000500097870826,9.758360862731934,-3.066792249679565,-2.5503838062286377,-0.4551393091678619
4201921742.0,-0.7594273090362549,-0.3239862322807312,9.631686210632324,-3.3378677368164062,-2.987926483154297,-0.3883886933326721
4201930075.0,-0.4555655419826507,-0.3334249854087829,9.909357070922852,-3.338841199874878,-3.3101019859313965,-0.4155397117137909
4201938408.0,-0.2479866445064544,-0.1083220243453979,10.013477325439451,-3.101320505142212,-2.7487916946411133,-0.4020922482013702
4201946741.0,-0.5653808116912842,-0.1051000505685806,9.811902046203612,-3.2287511825561523,-2.288273572921753,-0.4160776436328888
4201955074.0,-0.8413510322570801,-0.3613383769989013,9.665935516357422,-3.270399808883667,-2.5700809955596924,-0.3530409932136535
4201963407.0,-0.6770068407058716,-0.4190809726715088,9.946121215820312,-3.111361265182495,-3.074425458908081,-0.3351878821849823
4201971740.0,-0.4439832270145416,-0.1385776549577713,10.045238494873049,-2.928808689117432,-2.876453161239624,-0.4283212125301361
4201980073.0,-0.575038492679596,0.0583901032805442,9.765851020812988,-2.955652236938477,-2.551510572433472,-0.3816520869731903
4201988406.0,-0.733582615852356,-0.1935966312885284,9.556456565856934,-3.404721260070801,-2.7388274669647217,-0.4626443684101105
4201996739.0,-0.5211589336395264,-0.491763025522232,9.88454818725586,-3.3097949028015137,-3.262024164199829,-0.4173839688301086
4202005072.0,-0.3511919379234314,-0.2978952527046203,10.069609642028809,-2.9971728324890137,-2.8655924797058105,-0.4188439548015594
4202013405.0,-0.5916110873222351,-0.0108229396864771,9.782069206237791,-2.927168846130371,-2.3001067638397217,-0.3871079087257385
4202021738.0,-0.7970061898231506,-0.0722487419843673,9.551986694335938,-3.2559025287628174,-2.662932872772217,-0.5073155760765076
4202030071.0,-0.6701345443725586,-0.3125535547733307,9.850001335144045,-3.441605806350708,-3.169172525405884,-0.3530410230159759
4202038404.0,-0.462454617023468,-0.301480770111084,10.153653144836426,-3.19360876083374,-2.983008623123169,-0.3597007393836975
4202046737.0,-0.6178274750709534,-0.1083650514483451,9.831175804138184,-3.0237860679626465,-2.30761194229126,-0.3312689065933227
4202055070.0,-0.7663056254386902,-0.0608236454427242,9.461734771728516,-3.175217628479004,-2.7129061222076416,-0.3914879858493805
4202063403.0,-0.5083498954772949,-0.3259326517581939,9.784016609191896,-3.4910919666290283,-3.2482950687408447,-0.402297168970108
4202071736.0,-0.260863721370697,-0.3279864192008972,10.230093002319336,-3.134362936019897,-2.872995138168335,-0.4171022176742553
4202080069.0,-0.5094961524009705,-0.095985323190689,9.980072975158691,-2.853092670440674,-2.249595642089844,-0.3775281906127929
4202088402.0,-0.8349267840385437,-0.0178808998316526,9.44271469116211,-3.112154960632324,-2.347518920898437,-0.3798590898513794
4202096735.0,-0.7963657975196838,-0.3799465596675873,9.672896385192873,-3.4725987911224365,-3.0644102096557617,-0.4628748893737793
4202105068.0,-0.4384097754955292,-0.4692051112651825,10.221972465515137,-3.2429161071777344,-3.097580671310425,-0.3734811842441559
4202113401.0,-0.439014196395874,-0.0814035311341285,10.08751106262207,-2.897737979888916,-2.451999425888061,-0.4245302975177765
4202121734.0,-0.6902229189872742,0.1895643919706344,9.563152313232422,-3.059082269668579,-2.4933152198791504,-0.456701785326004
4202130067.0,-0.7291368842124939,-0.1763765066862106,9.575414657592772,-3.5796921253204346,-3.0977087020874023,-0.3483535647392273
4202138400.0,-0.3924422860145569,-0.4542778134346008,10.046305656433104,-3.456948757171631,-3.272602796554565,-0.4297812879085541
4202146733.0,-0.2811600267887115,-0.2200796455144882,10.154388427734377,-3.023965358734131,-2.5504093170166016,-0.3974048495292663
4202155066.0,-0.641123354434967,0.0728913098573684,9.80080223083496,-2.9256069660186768,-2.09570574760437,-0.3269913494586944
4202163399.0,-0.8657950162887573,-0.0778388753533363,9.58334732055664,-3.1659960746765137,-2.623819589614868,-0.36395263671875
4202171732.0,-0.6392965912818909,-0.3342367708683014,9.897139549255373,-3.5548462867736816,-3.10764741897583,-0.380089670419693
4202180065.0,-0.4482479691505432,-0.2275163531303405,10.067010879516602,-3.2658920288085938,-2.781834125518799,-0.2998658418655395
4202188398.0,-0.6481741070747375,-0.1379318833351135,9.77664852142334,-3.163870334625244,-2.3361976146698,-0.3534252047538757
4202196731.0,-0.7709212303161621,-0.2483211308717727,9.539210319519045,-3.2342586517333984,-2.867513656616211,-0.3626719713211059
4202205064.0,-0.4588615298271179,-0.3849988877773285,9.738640785217283,-3.384127378463745,-3.3110241889953613,-0.3783478736877441
4202213397.0,-0.2998616397380829,-0.2924729585647583,10.032048225402832,-3.097529649734497,-2.947814464569092,-0.36487478017807
4202221730.0,-0.5429949164390564,-0.1485228091478347,9.811566352844238,-2.996173620223999,-2.299569129943848,-0.4502469897270202
4202230063.0,-0.7899887561798096,-0.19443279504776,9.523324012756348,-3.1141271591186523,-2.586012840270996,-0.3671800494194031
4202238396.0,-0.7450140118598938,-0.4539231956005096,9.719021797180176,-3.23610258102417,-3.07014799118042,-0.4377985298633575
4202246729.0,-0.5424399971961975,-0.2737475633621216,10.058592796325684,-2.9571378231048584,-2.999785900115967,-0.3246860802173614
4202255062.0,-0.5944494605064392,0.0536789968609809,9.85440158843994,-2.878501892089844,-2.455585479736328,-0.3206646144390106
4202263395.0,-0.6938844919204712,0.0148076433688402,9.541730880737305,-3.124552249908448,-2.7443346977233887,-0.3059364259243011
4202271728.0,-0.5336077213287354,-0.3416522443294525,9.801024436950684,-3.4700374603271484,-3.104727268218994,-0.3357514142990112
4202280061.0,-0.4006035923957824,-0.341647058725357,10.09481143951416,-3.203213930130005,-2.8534514904022217,-0.2776583433151245
4202288394.0,-0.5760185718536377,-0.1479439288377761,9.865108489990234,-3.0185093879699707,-2.486220121383667,-0.3563196063041687
4202296727.0,-0.7544932961463928,0.0485547818243503,9.58006191253662,-3.217275619506836,-2.5789177417755127,-0.3862626552581787
4202305060.0,-0.7283188700675964,-0.2781618535518646,9.857624053955078,-3.5406298637390137,-2.969919443130493,-0.305424153804779
4202313393.0,-0.5914050340652466,-0.4060324132442474,10.167835235595703,-3.376007556915283,-3.033468246459961,-0.4447143673896789
4202321726.0,-0.6107843518257141,-0.1347840279340744,9.92790985107422,-3.0297794342041016,-2.6696176528930664,-0.2626995742321014
4202330059.0,-0.6973241567611694,-0.0205017160624265,9.595356941223145,-3.2784171104431152,-2.914234161376953,-0.3903609812259674
4202338392.0,-0.6589826941490173,-0.364332765340805,9.794198036193848,-3.530717611312866,-3.2512149810791016,-0.3759913444519043
4202346725.0,-0.332200288772583,-0.4690248668193817,10.174893379211426,-3.348292827606201,-3.171401023864746,-0.2703582644462585
4202355058.0,-0.3446532487869262,-0.1092278137803077,10.035026550292969,-3.03684949874878,-2.702045440673828,-0.4671523869037628
4202363391.0,-0.6966142058372498,-0.0567497313022613,9.666762351989746,-3.181492328643799,-2.5135245323181152,-0.4521424174308777
4202371724.0,-0.8734014630317688,-0.3482589721679687,9.625496864318848,-3.4320003986358643,-2.92983341217041,-0.4974284768104553
4202380057.0,-0.6118460297584534,-0.5041487216949463,10.037076950073242,-3.1588759422302246,-3.347012042999268,-0.3732250332832336
4202388390.0,-0.4084896743297577,-0.1915584653615951,10.156295776367188,-2.941436290740967,-2.9068827629089355,-0.4353907704353332
4202396723.0,-0.6713699102401733,0.1043883636593818,9.715039253234863,-2.970277786254883,-2.417804479598999,-0.3560634553432464
4202405056.0,-0.7436824440956116,-0.1524490267038345,9.533143043518066,-3.3236522674560547,-3.0402305126190186,-0.4561383426189422
4202413389.0,-0.4370285272598266,-0.4315580725669861,9.87947940826416,-3.414505958557129,-3.4007511138916016,-0.3254032433032989
4202421722.0,-0.3215474188327789,-0.3446886837482452,10.13278102874756,-3.0500919818878174,-2.839491605758667,-0.4309850931167602
4202430055.0,-0.6164774894714355,-0.0422379337251186,9.744122505187988,-2.878629684448242,-2.405125141143799,-0.3746593594551086
4202438388.0,-0.8156248927116394,-0.0756851956248283,9.436366081237791,-3.258591890335083,-2.753351211547852,-0.3556536734104156
4202446721.0,-0.6315464973449707,-0.3352875709533691,9.811430931091309,-3.4420151710510254,-3.170504570007324,-0.3553206622600555
4202455054.0,-0.5263534784317017,-0.3503915071487427,10.089693069458008,-3.182440757751465,-2.8991475105285645,-0.3838036954402923
4202463387.0,-0.6158937215805054,-0.1128674298524856,9.801570892333984,-2.927886247634888,-2.629813432693481,-0.3477388322353363
4202471720.0,-0.7670702934265137,-0.1061611548066139,9.449435234069824,-3.1290605068206787,-3.050706624984741,-0.3555768132209778
4202480053.0,-0.5442746877670288,-0.3256956040859222,9.71060276031494,-3.4154019355773926,-3.4159915447235107,-0.3888241350650787
4202488386.0,-0.2881989181041717,-0.3310857117176056,10.039276123046877,-3.241584062576294,-3.2058522701263428,-0.2916436791419983
4202496719.0,-0.4300818741321563,-0.0924574211239814,9.864009857177734,-3.015307664871216,-2.720590353012085,-0.379859060049057
4202505052.0,-0.7368003129959106,-0.0741228237748146,9.552165031433104,-3.1666619777679443,-2.605018615722656,-0.3307053744792938
4202513385.0,-0.8206182718276978,-0.3453459143638611,9.63870620727539,-3.3774678707122803,-3.062873601913452,-0.3550901710987091
4202521718.0,-0.5683625340461731,-0.4034804999828338,10.010860443115234,-3.2892777919769287,-3.3036985397338867,-0.3422574400901794
4202530051.0,-0.476804107427597,-0.1323205530643463,10.02689266204834,-2.9097001552581787,-2.890822649002075,-0.4214822351932525
4202538384.0,-0.7338150143623352,-0.0114091467112302,9.612857818603516,-3.07411789894104,-2.7735350131988525,-0.2573718428611755
4202546717.0,-0.6902185678482056,-0.2239028811454773,9.57379913330078,-3.3807461261749268,-3.438147783279419,-0.3800896406173706
4202555050.0,-0.4204742312431335,-0.5090457201004028,9.975526809692385,-3.379183769226074,-3.5886058807373047,-0.3181544244289398
4202563383.0,-0.3704059422016144,-0.2665562629699707,10.077847480773926,-3.0491442680358887,-2.966717481613159,-0.3892083168029785
4202571716.0,-0.6894696950912476,-0.0795129910111427,9.748469352722168,-2.988720178604126,-2.855551481246948,-0.3770159184932709
4202580049.0,-0.7537590265274048,-0.2011142969131469,9.650629997253418,-3.280927419662476,-3.225959300994873,-0.3243530690670013
4202588382.0,-0.5553632378578186,-0.4811248183250427,10.0712251663208,-3.33392333984375,-3.4700632095336914,-0.3575747311115265
4202596715.0,-0.5172852277755737,-0.2162626832723617,10.124528884887695,-2.923327207565308,-3.012157440185547,-0.3515297770500183
4202605048.0,-0.706186830997467,-0.1200993508100509,9.739078521728516,-2.907445907592773,-3.0015268325805664,-0.268283486366272
4202613381.0,-0.6955959796905518,-0.2773012220859527,9.57194709777832,-3.303954839706421,-3.495574951171875,-0.371713787317276
4202621714.0,-0.4391377866268158,-0.39529550075531,10.029345512390137,-3.3228321075439453,-3.8319151401519775,-0.3421549499034881
4202630047.0,-0.3043222725391388,-0.2221510261297226,10.242656707763672,-2.9435622692108154,-3.189382076263428,-0.2877759337425232
4202638380.0,-0.5943918228149414,-0.0429095141589641,9.758781433105469,-2.932419776916504,-2.7712292671203613,-0.3707916438579559
4202646713.0,-0.8339043855667114,-0.1462441384792328,9.570635795593262,-3.29178786277771,-2.908445358276367,-0.2712547481060028
4202655046.0,-0.7415351867675781,-0.3887451589107513,9.970381736755373,-3.364250659942627,-3.5389654636383057,-0.3012746274471283
4202663379.0,-0.4865978062152862,-0.2387379705905914,10.24692153930664,-3.025348663330078,-3.4322052001953125,-0.272100031375885
4202671712.0,-0.5317881107330322,0.1808822602033615,9.834221839904783,-2.889132261276245,-3.0373876094818115,-0.3441272974014282
4202680045.0,-0.6824617981910706,0.0985403284430503,9.549263954162598,-3.3889169692993164,-3.2358975410461426,-0.2027366757392883
4202688378.0,-0.5453583002090454,-0.3208763301372528,9.856338500976562,-3.618446350097656,-3.6406283378601074,-0.3699976205825805
4202696711.0,-0.3275855481624603,-0.2702921628952026,10.168992042541504,-3.2832841873168945,-3.361100196838379,-0.3222526907920837
4202705044.0,-0.5205743908882141,0.0604442544281482,9.882895469665527,-3.0151026248931885,-2.779963970184326,-0.2762751281261444
4202713377.0,-0.7161028385162354,0.0119087258353829,9.6300687789917,-3.340301513671875,-2.657554149627685,-0.251634269952774
4202721710.0,-0.710257887840271,-0.0422137454152107,9.729920387268066,-3.527311086654663,-3.0033974647521973,-0.4181267917156219
4202730043.0,-0.6342339515686035,-0.4001517593860626,10.139204978942873,-3.447445869445801,-3.243325710296631,-0.3123912215232849
4202738376.0,-0.5191349983215332,-0.0515744425356388,9.912135124206545,-3.1640753746032715,-2.832780838012696,-0.3867749571800232
4202746709.0,-0.6679813861846924,-0.1328904628753662,9.58266258239746,-3.229775905609131,-2.8879027366638184,-0.3510943353176117
4202755042.0,-0.533507227897644,-0.182498961687088,9.694348335266112,-3.475057601928711,-3.218172550201416,-0.4896161258220672
4202763375.0,-0.4082280695438385,-0.3138414025306701,10.009847640991213,-3.230877161026001,-3.2198376655578613,-0.3824973702430725
4202771708.0,-0.3588101863861084,-0.0787739604711532,9.950484275817873,-2.943357229232788,-2.638957500457764,-0.4370812773704529
4202780041.0,-0.6619251370429993,0.0232774838805198,9.596702575683594,-3.2175064086914062,-2.472695589065552,-0.4278857707977295
4202788374.0,-0.8616108894348145,-0.2338982373476028,9.647117614746094,-3.3179144859313965,-2.783217430114746,-0.3940750360488891
4202796707.0,-0.6415502429008484,-0.3237878680229187,9.940553665161133,-3.334922313690185,-3.3054914474487305,-0.5022183060646057
4202805040.0,-0.4231338798999786,-0.0757486969232559,10.050987243652344,-3.047248601913452,-3.0186119079589844,-0.4279370605945587
4202813373.0,-0.6159158945083618,0.0810160785913467,9.687491416931152,-3.1076982021331787,-2.7073991298675537,-0.353092223405838
4202821706.0,-0.67689448595047,-0.0699563175439834,9.5665864944458,-3.3721399307250977,-3.0777297019958496,-0.3534508645534515
4202830039.0,-0.3892759084701538,-0.3743075430393219,9.957721710205078,-3.5722126960754395,-3.3764684200286865,-0.3660018146038055
4202838372.0,-0.2730990052223205,-0.2906099259853363,10.094237327575684,-3.215867280960083,-2.710268020629883,-0.4092642664909363
4202846705.0,-0.5929334759712219,-0.0253066997975111,9.694470405578612,-3.2330543994903564,-2.3562276363372803,-0.3819850981235504
4202855038.0,-0.772408664226532,-0.0888504236936569,9.619338035583496,-3.4998526573181152,-2.839107751846313,-0.3426160216331482
4202863371.0,-0.6115850210189819,-0.36489138007164,9.971421241760254,-3.5888359546661377,-3.127831220626831,-0.1724094152450561
4202871704.0,-0.4308071136474609,-0.2605636715888977,10.027663230895996,-3.213280439376831,-2.893794059753418,-0.2944100499153137
4202880037.0,-0.5812650918960571,-0.131071850657463,9.731789588928224,-3.265174627304077,-2.5147545337677,-0.3307822644710541
4202888370.0,-0.7009469866752625,-0.2429537922143936,9.56651496887207,-3.474750518798828,-2.920022964477539,-0.4026301503181457
4202896703.0,-0.4410372674465179,-0.410352349281311,9.869670867919922,-3.4451916217803955,-3.382744312286377,-0.3366479277610779
4202905036.0,-0.1695229560136795,-0.3874268233776092,10.174575805664062,-3.1415605545043945,-3.042663812637329,-0.4404880404472351
4202913369.0,-0.4571424126625061,-0.1148396432399749,9.779067039489746,-3.0572896003723145,-2.2303338050842285,-0.3131340146064758
4202921702.0,-0.8421147465705872,-0.1602784991264343,9.46825885772705,-3.217275619506836,-2.349874973297119,-0.4612610936164856
4202930035.0,-0.7306527495384216,-0.508165180683136,9.801590919494627,-3.5369672775268555,-3.114332675933838,-0.4591352045536041
4202938368.0,-0.3978025615215301,-0.5326045155525208,10.190054893493652,-3.115510940551758,-3.032264709472656,-0.4218921065330505
4202946701.0,-0.5235859751701355,-0.1570963114500045,9.894865036010742,-2.7235357761383057,-2.4124765396118164,-0.3414889574050903
4202955034.0,-0.7566801309585571,0.019081275910139,9.46967887878418,-3.1074671745300293,-2.6432347297668457,-0.4924848079681396
4202963367.0,-0.6069065928459167,-0.3181513845920563,9.68924331665039,-3.504539728164673,-3.1585426330566406,-0.3239176273345947
4202971700.0,-0.3252822458744049,-0.5755299925804138,10.111531257629396,-3.2353343963623047,-3.20229172706604,-0.3763756155967712
4202980033.0,-0.3416159749031067,-0.2800318598747253,9.982869148254396,-2.778299331665039,-2.451538324356079,-0.3150806725025177
4202988366.0,-0.7364314198493958,0.036370538175106,9.550457000732422,-2.9571120738983154,-2.121960163116455,-0.3552694022655487
4202996699.0,-0.8939753174781799,-0.2059783190488815,9.629632949829102,-3.35108494758606,-2.8234059810638428,-0.3883630335330963
4203005032.0,-0.5912811160087585,-0.489186942577362,10.021486282348633,-3.257490634918213,-3.2122557163238525,-0.3645417988300323
4203013365.0,-0.3966576159000397,-0.2683313190937042,10.115633010864258,-3.0101335048675537,-2.879347085952759,-0.3448956608772278
4203021698.0,-0.6603667140007019,-0.0540980882942676,9.705979347229004,-2.8941009044647217,-2.4233627319335938,-0.4082140624523163
4203030031.0,-0.8475390076637268,-0.1744981706142425,9.470610618591309,-3.198859453201294,-2.8690505027771,-0.4216615855693817
4203038364.0,-0.4350042045116424,-0.4003379344940185,9.8749361038208,-3.341787099838257,-3.558867216110229,-0.3698951601982116
4203046697.0,-0.1301819533109665,-0.3442783057689667,10.230229377746582,-3.0583395957946777,-2.8910531997680664,-0.3792699873447418
4203055030.0,-0.5095924735069275,-0.080213189125061,9.857272148132324,-2.8016085624694824,-2.097729206085205,-0.5206862092018127
4203063363.0,-0.930765688419342,0.0096620880067348,9.40356731414795,-3.157082319259644,-2.389654397964477,-0.4080091416835785
4203071696.0,-0.7598192095756531,-0.3757705688476562,9.819129943847656,-3.449879169464112,-3.267684936523437,-0.4086495339870453
4203080029.0,-0.4163081645965576,-0.4823106825351715,10.328454971313477,-2.9752471446990967,-3.131776094436645,-0.3947922587394714
4203088362.0,-0.4633145630359649,0.0586809180676937,9.938169479370115,-2.6113970279693604,-2.4298431873321533,-0.326325386762619
4203096695.0,-0.7432065010070801,0.2015599459409713,9.427692413330078,-3.169761180877685,-2.568108558654785,-0.3598799407482147
4203105028.0,-0.6501760482788086,-0.3058297336101532,9.65150260925293,-3.49178409576416,-3.378313064575196,-0.4233008623123169
4203113361.0,-0.2473330795764923,-0.4321469366550445,10.15975284576416,-3.3383800983428955,-3.319810152053833,-0.2886212170124054
4203121694.0,-0.2938195168972015,-0.1221796423196792,10.086426734924316,-2.7409534454345703,-2.435068130493164,-0.3648491203784942
4203130027.0,-0.8257258534431458,0.0868498757481575,9.564005851745604,-2.9385929107666016,-2.2699334621429443,-0.3307310044765472
4203138360.0,-0.8883106112480164,-0.0608722269535064,9.555974960327148,-3.450519323348999,-3.093559503555298,-0.3257618546485901
4203146693.0,-0.4459162950515747,-0.3281872868537903,10.139307975769045,-3.4403250217437744,-3.2762913703918457,-0.3166688084602356
4203155026.0,-0.4019534885883331,-0.2011147439479828,10.17982578277588,-2.8936655521392822,-2.491368532180786,-0.2771716117858886
4203163359.0,-0.7663077116012573,0.1130943670868873,9.580738067626951,-2.902681350708008,-2.3422675132751465,-0.4484027326107025
4203171692.0,-0.7765427827835083,-0.034683771431446,9.484222412109377,-3.540194511413574,-3.090792894363404,-0.4317022860050201
4203180025.0,-0.3310343623161316,-0.4003781974315643,10.103631973266602,-3.381822109222412,-3.4214730262756348,-0.3541680574417114
4203188358.0,-0.1433115601539611,-0.1183949634432792,10.202165603637695,-3.1346182823181152,-2.627840757369995,-0.3906170427799225
4203196691.0,-0.5703027248382568,0.1094024628400802,9.680082321166992,-3.1034460067749023,-2.0736515522003174,-0.4750671982765198
4203205024.0,-0.9455520510673524,-0.1061461716890335,9.507928848266602,-3.449392318725586,-2.456123352050781,-0.4776286780834198
4203213357.0,-0.7241576910018921,-0.4291884005069732,9.97033977508545,-3.587914228439331,-3.2772648334503174,-0.4297556579113006
4203221690.0,-0.3422781229019165,-0.3089776933193207,10.24482536315918,-3.1239633560180664,-3.1305718421936035,-0.3591628074645996
4203230023.0,-0.5012992024421692,0.0736862644553184,9.857535362243652,-3.035978078842163,-2.4433929920196533,-0.4810096621513366
4203238356.0,-0.8420472741127014,0.067323163151741,9.418190002441406,-3.504770517349243,-2.6379077434539795,-0.4840322434902191
4203246689.0,-0.6100150942802429,-0.3669963777065277,9.73703670501709,-3.709479093551636,-3.2807228565216064,-0.3735067844390869
4203255022.0,-0.2055446654558181,-0.5265953540802002,10.194642066955566,-3.2703232765197754,-3.174090623855591,-0.3597007095813751
4203263355.0,-0.377196192741394,-0.1599714756011963,9.960105895996094,-2.880141496658325,-2.18748140335083,-0.3861858248710632
4203271688.0,-0.8848720788955688,0.0532749369740486,9.480177879333496,-3.2329261302948,-2.3036930561065674,-0.3762218654155731
4203280021.0,-0.8648607134819031,-0.2408499121665954,9.673072814941406,-3.5693695545196533,-3.1216328144073486,-0.4053965210914612
4203288354.0,-0.4516626596450805,-0.4727662801742553,10.139512062072754,-3.208874464035034,-3.3250865936279297,-0.3566014170646667
4203296687.0,-0.4186715185642242,-0.2204004079103469,10.024696350097656,-2.95957088470459,-2.6681578159332275,-0.3813447654247284
4203305020.0,-0.7604292035102844,-0.0289856661111116,9.482319831848145,-3.080188512802124,-2.413116931915283,-0.4582898616790771
4203313353.0,-0.7825329899787903,-0.1987384408712387,9.487585067749023,-3.6275651454925537,-3.2818753719329834,-0.3543473482131958
4203321686.0,-0.3041819036006927,-0.449590802192688,10.103655815124512,-3.55666446685791,-3.4983150959014893,-0.4088032245635986
4203330019.0,-0.1639357954263687,-0.2744581997394562,10.187342643737791,-3.013822078704834,-2.611422300338745,-0.3832913935184479
4203338352.0,-0.7050551772117615,0.0362402573227882,9.580686569213867,-2.9512977600097656,-2.0407629013061523,-0.4588021636009216
4203346685.0,-1.0212210416793823,-0.1570759564638137,9.37711238861084,-3.6271040439605713,-2.8006608486175537,-0.3368784487247467
4203355018.0,-0.6262845993041992,-0.5595693588256836,10.012179374694824,-3.5863256454467773,-3.4191160202026367,-0.398122102022171
4203363351.0,-0.27945476770401,-0.4159198105335235,10.301628112792969,-3.0904855728149414,-2.858522891998291,-0.3632867038249969
4203371684.0,-0.5696724057197571,0.044068843126297,9.756051063537598,-2.827887773513794,-2.3420629501342773,-0.3613912165164947
4203380017.0,-0.8304673433303833,0.0739999040961265,9.341136932373049,-3.3135344982147217,-2.7509944438934326,-0.3937163949012756
4203388350.0,-0.531211793422699,-0.4429011642932892,9.824131965637209,-3.5967507362365723,-3.494678020477295,-0.4486332833766937
4203396683.0,-0.1343399286270141,-0.5745069980621338,10.31710147857666,-3.1104390621185303,-3.0290112495422363,-0.3967132866382599
4203405016.0,-0.4060940146446228,-0.100185289978981,9.922757148742676,-2.789825916290283,-2.2416558265686035,-0.3721748888492584
4203413349.0,-0.92033714056015,0.0241251047700643,9.458653450012209,-3.092252731323242,-2.236276388168335,-0.3335485458374023
4203421682.0,-0.8562378883361816,-0.2413624376058578,9.71164894104004,-3.5663726329803467,-3.282233953475952,-0.4832637906074524
4203430015.0,-0.3744568526744842,-0.4227447509765625,10.208849906921388,-3.296424150466919,-3.34798550605774,-0.3734299540519714
4203438348.0,-0.3438436985015869,-0.1788549870252609,10.064559936523438,-2.8815758228302,-2.530302047729492,-0.3358538448810577
4203446681.0,-0.7918224930763245,0.0011871294118463,9.530630111694336,-3.076756000518799,-2.42310643196106,-0.3602385818958282
4203455014.0,-0.7548064589500427,-0.1374887079000473,9.57476806640625,-3.429925441741944,-3.1635375022888184,-0.3427441120147705
4203463347.0,-0.309169739484787,-0.5182741284370422,10.137822151184082,-3.500800371170044,-3.406130075454712,-0.3691011369228363
4203471680.0,-0.1764857769012451,-0.2441933751106262,10.19065761566162,-2.9577269554138184,-2.6159050464630127,-0.3538350462913513
4203480013.0,-0.6350055932998657,0.1352338939905166,9.652387619018556,-3.014077663421631,-2.045449733734131,-0.3716368675231933
4203488346.0,-1.022471904754639,-0.1592300683259964,9.477128028869627,-3.4590234756469727,-2.662318229675293,-0.3330875337123871
4203496679.0,-0.7045179605484009,-0.4897709488868713,9.923723220825195,-3.4821274280548096,-3.3962936401367188,-0.3960729241371155
4203505012.0,-0.2859317362308502,-0.3052291572093963,10.243006706237791,-3.0584166049957275,-3.1461963653564453,-0.3979939818382263
4203513345.0,-0.478123664855957,-0.0094683393836021,9.912915229797363,-2.8958170413970947,-2.441190004348755,-0.3780660927295685
4203521678.0,-0.8234311938285828,0.0452396757900714,9.44325828552246,-3.2586686611175537,-2.610193014144897,-0.4842115342617035
4203530011.0,-0.6216847896575928,-0.2919122576713562,9.657745361328123,-3.5771305561065674,-3.3715765476226807,-0.4350321888923645
4203538344.0,-0.2224055230617523,-0.5568218231201172,10.250564575195312,-3.2803895473480225,-3.148655652999878,-0.3687425553798675
4203546677.0,-0.3926839530467987,-0.1333841979503631,9.994948387145996,-2.8531951904296875,-2.200800657272339,-0.4219177067279815
4203555010.0,-0.8146470785140991,0.1606708616018295,9.459155082702637,-2.982060670852661,-2.190452337265014,-0.327119380235672
4203563343.0,-0.8797587752342224,-0.195904329419136,9.61296272277832,-3.662323474884033,-3.103344202041626,-0.3613144159317016
4203571676.0,-0.5055406093597412,-0.4709883630275726,10.182597160339355,-3.428849697113037,-3.291634559631348,-0.4514252841472626
4203580009.0,-0.4316506683826446,-0.1434139013290405,10.041399002075195,-3.0246567726135254,-2.545593738555908,-0.4469940066337585
4203588342.0,-0.7559202313423157,0.0328532606363296,9.51011562347412,-3.113487243652344,-2.527228355407715,-0.3410279452800751
4203596675.0,-0.7582498788833618,-0.2360827177762985,9.506647109985352,-3.541834115982056,-3.083313703536988,-0.4227886199951172
4203605008.0,-0.3003240823745727,-0.366146832704544,10.035839080810549,-3.3571813106536865,-3.459561347961426,-0.4207138419151306
4203613341.0,-0.1568746715784073,-0.2052613943815231,10.146736145019531,-3.031854152679444,-2.6358327865600586,-0.3716368973255157
4203621674.0,-0.6153444051742554,-0.0330409668385982,9.603199005126951,-2.967101573944092,-1.9366668462753296,-0.4624394178390503
4203630007.0,-0.948431670665741,-0.1340888291597366,9.403817176818848,-3.450980424880981,-2.5957210063934326,-0.3516834676265716
4203638340.0,-0.6387938857078552,-0.5086597800254822,10.00283908843994,-3.56050705909729,-3.372318744659424,-0.2987644672393799
4203646673.0,-0.3840028643608093,-0.3907588422298431,10.262986183166504,-2.871355533599853,-2.9077792167663574,-0.4957891404628753
4203655006.0,-0.5659175515174866,0.1370950639247894,9.732269287109377,-2.78780198097229,-2.356919527053833,-0.4914602935314178
4203663339.0,-0.7658857107162476,0.0593180544674396,9.402685165405272,-3.354158639907837,-2.818257570266724,-0.3429489731788635
4203671672.0,-0.5462173819541931,-0.5118441581726074,9.824316024780272,-3.672518014907837,-3.2656617164611816,-0.4066003561019897
4203680005.0,-0.1785891205072403,-0.453760951757431,10.21828842163086,-3.135131359100342,-3.023094415664673,-0.3690755367279053
4203688338.0,-0.3895576000213623,-0.0739811658859252,9.896501541137695,-2.881370782852173,-2.430457830429077,-0.3266583383083343
4203696671.0,-0.8201773762702942,-0.0121059091761708,9.553267478942873,-3.2431459426879883,-2.397824764251709,-0.4203295409679413
4203705004.0,-0.8420053720474243,-0.2648386061191559,9.74129581451416,-3.4793355464935303,-3.0234529972076416,-0.3552950918674469
4203713337.0,-0.4053501188755035,-0.3988938331604004,10.157365798950195,-3.2021639347076416,-3.116381883621216,-0.4065747857093811
4203721670.0,-0.453317791223526,-0.2513691484928131,10.017677307128906,-2.874685049057007,-2.5035860538482666,-0.4351857602596283
4203730003.0,-0.7707213163375854,-0.0191393438726663,9.553723335266112,-2.986081600189209,-2.461655855178833,-0.3608277142047882
4203738336.0,-0.7400703430175781,-0.2137972116470337,9.595678329467772,-3.4371488094329834,-3.1090304851531982,-0.2787853479385376
4203746669.0,-0.3311373293399811,-0.4949208199977875,10.103632926940918,-3.299805164337158,-3.3843319416046143,-0.3678460419178009
4203755002.0,-0.21047443151474,-0.2483764588832855,10.143540382385254,-2.913132429122925,-2.566827774047852,-0.4119280874729156
4203763335.0,-0.6487650275230408,0.0626255124807357,9.6239595413208,-2.975528717041016,-2.09311842918396,-0.3426928520202636
4203771668.0,-0.9726600050926208,-0.2095014154911041,9.524587631225586,-3.3216798305511475,-2.602816104888916,-0.4259647130966186
4203780001.0,-0.68952476978302,-0.5541308522224426,9.925814628601074,-3.44006872177124,-3.37664794921875,-0.4314974546432495
4203788334.0,-0.2921920120716095,-0.3097057342529297,10.181612968444824,-2.97460675239563,-2.9943552017211914,-0.3446139097213745
4203796667.0,-0.5279936790466309,0.0207543987780809,9.882765769958496,-2.877246618270874,-2.289758682250977,-0.340746134519577
4203805000.0,-0.887553870677948,0.0426043421030044,9.438192367553713,-3.2593860626220703,-2.6452078819274902,-0.4191769659519195
4203813333.0,-0.6214276552200317,-0.3840604424476623,9.686216354370115,-3.5194218158721924,-3.358999729156494,-0.3712014853954315
4203821666.0,-0.1888578832149505,-0.5490926504135132,10.212218284606934,-3.249140501022339,-3.107954740524292,-0.3495318591594696
4203829999.0,-0.3820996880531311,-0.1676141619682312,10.039690971374512,-2.876171350479126,-2.286172866821289,-0.3314481973648071
4203838332.0,-0.8330367207527161,0.1286359429359436,9.484589576721191,-3.015589475631714,-2.272366762161255,-0.5470432043075562
4203846665.0,-0.8413286805152893,-0.1859662234783172,9.621112823486328,-3.588477611541748,-3.05483078956604,-0.4500421285629272
4203854998.0,-0.4590059220790863,-0.4948062300682068,10.146355628967283,-3.3709359169006348,-3.299344062805176,-0.4609793424606323
4203863331.0,-0.3006358742713928,-0.1761800646781921,10.126908302307127,-2.9391565322875977,-2.5640358924865723,-0.4263233244419098
4203871664.0,-0.6813966035842896,0.0894453451037406,9.58586597442627,-3.030855417251587,-2.3182930946350098,-0.4262208640575409
4203879997.0,-0.8325209617614746,-0.1735013276338577,9.497793197631836,-3.3566434383392334,-3.056982517242432,-0.4294739365577698
4203888330.0,-0.3813748657703399,-0.4099492728710174,9.99185276031494,-3.3888399600982666,-3.494960308074951,-0.393921285867691
4203896663.0,-0.1080240756273269,-0.2528528571128845,10.201059341430664,-3.116381883621216,-2.824276924133301,-0.3667190372943878
4203904996.0,-0.5825773477554321,0.0243577789515256,9.742642402648926,-2.9862608909606934,-2.0513927936553955,-0.4252218902111053
4203913329.0,-0.9874523878097534,-0.0824920237064361,9.371026039123535,-3.2823102474212646,-2.4581212997436523,-0.2688213884830475
4203921662.0,-0.7273321747779846,-0.4769654273986816,9.86679458618164,-3.4720609188079834,-3.3829236030578613,-0.3100859820842743
4203929995.0,-0.3275375366210937,-0.3802201747894287,10.284120559692385,-3.064615249633789,-3.109158515930176,-0.3440760374069214
4203938328.0,-0.4173193573951721,0.0481729209423065,9.92020320892334,-2.778273344039917,-2.407968282699585,-0.4100582301616668
4203946661.0,-0.7481972575187683,0.1454722285270691,9.37019157409668,-3.290327548980713,-2.437092065811157,-0.3744544684886932
4203954994.0,-0.6783244013786316,-0.3605785667896271,9.690174102783203,-3.5889899730682373,-3.162538290023804,-0.4125941097736358
4203963327.0,-0.2777214348316192,-0.5230842232704163,10.17455005645752,-3.242352247238159,-3.230826139450073,-0.3799359798431396
4203971660.0,-0.3257008492946625,-0.1321277022361755,10.040624618530272,-2.9057042598724365,-2.29370379447937,-0.3150038719177246
4203979993.0,-0.8097848296165466,0.1134018078446388,9.519128799438477,-3.1738851070404053,-2.215861558914185,-0.3630048930644989
4203988326.0,-0.9269912838935852,-0.1820824444293975,9.561966896057127,-3.537326097488404,-2.9974803924560547,-0.364823579788208
4203996659.0,-0.4661487340927124,-0.4133817553520202,10.071873664855955,-3.538990974426269,-3.3121254444122314,-0.3186154663562774
4204004992.0,-0.3384511768817901,-0.2511345744132995,10.14732551574707,-3.074143648147583,-2.601125478744507,-0.4078554511070251
4204013325.0,-0.6970621943473816,-0.0154861556366086,9.61838150024414,-2.935570001602173,-2.3878867626190186,-0.3404131233692169
4204021658.0,-0.802011251449585,-0.1687249690294265,9.475153923034668,-3.5242629051208496,-3.087693691253662,-0.3679228723049164
4204029991.0,-0.3576861619949341,-0.463968276977539,9.988059043884276,-3.3678107261657715,-3.498008251190185,-0.4338539540767669
4204038324.0,-0.1391124129295349,-0.3085743188858032,10.152536392211914,-2.8791167736053467,-2.7570393085479736,-0.3656432032585144
4204046657.0,-0.5637568831443787,-0.0205542780458927,9.696849822998049,-2.9559085369110107,-2.053621530532837,-0.3843160271644592
4204054990.0,-0.9814278483390808,-0.1616915017366409,9.421016693115234,-3.2694265842437744,-2.397799491882324,-0.3623645603656769
4204063323.0,-0.7722371816635132,-0.5607728958129883,9.84542179107666,-3.445601463317871,-3.380899906158448,-0.3133133351802826
4204071656.0,-0.3254983425140381,-0.4481181204319,10.208971977233888,-2.850480556488037,-3.122401237487793,-0.4640275239944458
4204079989.0,-0.461742639541626,0.0206123776733875,9.847716331481934,-2.7626235485076904,-2.238043785095215,-0.4710458219051361
4204088322.0,-0.8119425773620605,0.1241519898176193,9.419954299926758,-3.181288003921509,-2.5151641368865967,-0.3117764592170715
4204096655.0,-0.6504054665565491,-0.3736394047737121,9.701886177062988,-3.53796648979187,-3.2815935611724854,-0.271946370601654
4204104988.0,-0.2157460749149322,-0.4833627045154571,10.23321533203125,-3.238971471786499,-3.129777908325196,-0.3246860802173614
4204113321.0,-0.3438746929168701,-0.1192544475197792,10.036511421203612,-2.8338563442230225,-2.3578672409057617,-0.3868773877620697
4204121654.0,-0.8059684634208679,0.1916196942329406,9.547774314880373,-3.0558295249938965,-2.1454992294311523,-0.3884910941123962
4204129987.0,-0.870677649974823,-0.1135404258966445,9.688965797424316,-3.638118267059326,-2.9538590908050537,-0.463591992855072
4204138320.0,-0.5096125602722168,-0.408698707818985,10.171625137329102,-3.4977521896362305,-3.3192975521087646,-0.2643389105796814
4204146653.0,-0.3575809597969055,-0.1776616424322128,10.097881317138672,-3.1356687545776367,-2.558477640151977,-0.3719186782836914
4204154986.0,-0.7014530301094055,0.0224758964031934,9.656024932861328,-3.11873745918274,-2.276413679122925,-0.3956117928028106
4204163319.0,-0.8404688239097595,-0.1805474609136581,9.54210376739502,-3.5228793621063232,-3.085977554321289,-0.3486865758895874
4204171652.0,-0.3606487512588501,-0.4703638553619385,10.043766975402832,-3.592037916183472,-3.5048985481262207,-0.4414101243019104
4204179985.0,-0.1349239647388458,-0.3071778416633606,10.221896171569824,-3.0792665481567383,-2.7946155071258545,-0.4507080614566803
4204188318.0,-0.5748271346092224,-0.0048561748117208,9.738570213317873,-2.971660852432251,-2.110996961593628,-0.3635940253734588
4204196651.0,-0.9344459176063538,-0.1383967846632003,9.470697402954102,-3.338738918304444,-2.5657780170440674,-0.3747106790542602
4204204984.0,-0.7093117237091064,-0.5722615122795105,9.926511764526367,-3.387534141540528,-3.384434700012207,-0.352298229932785
4204213317.0,-0.3244709074497223,-0.4266276955604553,10.270280838012695,-3.0377204418182373,-3.1889467239379883,-0.3820875883102417
4204221650.0,-0.4638344943523407,0.0463133752346038,9.846268653869627,-2.6072986125946045,-2.338528633117676,-0.4229679107666015
4204229983.0,-0.7993285059928894,0.0941549837589263,9.392980575561523,-3.149731159210205,-2.535220146179199,-0.3436405658721924
4204238316.0,-0.6433703899383545,-0.352322369813919,9.655926704406738,-3.53737735748291,-3.261460781097412,-0.4158727526664734
4204246649.0,-0.2259474545717239,-0.5393089652061462,10.152326583862305,-3.257106065750122,-3.127190589904785,-0.3986343443393707
4204254982.0,-0.3114394843578338,-0.1440590322017669,9.97046184539795,-2.7331414222717285,-2.3210597038269043,-0.3894388675689697
4204263315.0,-0.7649921774864197,0.1567095518112182,9.494680404663086,-3.021070718765259,-2.139582633972168,-0.2698971629142761
4204271648.0,-0.8519449830055237,-0.1300171315670013,9.59723663330078,-3.5658092498779297,-3.074707269668579,-0.3014539778232574
4204279981.0,-0.4574868083000183,-0.4291267991065979,10.092578887939451,-3.485379934310913,-3.328979730606079,-0.3380823135375976
4204288314.0,-0.3497517704963684,-0.2122543454170227,10.079870223999023,-3.0052406787872314,-2.518084049224853,-0.3741470873355865
4204296647.0,-0.7208519577980042,0.0454727411270141,9.562405586242676,-3.089486598968506,-2.2979297637939453,-0.3388507068157196
4204304980.0,-0.8048979640007019,-0.1612908095121383,9.487436294555664,-3.47843861579895,-2.878015279769897,-0.2361888736486435
4204313313.0,-0.3943250477313995,-0.4647331833839416,9.995624542236328,-3.541116952896118,-3.547392129898072,-0.3011977970600128
4204321646.0,-0.1340194791555404,-0.2501185536384582,10.15717601776123,-2.996506690979004,-2.80555272102356,-0.3504283428192138
4204329979.0,-0.510662853717804,-0.0076290955767035,9.756103515625,-2.9911794662475586,-1.9448633193969729,-0.3702281713485718
4204338312.0,-0.9911904335021972,-0.1406880617141723,9.446538925170898,-3.3037238121032715,-2.521977424621582,-0.3227393329143524
4204346645.0,-0.71629399061203,-0.5330093502998352,9.883116722106934,-3.5144009590148926,-3.2713990211486816,-0.2679505348205566
4204354978.0,-0.3145114481449127,-0.484806090593338,10.235916137695312,-3.008725166320801,-3.063693284988404,-0.3656944334506988
4204363311.0,-0.4563372135162353,0.0115418322384357,9.898465156555176,-2.7963054180145264,-2.421800136566162,-0.5077765583992004
4204371644.0,-0.7888641953468323,0.0722872167825698,9.43221950531006,-3.1796228885650635,-2.648076295852661,-0.4696113765239715
4204379977.0,-0.6336899995803833,-0.3879093825817108,9.717569351196287,-3.570931911468506,-3.2232699394226074,-0.4476343691349029
4204388310.0,-0.2740941047668457,-0.5648872256278992,10.249066352844238,-3.154418706893921,-3.096940279006958,-0.2992767095565796
4204396643.0,-0.3279368579387665,-0.1379561722278595,10.058473587036133,-2.737777709960937,-2.2581255435943604,-0.4505800008773803
4204404976.0,-0.8032727241516113,0.0482476279139518,9.558090209960938,-3.017612934112549,-2.094270944595337,-0.4043206870555877
4204413309.0,-0.8680386543273926,-0.2126327008008957,9.634668350219728,-3.5011589527130127,-3.107314348220825,-0.335495263338089
4204421642.0,-0.4609420895576477,-0.4118576943874359,10.146674156188965,-3.399751663208008,-3.281952142715454,-0.3783734738826751
4204429975.0,-0.3429772853851318,-0.2798511385917663,10.13957405090332,-2.870689868927002,-2.4704930782318115,-0.4670243859291076
4204438308.0,-0.7485009431838989,0.0118249710649251,9.592427253723145,-2.842334747314453,-2.291116237640381,-0.4440483748912811
4204446641.0,-0.8151962757110596,-0.19846011698246,9.524558067321776,-3.3199381828308105,-3.060337543487549,-0.3048350214958191
4204454974.0,-0.3549500703811645,-0.4486971497535705,10.05519676208496,-3.421985149383545,-3.4755189418792725,-0.3643112778663635
4204463307.0,-0.1883324533700943,-0.2948374152183532,10.17657470703125,-2.8052706718444824,-2.634526014328003,-0.4630028307437897
4204471640.0,-0.564364492893219,0.0542252101004123,9.68883228302002,-2.929781675338745,-2.1696791648864746,-0.3645161390304565
4204479973.0,-0.9796805381774902,-0.2241280376911163,9.476943969726562,-3.420832633972168,-2.490010976791382,-0.424735277891159
4204488306.0,-0.7523595094680786,-0.5073123574256897,9.897857666015623,-3.2959372997283936,-3.2977559566497803,-0.4012469947338104
4204496639.0,-0.3378960788249969,-0.3460521996021271,10.213238716125488,-2.91774320602417,-2.997634172439575,-0.4660510122776031
4204504972.0,-0.4457876086235046,0.0415844731032848,9.89626407623291,-2.8399014472961426,-2.366755247116089,-0.4099045693874359
4204513305.0,-0.821559727191925,0.0513947159051895,9.485285758972168,-3.192045927047729,-2.4502320289611816,-0.3888753056526184
4204521638.0,-0.656482458114624,-0.3055845499038696,9.691929817199709,-3.519524097442627,-3.3253426551818848,-0.2919510900974273
4204529971.0,-0.2551784515380859,-0.46925088763237,10.145766258239746,-3.1787009239196777,-3.075629234313965,-0.3475083112716675
4204538304.0,-0.3558353185653686,-0.0991582944989204,10.005433082580566,-2.746460199356079,-2.422722101211548,-0.3411559462547302
4204546637.0,-0.7989469766616821,0.149971455335617,9.589844703674316,-2.8618526458740234,-2.308995246887207,-0.4308826625347137
4204554970.0,-0.8794190287590027,-0.1121217831969261,9.640470504760742,-3.321859121322632,-2.922661304473877,-0.3435637652873993
4204563303.0,-0.576310932636261,-0.3113991022109985,10.03735637664795,-3.3633029460906982,-3.3348965644836426,-0.3624926209449768
4204571636.0,-0.346711128950119,-0.1601071059703827,10.09129238128662,-3.1181740760803223,-2.739877700805664,-0.3716624975204468
4204579969.0,-0.7038189768791199,-0.0385230742394924,9.70512580871582,-3.073246955871582,-2.423798084259033,-0.3556536436080932
4204588302.0,-0.8387112021446228,-0.1540922820568084,9.581331253051758,-3.412636041641236,-2.943434238433838,-0.4079323410987854
4204596635.0,-0.4432771205902099,-0.3229950368404388,9.899853706359863,-3.514426946640014,-3.409331798553467,-0.3847514688968658
4204604968.0,-0.1197123751044273,-0.1497907638549804,10.1705904006958,-3.182645559310913,-2.820486068725586,-0.30662801861763
4204613301.0,-0.4565607607364654,0.0348312370479106,9.782109260559082,-3.0691490173339844,-2.20625638961792,-0.5131812691688538
4204621634.0,-0.8696458339691162,-0.1277076601982116,9.533967971801758,-3.3944754600524902,-2.5721046924591064,-0.4288078844547272
4204629967.0,-0.757956326007843,-0.437096893787384,9.84207534790039,-3.4506218433380127,-3.2909939289093018,-0.3515041470527649
4204638300.0,-0.4209036231040954,-0.3191963732242584,10.147092819213867,-3.166482925415039,-3.15964412689209,-0.4802413284778595
4204646633.0,-0.4769964516162872,0.1025779992341995,9.904754638671877,-3.0131304264068604,-2.640033483505249,-0.3349573314189911
4204654966.0,-0.6973037719726562,0.0649110451340675,9.552435874938965,-3.4137117862701416,-2.613266944885254,-0.4141566157341003
4204663299.0,-0.6780512928962708,-0.3293228149414062,9.64327621459961,-3.5340731143951416,-3.143481492996216,-0.2940002083778381
4204671632.0,-0.3116558790206909,-0.3936238884925842,10.066659927368164,-3.49544644355774,-3.346167087554932,-0.3858784735202789
4204679965.0,-0.3193171620368957,-0.2007826864719391,10.001895904541016,-3.0263473987579346,-2.6318113803863525,-0.3379029631614685
4204688298.0,-0.6972773671150208,0.0408283062279224,9.625139236450195,-3.068943738937378,-2.362093448638916,-0.4114414155483246
4204696631.0,-0.7912821173667908,-0.1364581137895584,9.628524780273438,-3.550158739089966,-2.92202091217041,-0.4995288252830505
4204704964.0,-0.5372224450111389,-0.4130893051624298,10.052308082580566,-3.6513094902038574,-3.2407901287078857,-0.3796029686927795
4204713297.0,-0.4820172786712646,-0.2071767151355743,10.067498207092283,-3.1092605590820312,-2.7717673778533936,-0.3931016325950622
4204721630.0,-0.7724491357803345,0.0618515685200691,9.5469388961792,-3.33274507522583,-2.8053736686706543,-0.3194864094257355
4204729963.0,-0.7571269273757935,-0.2534092962741852,9.573071479797363,-3.698721170425415,-3.372882843017578,-0.2364193946123123
4204738296.0,-0.2733945548534393,-0.4994573891162872,10.084738731384276,-3.5830729007720947,-3.646160840988159,-0.3358026146888733
4204746629.0,-0.0923117250204086,-0.19106525182724,10.143266677856444,-3.1314172744750977,-2.760702610015869,-0.4011189639568329
4204754962.0,-0.6126817464828491,-0.041861530393362,9.672926902770996,-3.102370262145996,-1.976189374923706,-0.3799103200435638
4204763295.0,-0.8839437961578369,-0.2050165086984634,9.471712112426758,-3.57649040222168,-2.61559796333313,-0.4177682101726532
4204771628.0,-0.7030222415924072,-0.5543750524520874,9.885831832885742,-3.4807698726654053,-3.363200664520264,-0.3845977485179901
4204779961.0,-0.308688223361969,-0.4552534520626068,10.252326011657717,-3.169992446899414,-3.058416843414306,-0.4157190322875976
4204788294.0,-0.5171288847923279,-0.0206911191344261,9.790751457214355,-2.8465096950531006,-2.423695802688598,-0.3731481730937958
4204796627.0,-0.8073469996452332,0.0309843402355909,9.321426391601562,-3.2469377517700195,-2.6171858310699463,-0.4472757875919342
4204804960.0,-0.5916020274162292,-0.4381972551345825,9.760589599609377,-3.634070873260498,-3.210308790206909,-0.3476620316505432
4204813293.0,-0.3223845064640045,-0.6187321543693542,10.202851295471191,-3.270092964172364,-3.1484766006469727,-0.4087007641792297
4204821626.0,-0.382254809141159,-0.1540903896093368,9.911840438842772,-2.8309874534606934,-2.535706758499145,-0.3629280924797058
4204829959.0,-0.7383838295936584,0.0257592182606458,9.48017120361328,-3.1720664501190186,-2.421569585800171,-0.366718977689743
4204838292.0,-0.8321175575256348,-0.2719916701316833,9.705463409423828,-3.485379934310913,-3.068636655807495,-0.2820639908313751
4204846625.0,-0.4573987126350403,-0.4402292966842651,10.157151222229004,-3.320475816726685,-3.2059545516967773,-0.4011701643466949
4204854958.0,-0.3855267763137817,-0.2764169871807098,9.994414329528809,-2.92893648147583,-2.668081045150757,-0.3673081398010254
4204863291.0,-0.700738251209259,-0.0699747130274772,9.583015441894531,-3.0309834480285645,-2.462654829025269,-0.3015819787979126
4204871624.0,-0.7479380369186401,-0.252215564250946,9.546170234680176,-3.394296169281006,-3.201984405517578,-0.3498392403125763
4204879957.0,-0.3566691875457763,-0.5041782855987549,10.018267631530762,-3.3259060382843018,-3.4064886569976807,-0.3420781195163727
4204888290.0,-0.2113180011510849,-0.2429117113351822,10.16695499420166,-3.027218103408813,-2.7434120178222656,-0.3733018338680267
4204896623.0,-0.5700870752334595,0.0171412099152803,9.70470142364502,-2.832012414932251,-2.1492137908935547,-0.3491476476192474
4204904956.0,-0.9355787634849548,-0.233155757188797,9.46983814239502,-3.378902196884156,-2.571362018585205,-0.2614701390266418
4204913289.0,-0.6877326965332031,-0.4320662021636963,9.87421989440918,-3.353543996810913,-3.1816725730896,-0.3129035234451294
4204921622.0,-0.3581593036651611,-0.3303161561489105,10.250533103942873,-2.9541923999786377,-2.995482444763184,-0.2881089448928833
4204929955.0,-0.5169950127601624,0.0692424103617668,9.911009788513184,-2.741133213043213,-2.338528633117676,-0.4081628918647766
4204938288.0,-0.7677268385887146,0.1535089164972305,9.451120376586914,-3.126627206802368,-2.5354762077331543,-0.379679799079895
4204946621.0,-0.5705296397209167,-0.2947562932968139,9.723946571350098,-3.5144009590148926,-3.2367172241210938,-0.3473290205001831
4204954954.0,-0.2123773396015167,-0.4813963770866394,10.214766502380373,-3.092970371246338,-3.205186128616333,-0.3669495582580566
4204963287.0,-0.3872144520282745,-0.0944764912128448,10.013704299926758,-2.832191705703736,-2.327386379241944,-0.4054989516735077
4204971620.0,-0.7990605235099792,0.1631661057472229,9.485089302062988,-3.127241849899292,-2.290757656097412,-0.3624670207500458
4204979953.0,-0.837709367275238,-0.1915481835603714,9.733786582946776,-3.5942153930664062,-2.8664379119873047,-0.3623389899730682
4204988286.0,-0.5035732984542847,-0.3729914426803589,10.152091026306152,-3.352109432220459,-3.175191879272461,-0.4413076341152191
4204996619.0,-0.4292027652263641,-0.1119614392518997,10.06531810760498,-3.022709608078003,-2.5419304370880127,-0.4742218554019928
4205004952.0,-0.7261872291564941,0.0165288560092449,9.56864070892334,-3.0189452171325684,-2.412681579589844,-0.405831903219223
4205013285.0,-0.7244747281074524,-0.1810034215450287,9.60471534729004,-3.481973171234131,-3.070685863494873,-0.3911549746990204
4205021618.0,-0.3181350529193878,-0.3680256009101867,10.118630409240724,-3.286153078079224,-3.3574886322021484,-0.3314994573593139
4205029951.0,-0.2297250628471374,-0.1359142959117889,10.113319396972656,-2.936134099960327,-2.498617172241211,-0.4219688773155212
4205038284.0,-0.6179487109184265,0.1149070262908935,9.64683723449707,-3.15897798538208,-2.125136137008667,-0.4611842930316925
4205046617.0,-0.8833720684051514,-0.1094026491045951,9.5654935836792,-3.4255197048187256,-2.7827816009521484,-0.3745569884777069
4205054950.0,-0.703585684299469,-0.4561695456504822,10.0201997756958,-3.518806934356689,-3.2004733085632324,-0.3827535212039947
4205063283.0,-0.427222192287445,-0.1838926523923874,10.184149742126465,-3.095839262008667,-2.8543481826782227,-0.4501445889472961
4205071616.0,-0.5267296433448792,0.1914393603801727,9.789258003234863,-3.09320068359375,-2.395468711853028,-0.3970462381839752
4205079949.0,-0.8095917105674744,0.1089545637369155,9.4606351852417,-3.506563425064087,-2.8696656227111816,-0.4604158997535705
4205088282.0,-0.5711607933044434,-0.4220086336135864,9.874597549438477,-3.785656213760376,-3.282310485839844,-0.2443085610866546
4205096615.0,-0.2697763741016388,-0.3256510198116302,10.161865234375,-3.472342729568481,-3.083775043487549,-0.3866468966007232
4205104948.0,-0.4010156393051147,0.0291448645293712,9.851348876953123,-3.1691722869873047,-2.3122992515563965,-0.3570111691951751
4205113281.0,-0.8510671257972717,0.0067627737298607,9.535908699035645,-3.520907402038574,-2.392446517944336,-0.4531158804893493
4205121614.0,-0.741584062576294,-0.1862179487943649,9.790252685546877,-3.8545072078704834,-3.13423490524292,-0.3408742547035217
4205129947.0,-0.461589902639389,-0.3290742933750152,10.246397018432615,-3.600003957748413,-3.220503330230713,-0.3399265110492706
4205138280.0,-0.4904582798480987,-0.1289496421813964,10.042757987976074,-3.3447582721710205,-2.585347414016724,-0.3183337152004242
4205146613.0,-0.7264775037765503,-0.0062417602166533,9.51388931274414,-3.342862844467163,-2.6592957973480225,-0.4129271209239959
4205154946.0,-0.6225732564926147,-0.2730301022529602,9.66595458984375,-3.884937047958374,-3.154726266860962,-0.3719443082809448
4205163279.0,-0.2693844437599182,-0.4494000077247619,10.190868377685549,-3.749693632125856,-3.282233715057373,-0.2953577637672424
4205171612.0,-0.2473305761814117,-0.1489654928445816,10.067487716674805,-3.229237794876098,-2.559860944747925,-0.3964571058750152
4205179945.0,-0.6590558886528015,-0.0646439790725708,9.52719497680664,-3.375699520111084,-2.2410144805908203,-0.3630304932594299
4205188278.0,-0.8634369373321533,-0.4147792160511017,9.596050262451172,-3.764780759811402,-2.7372398376464844,-0.3912318646907806
4205196611.0,-0.5909337997436523,-0.5281962156295776,10.081640243530272,-3.5279769897460938,-3.1816723346710205,-0.3644393384456634
4205204944.0,-0.378618061542511,-0.1683762818574905,10.149449348449709,-3.1680455207824707,-2.7463839054107666,-0.4243766665458679
4205213277.0,-0.6971187591552734,0.0534458011388778,9.667201042175291,-3.2466297149658203,-2.602816104888916,-0.4511178731918335
4205221610.0,-0.7413411140441895,-0.1378807425498962,9.477832794189451,-3.7320456504821777,-3.01850962638855,-0.4015544056892395
4205229943.0,-0.4245082437992096,-0.4717792272567749,9.911672592163086,-3.8832972049713135,-3.4174253940582275,-0.3332411646842956
4205238276.0,-0.25644451379776,-0.4330994486808777,10.168731689453123,-3.372677803039551,-2.900478839874268,-0.3953301012516022
4205246609.0,-0.4534607827663421,-0.1224079355597496,9.779476165771484,-3.190226793289185,-2.330869197845459,-0.3865443468093872
4205254942.0,-0.8236905932426453,-0.0806317552924156,9.498404502868652,-3.528438091278076,-2.468623161315918,-0.451322853565216
4205263275.0,-0.7144792079925537,-0.4201322793960571,9.88588809967041,-3.659813404083252,-3.154905319213867,-0.4221994280815124
4205271608.0,-0.4830459952354431,-0.4409270882606506,10.123977661132812,-3.273089647293091,-2.9527065753936768,-0.3748131394386291
4205279941.0,-0.5328752994537354,-0.1963328421115875,9.753284454345703,-3.148296594619751,-2.455303430557251,-0.4730180203914642
4205288274.0,-0.7516481876373291,-0.3076915442943573,9.497880935668944,-3.3937580585479736,-2.678992986679077,-0.3864932358264923
4205296607.0,-0.5839067101478577,-0.5238577127456665,9.753122329711914,-3.4757750034332275,-3.2583611011505127,-0.3022992014884949
4205304940.0,-0.2645851373672485,-0.4113530814647674,10.088994979858398,-3.289738655090332,-3.156365394592285,-0.3287843465805053
4205313273.0,-0.3607218861579895,-0.1618673503398895,9.829713821411133,-3.0101332664489746,-2.5021774768829346,-0.3427440822124481
4205321606.0,-0.7134754657745361,-0.2036540955305099,9.499720573425291,-3.297294855117798,-2.502280235290528,-0.2910033166408539
4205329939.0,-0.7392316460609436,-0.5054379105567932,9.703225135803224,-3.270169496536255,-2.9773988723754883,-0.3021199107170105
4205338272.0,-0.518471896648407,-0.5395315885543823,10.090396881103516,-3.0090324878692627,-2.980088233947754,-0.4486589729785919
4205346605.0,-0.4909912049770355,-0.0906806290149688,9.875154495239258,-2.659884214401245,-2.622308254241944,-0.3804225921630859
4205354938.0,-0.6749478578567505,0.0136841367930173,9.546930313110352,-3.025604248046875,-2.504585027694702,-0.3526055216789245
4205363271.0,-0.6372759342193604,-0.2853201031684875,9.658044815063477,-3.341197967529297,-2.971533298492432,-0.3719186782836914
4205371604.0,-0.3419117927551269,-0.4650079011917114,9.964225769042969,-3.080828905105591,-3.1980655193328857,-0.3186410963535309
4205379937.0,-0.2702389061450958,-0.2798346281051636,9.919207572937012,-2.9812912940979004,-2.516547203063965,-0.2725610435009002
4205388270.0,-0.6079860329627991,-0.0539682544767856,9.677266120910645,-3.0084171295166016,-2.2132487297058105,-0.3210999965667724
4205396603.0,-0.8183929920196533,-0.1649986207485199,9.648380279541016,-3.2335922718048096,-2.726942777633667,-0.3042971193790436
4205404936.0,-0.6218105554580688,-0.3710531294345855,9.939156532287598,-3.229647636413574,-3.079983711242676,-0.2816797494888305
4205413269.0,-0.4595195651054382,-0.2003515362739563,10.023759841918944,-2.971712350845337,-2.795870304107666,-0.3378517031669616
4205421602.0,-0.6190667152404785,0.0103755677118897,9.732874870300291,-2.954012632369995,-2.5146517753601074,-0.3141329288482666
4205429935.0,-0.7701704502105713,-0.1497891545295715,9.618721961975098,-3.32500958442688,-2.795358419418335,-0.4731205403804779
4205438268.0,-0.5102457404136658,-0.3483721017837524,9.91466999053955,-3.280876398086548,-3.368528366088867,-0.3755559623241424
4205446601.0,-0.2106339931488037,-0.1499382108449936,10.087607383728027,-3.151754856109619,-2.931984663009644,-0.3047581911087036
4205454934.0,-0.4005636870861053,0.0008884116541594,9.91535472869873,-3.070096492767334,-2.2087411880493164,-0.3912061750888824
4205463267.0,-0.8136245608329773,0.0032451478764414,9.658498764038086,-3.2240889072418213,-2.2038230895996094,-0.4597499072551727
4205471600.0,-0.8223631978034973,-0.2808093130588531,9.78603458404541,-3.508894205093384,-3.0878472328186035,-0.4983505606651306
4205479933.0,-0.4745763838291168,-0.282720535993576,10.166650772094728,-3.329953193664551,-3.176652193069458,-0.4009396731853485
4205488266.0,-0.4973194599151611,0.0730609893798828,10.047014236450195,-3.014641761779785,-2.595643758773804,-0.5497839450836182
4205496599.0,-0.7248213291168213,0.2249332964420318,9.642511367797852,-3.217583179473877,-2.5403940677642822,-0.5017060041427612
4205504932.0,-0.7064377665519714,-0.1282287389039993,9.75322723388672,-3.689167022705078,-2.965718984603882,-0.4517839252948761
4205513265.0,-0.4089055061340332,-0.3856169879436493,10.142715454101562,-3.558687925338745,-3.315122604370117,-0.390360951423645
4205521598.0,-0.3566820025444031,-0.0290992464870214,10.085204124450684,-3.2374088764190674,-2.6849610805511475,-0.4505032300949096
4205529931.0,-0.7593088150024414,0.1570932269096374,9.749411582946776,-3.36330246925354,-2.0921192169189453,-0.4257085621356964
4205538264.0,-0.901094377040863,-0.0316404215991497,9.740401268005373,-3.787679672241211,-2.7319631576538086,-0.5542664527893066
4205546597.0,-0.5786171555519104,-0.2674368619918823,10.09354305267334,-3.863216161727905,-3.438096523284912,-0.4999642968177795
4205554930.0,-0.3818718492984772,-0.1299034208059311,10.242019653320312,-3.530435800552368,-2.6346802711486816,-0.3918209671974182
4205563263.0,-0.737041175365448,0.1072387844324112,9.786664009094238,-3.513376235961914,-2.3059470653533936,-0.3944079875946045
4205571596.0,-0.8725931644439697,0.0565217211842536,9.536665916442873,-3.977224826812744,-3.003089666366577,-0.383009672164917
4205579929.0,-0.4213927686214447,-0.293258935213089,10.08225154876709,-4.203424453735352,-3.57700252532959,-0.4155910015106201
4205588262.0,-0.1194527223706245,-0.1363516896963119,10.32777976989746,-3.634890556335449,-2.971123456954956,-0.434929758310318
4205596595.0,-0.5352596640586853,0.201824277639389,9.759482383728027,-3.6599414348602295,-2.2173216342926025,-0.4325476288795471
4205604928.0,-0.953536570072174,0.0171663463115692,9.51989459991455,-4.32627010345459,-2.4760773181915283,-0.3549621105194092
4205613261.0,-0.7641110420227051,-0.3052157461643219,9.921546936035156,-4.263643741607666,-3.223936080932617,-0.4544478058815002
4205621594.0,-0.3308102786540985,-0.1668207198381424,10.255019187927246,-3.873718023300171,-2.9877471923828125,-0.3844184577465057
4205629927.0,-0.4527173042297363,0.1357897371053695,9.971009254455566,-3.758889198303223,-2.39101243019104,-0.3505308032035827
4205638260.0,-0.8187042474746704,0.1247119605541229,9.524746894836426,-4.305471420288086,-2.5420846939086914,-0.3590347468852997
4205646593.0,-0.6172375679016113,-0.2089935690164566,9.746538162231444,-4.52729082107544,-3.401135206222534,-0.4227629899978637
4205654926.0,-0.2130848914384842,-0.3646155595779419,10.183801651000977,-4.301193714141846,-3.128471612930298,-0.2906959652900696
4205663259.0,-0.3012644946575165,-0.0658477470278739,9.979253768920898,-3.914111614227295,-2.325516700744629,-0.4053196907043457
4205671592.0,-0.7599535584449768,0.0582237727940082,9.564064979553224,-4.1953558921813965,-2.2963674068450928,-0.428705483675003
4205679925.0,-0.7737927436828613,-0.2336211949586868,9.7678861618042,-4.536588191986084,-3.1016530990600586,-0.2792207896709442
4205688258.0,-0.4635606110095978,-0.3510157465934753,10.114733695983888,-4.30019474029541,-3.2192742824554443,-0.3516322672367096
4205696591.0,-0.4160780906677246,-0.1481256186962127,9.990254402160645,-4.016824245452881,-2.627995014190674,-0.329885721206665
4205704924.0,-0.7673731446266174,-0.1126992926001548,9.628039360046388,-4.180422782897949,-2.433377981185913,-0.3362124264240265
4205713257.0,-0.7526302933692932,-0.3272667527198791,9.676372528076172,-4.463613510131836,-3.161897897720337,-0.3396959900856018
4205721590.0,-0.2937604784965515,-0.3432207405567169,9.992701530456545,-4.2743754386901855,-3.5488009452819824,-0.3542192578315735
4205729923.0,-0.1912224441766739,-0.2032487243413925,9.977681159973145,-4.085522174835205,-2.7122914791107178,-0.3570112287998199
4205738256.0,-0.611356258392334,-0.1350433081388473,9.575098991394045,-4.14919900894165,-2.2326648235321045,-0.181041419506073
4205746589.0,-0.8793858885765076,-0.3877319097518921,9.641969680786133,-4.408619403839111,-2.82263708114624,-0.2736112475395202
4205754922.0,-0.5967616438865662,-0.6136676073074341,9.99429416656494,-4.266383647918701,-3.318375587463379,-0.3262741267681122
4205763255.0,-0.419833242893219,-0.3451165854930877,9.97783088684082,-3.858630895614624,-2.89586877822876,-0.3042971193790436
4205771588.0,-0.5929468274116516,-0.0582706220448017,9.587971687316896,-3.875613212585449,-2.699843168258667,-0.3916672766208648
4205779921.0,-0.747891902923584,-0.3464663028717041,9.53311824798584,-4.318457126617432,-2.913055658340454,-0.299917072057724
4205788254.0,-0.4960601925849914,-0.6723347306251526,9.85820770263672,-4.279498100280762,-3.3614327907562256,-0.2518903911113739
4205796587.0,-0.2487217783927917,-0.4854314923286438,9.93676471710205,-3.79510760307312,-2.928040266036988,-0.2857780158519745
4205804920.0,-0.5351018905639648,-0.3213704526424408,9.642257690429688,-3.779355049133301,-2.486271381378174,-0.308933287858963
4205813253.0,-0.8463255167007446,-0.3583126068115234,9.52917766571045,-3.977609395980835,-2.6567599773406982,-0.2201287597417831
4205821586.0,-0.6325662136077881,-0.5517348051071167,9.82946491241455,-4.13895320892334,-3.263535261154175,-0.3279646635055542
4205829919.0,-0.4200560748577118,-0.6199060082435608,9.991666793823242,-3.713603258132935,-2.961287498474121,-0.3081136345863342
4205838252.0,-0.5918123126029968,-0.3716053664684295,9.645472526550291,-3.477363109588623,-2.528022766113281,-0.4361080229282379
4205846585.0,-0.7800827622413635,-0.361171007156372,9.43161392211914,-3.750923156738281,-2.785855770111084,-0.2870843410491943
4205854918.0,-0.5837349891662598,-0.6728726625442505,9.798501968383787,-3.794005870819092,-3.312817096710205,-0.4208162426948547
4205863251.0,-0.2694990634918213,-0.6555771827697754,9.988781929016112,-3.408973217010498,-3.091817617416382,-0.4959428608417511
4205871584.0,-0.3403614461421966,-0.2629514038562774,9.699191093444824,-3.2410202026367188,-2.4745655059814453,-0.5649219155311584
4205879917.0,-0.7721316814422607,-0.3669920861721039,9.419472694396973,-3.3902742862701416,-2.425309181213379,-0.3820362985134125
4205888250.0,-0.810892641544342,-0.7346066832542419,9.657676696777344,-3.6231589317321777,-3.0295238494873047,-0.3815496861934662
4205896583.0,-0.4638180136680603,-0.7444822192192078,10.024212837219238,-3.150397062301636,-3.212076425552368,-0.3808580636978149
4205904916.0,-0.4440840780735016,-0.4066325426101684,9.868437767028809,-2.803861856460572,-2.612036943435669,-0.4977613985538482
4205913249.0,-0.732147216796875,-0.2302252948284149,9.467096328735352,-2.887440919876098,-2.618594169616699,-0.4791142046451568
4205921582.0,-0.6248684525489807,-0.4059318900108337,9.588839530944824,-3.274652004241944,-3.192456007003784,-0.4109292030334472
4205929915.0,-0.284813642501831,-0.7067497968673706,10.028767585754396,-3.058544635772705,-3.2976794242858887,-0.4210980534553528
4205938248.0,-0.287961333990097,-0.5014960169792175,9.904215812683104,-2.58140230178833,-2.6363446712493896,-0.4231214821338653
4205946581.0,-0.600723147392273,-0.1533587872982025,9.514328002929688,-2.725457191467285,-2.2743136882781982,-0.3723285496234894
4205954914.0,-0.7434895634651184,-0.2712048888206482,9.633662223815918,-2.975733757019043,-2.690237283706665,-0.3450749516487121
4205963247.0,-0.5810325145721436,-0.5240720510482788,10.04466724395752,-2.9914097785949707,-3.0838003158569336,-0.3847770690917969
4205971580.0,-0.3981252610683441,-0.268815666437149,10.02688217163086,-2.671487808227539,-2.8627493381500244,-0.4277064800262451
4205979913.0,-0.5943471193313599,-0.1233481541275978,9.70468521118164,-2.794973611831665,-2.405996084213257,-0.4260671138763428
4205988246.0,-0.778717041015625,-0.2330014258623123,9.601216316223145,-3.098221063613892,-2.867897748947144,-0.306013286113739
4205996579.0,-0.4545003473758697,-0.4155445694923401,9.930084228515623,-3.0433554649353027,-3.389583110809326,-0.2470749169588089
4206004912.0,-0.1349169611930847,-0.3076799511909485,10.120159149169922,-2.830705404281616,-2.960339069366455,-0.3314225375652313
4206013245.0,-0.4220914840698242,-0.0219025686383247,9.83298683166504,-2.7013027667999268,-2.344112157821656,-0.3410535156726837
4206021578.0,-0.8194544911384583,-0.0422631427645683,9.553235054016112,-3.074681520462036,-2.4477221965789795,-0.3328826129436493
4206029911.0,-0.7576254606246948,-0.412845253944397,9.85455322265625,-3.2269582748413086,-3.06315541267395,-0.4060112535953522
4206038244.0,-0.4308086335659027,-0.4708330333232879,10.240525245666504,-2.706758737564087,-3.17864990234375,-0.392666220664978
4206046577.0,-0.4451671242713928,-0.0308939293026924,9.932109832763672,-2.5894453525543213,-2.5406758785247803,-0.364388108253479
4206054910.0,-0.7429437041282654,0.0945669040083885,9.578527450561523,-2.9043214321136475,-2.4918551445007324,-0.4343917965888977
4206063243.0,-0.6496891379356384,-0.1661610603332519,9.748492240905762,-3.175832271575928,-3.313815832138061,-0.3994540274143219
4206071576.0,-0.2644144892692566,-0.4375238418579101,10.113101959228516,-3.0437653064727783,-3.251009941101074,-0.4210212230682373
4206079909.0,-0.2656465172767639,-0.1566144526004791,10.036361694335938,-2.7149810791015625,-2.4486184120178223,-0.4270405173301697
4206088242.0,-0.7748818397521973,0.1018276736140251,9.616071701049805,-2.816182851791382,-2.178849458694458,-0.4491969048976898
4206096575.0,-0.913052260875702,-0.115496926009655,9.651153564453123,-3.1804685592651367,-2.9199459552764893,-0.3909501135349273
4206104908.0,-0.4940306842327118,-0.285906434059143,10.10168170928955,-3.25754189491272,-3.185822010040283,-0.3513504862785339
4206113241.0,-0.3922227323055267,-0.1248838230967521,10.092992782592772,-2.936697483062744,-2.632221221923828,-0.4479673504829407
4206121574.0,-0.7216746211051941,0.0609073899686336,9.65096664428711,-3.025834560394287,-2.3824563026428223,-0.3025809228420257
4206129907.0,-0.8559721112251282,-0.061054740101099,9.515044212341309,-3.354209899902344,-2.6967689990997314,-0.4091618061065674
4206138240.0,-0.4489249885082245,-0.3292730152606964,10.008659362792969,-3.4085373878479004,-3.4485983848571777,-0.4245559871196747
4206146573.0,-0.1631693691015243,-0.215218186378479,10.212616920471191,-3.071531057357788,-2.863543510437012,-0.4131063818931579
4206154906.0,-0.5085813403129578,0.0320602394640445,9.72563362121582,-2.9934844970703125,-2.086740493774414,-0.4419479966163635
4206163239.0,-0.9467597007751464,-0.0518076494336128,9.48699188232422,-3.4281837940216064,-2.425309419631958,-0.3727383911609649
4206171572.0,-0.8118299245834351,-0.4375897049903869,9.859574317932127,-3.6025397777557373,-3.099373817443848,-0.4299605190753937
4206179905.0,-0.404044508934021,-0.3940027356147766,10.170616149902344,-3.2585666179656982,-3.0302155017852783,-0.4827003180980682
4206188238.0,-0.5148481130599976,0.0025379117578268,9.843238830566406,-3.006342887878418,-2.537704467773437,-0.5029610991477966
4206196571.0,-0.7830918431282043,-0.0013703985605388,9.525357246398926,-3.383000373840332,-2.648127794265747,-0.3655663728713989
4206204904.0,-0.6423768401145935,-0.3925493359565735,9.738828659057615,-3.65463924407959,-3.2878689765930176,-0.2497644126415252
4206213237.0,-0.2479457110166549,-0.4653575718402862,10.019610404968262,-3.363149404525757,-3.241046190261841,-0.3311920762062073
4206221570.0,-0.3162340223789215,-0.2375046461820602,9.929975509643556,-3.0616183280944824,-2.5002307891845703,-0.3344450294971466
4206229903.0,-0.7810565233230591,-0.1378166377544403,9.610098838806152,-3.115894794464112,-2.294548749923706,-0.4265538156032562
4206238236.0,-0.8398193120956421,-0.2301103472709655,9.650775909423828,-3.472060441970825,-2.963951349258423,-0.3724310100078583
4206246569.0,-0.5016700029373169,-0.4533813297748565,10.05528163909912,-3.364583730697632,-3.22852087020874,-0.2843436300754547
4206254902.0,-0.4127667546272278,-0.3730361759662628,10.05787467956543,-3.133312225341797,-2.6901350021362305,-0.3080624043941498
4206263235.0,-0.7063789963722229,-0.092699110507965,9.633853912353516,-3.1270108222961426,-2.443418264389038,-0.3757351338863373
4206271568.0,-0.7211390137672424,-0.2338573336601257,9.521037101745604,-3.4082813262939453,-3.068687915802002,-0.338722676038742
4206279901.0,-0.3312801420688629,-0.5755664110183716,10.036142349243164,-3.5557422637939453,-3.40751314163208,-0.3155161738395691
4206288234.0,-0.1638780534267425,-0.3007302284240722,10.111119270324709,-3.068073034286499,-2.762136459350586,-0.4141565561294555
4206296567.0,-0.5088852047920227,-0.040164016187191,9.688419342041016,-3.037156820297241,-2.1712162494659424,-0.4083677232265472
4206304900.0,-0.8790988326072693,-0.3297487497329712,9.551557540893556,-3.514939069747925,-2.6041226387023926,-0.3566782474517822
4206313233.0,-0.6787194013595581,-0.5917573571205139,9.944499015808104,-3.492526769638061,-3.213075637817383,-0.4494274258613586
4206321566.0,-0.347544252872467,-0.3743835687637329,10.158437728881836,-3.146478176116944,-2.9640281200408936,-0.4288078844547272
4206329899.0,-0.5018558502197266,-0.1119437217712402,9.88429069519043,-2.9340076446533203,-2.547258377075196,-0.4589301943778991
4206338232.0,-0.7841425538063049,-0.073682464659214,9.520649909973145,-3.254237651824951,-2.789313554763794,-0.4284493327140808
4206346565.0,-0.5285042524337769,-0.4120900928974151,9.779279708862305,-3.592217206954956,-3.37488055229187,-0.4238899946212768
4206354898.0,-0.2107896208763122,-0.5989709496498108,10.207529067993164,-3.137667179107666,-3.1467602252960205,-0.3869286775588989
4206363231.0,-0.3877518475055694,-0.228868693113327,9.95003604888916,-2.7987136840820312,-2.339783430099488,-0.4336233735084533
4206371564.0,-0.8137388229370117,0.0563004054129123,9.499969482421877,-3.1581835746765137,-2.318830728530884,-0.4163849651813507
4206379897.0,-0.8741523027420044,-0.3686131238937378,9.708033561706545,-3.5034897327423096,-3.0206356048583984,-0.4862094223499298
4206388230.0,-0.495869517326355,-0.5027062296867371,10.13028049468994,-3.2693240642547607,-3.2102835178375244,-0.4378753900527954
4206396563.0,-0.3808977603912353,-0.209987461566925,10.039937019348145,-2.9975571632385254,-2.539651393890381,-0.4144383072853088
4206404896.0,-0.7816622853279114,-0.0985901281237602,9.570513725280762,-3.1031384468078613,-2.339219570159912,-0.3585480153560638
4206413229.0,-0.8496720790863037,-0.2999274432659149,9.536093711853027,-3.344399690628052,-3.228008508682251,-0.4436129331588745
4206421562.0,-0.3172067701816559,-0.4192938208580017,10.027071952819824,-3.2743191719055176,-3.447548151016236,-0.3485585153102875
4206429895.0,-0.1225441470742225,-0.2743227779865265,10.203458786010742,-2.9562153816223145,-2.6783008575439453,-0.3684094846248626
4206438228.0,-0.6635907292366028,-0.0561008304357528,9.66896629333496,-2.963028907775879,-2.0770325660705566,-0.3832401633262634
4206446561.0,-0.9980477690696716,-0.2062796056270599,9.451725006103516,-3.387712955474853,-2.661933898925781,-0.3061413466930389
4206454894.0,-0.6797353029251099,-0.5255849957466125,9.94836711883545,-3.44831657409668,-3.398240804672241,-0.2745845913887024
4206463227.0,-0.3548702001571655,-0.3544730544090271,10.223912239074709,-2.9330859184265137,-3.0208919048309326,-0.4548319578170776
4206471560.0,-0.5388599038124084,0.0869534164667129,9.795534133911133,-2.8156960010528564,-2.452178716659546,-0.4238899350166321
4206479893.0,-0.8194355964660645,0.0087897665798664,9.437423706054688,-3.35669469833374,-2.7020204067230225,-0.2596515119075775
4206488226.0,-0.5719149708747864,-0.4674580097198486,9.80580997467041,-3.55932879447937,-3.4518511295318604,-0.3068073093891144
4206496559.0,-0.1500383168458938,-0.5204929113388062,10.211193084716797,-3.1693263053894043,-3.111463785171509,-0.3504027426242828
4206504892.0,-0.3788439631462097,-0.0708741694688797,9.969878196716309,-2.924940586090088,-2.176877021789551,-0.3139280676841736
4206513225.0,-0.9067004919052124,0.0434845611453056,9.47515869140625,-3.233131170272827,-2.288657188415528,-0.2897225618362427
4206521558.0,-0.7840165495872498,-0.2492185235023498,9.689579010009766,-3.599184036254883,-3.351264238357544,-0.4818294048309326
4206529891.0,-0.3547717332839966,-0.4006118476390838,10.197479248046877,-3.305670738220215,-3.202855348587036,-0.4100326895713806
4206538224.0,-0.42230886220932,-0.166491612792015,9.991817474365234,-2.890643358230591,-2.437988758087158,-0.4046280682086944
4206546557.0,-0.7737196087837219,0.0008394874166697,9.530004501342772,-3.0811872482299805,-2.491880416870117,-0.3859296143054962
4206554890.0,-0.7244154810905457,-0.3012430965900421,9.606491088867188,-3.537197589874268,-3.3160958290100098,-0.2607016861438751
4206563223.0,-0.2594181299209595,-0.4519149363040924,10.115825653076172,-3.3668887615203857,-3.354875564575196,-0.3258130550384521
4206571556.0,-0.150086298584938,-0.185815542936325,10.113232612609863,-3.0673046112060547,-2.496389150619507,-0.4163850247859955
4206579889.0,-0.6696817874908447,-0.0688313916325569,9.66990852355957,-3.131903648376465,-2.091171741485596,-0.4185365736484527
4206588222.0,-0.9793674349784852,-0.2853195071220398,9.522479057312012,-3.4731364250183105,-2.7335002422332764,-0.4273735284805298
4206596555.0,-0.5858482718467712,-0.5612208843231201,9.994983673095703,-3.537428617477417,-3.4061813354492188,-0.3551413714885711
4206604888.0,-0.2631238996982574,-0.3212307393550873,10.214804649353027,-2.9703288078308105,-2.875607490539551,-0.3854429721832275
4206613221.0,-0.5600164532661438,0.0501985177397728,9.773359298706056,-3.003397226333618,-2.2984933853149414,-0.4355700612068176
4206621554.0,-0.7772424221038818,-0.0761322677135467,9.453764915466309,-3.4226768016815186,-2.6335275173187256,-0.3778355717658996
4206629887.0,-0.5137359499931335,-0.5326701998710632,9.879395484924316,-3.517244577407837,-3.3551833629608154,-0.4048330187797546
4206638220.0,-0.2122465819120407,-0.4927570521831512,10.186908721923828,-3.152113437652588,-2.862416505813598,-0.3911806046962738
4206646553.0,-0.5062456130981445,-0.1177087277173996,9.832823753356934,-2.915411949157715,-2.100290298461914,-0.3897461891174316
4206654886.0,-0.9272089004516602,-0.0695414468646049,9.496667861938477,-3.24294114112854,-2.51016902923584,-0.4540635049343109
4206663219.0,-0.74261873960495,-0.3552258908748626,9.81441879272461,-3.4576404094696045,-3.402415990829468,-0.3848794996738434
4206671552.0,-0.3158230483531952,-0.4903047084808349,10.217817306518556,-3.1950430870056152,-3.133107662200928,-0.4238643944263458
4206679885.0,-0.4726668894290924,-0.2068101912736892,9.965171813964844,-2.841361284255981,-2.3264641761779785,-0.3271962106227875
4206688218.0,-0.8379462957382202,-0.1236153542995452,9.455249786376951,-3.1625895500183105,-2.5258452892303467,-0.4314205646514892
4206696551.0,-0.6845324635505676,-0.3914196789264679,9.709566116333008,-3.5762081146240234,-3.358410358428955,-0.3468679785728454
4206704884.0,-0.206312209367752,-0.5489646196365356,10.20014190673828,-3.245631217956543,-3.2856149673461914,-0.4184341728687286
4206713217.0,-0.2772898375988006,-0.1343829482793808,10.006584167480469,-2.933265209197998,-2.304871320724488,-0.352656751871109
4206721550.0,-0.8135275840759277,-0.064617782831192,9.474114418029783,-3.168301105499268,-2.195190906524658,-0.3257105648517608
4206729883.0,-0.9416661858558656,-0.4064042866230011,9.599127769470217,-3.4298741817474365,-2.997736692428589,-0.300839215517044
4206738216.0,-0.5228055119514465,-0.6401128172874451,10.149662017822266,-3.252598285675049,-3.378978967666626,-0.3946129381656647
4206746549.0,-0.3459071516990661,-0.257055789232254,10.126302719116213,-2.7878530025482178,-2.5821454524993896,-0.3573698103427887
4206754882.0,-0.7091881036758423,0.0028040155302733,9.571944236755373,-2.918998003005981,-2.370213031768799,-0.4277320504188537
4206763215.0,-0.7868674993515015,-0.1150735467672348,9.431588172912598,-3.4368672370910645,-3.1106953620910645,-0.2431559413671493
4206771548.0,-0.3447972536087036,-0.5709969401359558,9.99248218536377,-3.4650936126708984,-3.47682523727417,-0.322995513677597
4206779881.0,-0.1454743146896362,-0.416510134935379,10.183034896850586,-2.9617738723754883,-2.7942569255828857,-0.2322442531585693
4206788214.0,-0.5918323993682861,-0.0710823237895965,9.692517280578612,-2.7443606853485107,-2.254155158996582,-0.4126197397708893
4206796547.0,-0.904403805732727,-0.0219626780599355,9.489447593688965,-3.309154272079468,-2.5995891094207764,-0.4142590761184692
4206804880.0,-0.6694077253341675,-0.425857275724411,9.919415473937988,-3.502798080444336,-3.137948989868164,-0.2428998053073883
4206813213.0,-0.3105301856994629,-0.3471017777919769,10.183810234069824,-3.076090335845948,-3.0324692726135254,-0.3855967223644256
4206821546.0,-0.5119718909263611,-0.132185012102127,9.796904563903809,-2.95757269859314,-2.3613502979278564,-0.3340864181518554
4206829879.0,-0.8303300738334656,-0.0835755839943885,9.51498031616211,-3.2648420333862305,-2.596822500228882,-0.4068053364753723
4206838212.0,-0.6367045640945435,-0.372419536113739,9.723637580871582,-3.251880884170532,-3.3932204246521,-0.4643348753452301
4206846545.0,-0.13591368496418,-0.4143633246421814,10.15417766571045,-3.1906116008758545,-3.222168445587158,-0.4034754335880279
4206854878.0,-0.2482602745294571,-0.1568629294633865,10.001291275024414,-2.9043211936950684,-2.2908859252929688,-0.4095972180366516
4206863211.0,-0.7557011842727661,-0.0212341081351041,9.603226661682127,-3.0509374141693115,-2.1556172370910645,-0.3540399372577667
4206871544.0,-0.9211913347244264,-0.3490780293941498,9.654693603515623,-3.453132152557373,-2.819922685623169,-0.3685120046138763
4206879877.0,-0.5306794047355652,-0.5187621712684631,10.05795669555664,-3.300471305847168,-3.2475008964538574,-0.4219177067279815
4206888210.0,-0.3413017690181732,-0.2061990052461624,10.06276512145996,-2.816054344177246,-2.8589327335357666,-0.4330854713916778
4206896543.0,-0.5841578841209412,0.0594662837684154,9.75579071044922,-3.030496835708618,-2.311018705368042,-0.4350577592849731
4206904876.0,-0.8104932904243469,-0.1183269545435905,9.531789779663086,-3.255569696426392,-2.765799760818481,-0.4248633682727813
4206913209.0,-0.4728615880012512,-0.4319618940353393,9.861541748046877,-3.3975746631622314,-3.394219398498535,-0.2374951988458633
