SampleTimeFine,Acc_X,Acc_Y,Acc_Z,Gyr_X,Gyr_Y,Gyr_Z
4199080189.0,0.0,0.0,0.0,0.0,0.0,0.0
4199088522.0,-0.4861493706703186,0.0464985892176628,9.870561599731444,3.014719009399414,-1.5282350778579712,1.190319299697876
4199096855.0,-0.4610319435596466,0.2738055884838104,9.864645957946776,3.166175365447998,-0.8104983568191528,1.2041252851486206
4199105188.0,-0.8065620064735413,0.4293210506439209,10.06814193725586,3.237690687179565,-0.6611418724060059,1.145545482635498
4199113521.0,-0.8216677308082581,0.2378968596458435,10.149516105651855,3.0041403770446777,-1.3435306549072266,1.197696089744568
4199121854.0,-0.39273801445961,0.1199126094579696,9.877447128295898,2.9810614585876465,-1.7959290742874146,1.191189885139465
4199130187.0,-0.2825953066349029,0.3156996369361877,9.77302360534668,3.0846970081329346,-0.9209470748901368,1.14239501953125
4199138520.0,-0.7732172012329102,0.4515034258365631,9.97294807434082,3.1340553760528564,-0.1406861990690231,1.145007610321045
4199146853.0,-1.087336182594299,0.2701797783374786,10.20156955718994,2.9776804447174072,-0.8893390893936157,1.2299699783325195
4199155186.0,-0.7743037939071655,0.0340661481022834,10.059925079345703,3.1212220191955566,-1.80988872051239,1.231711506843567
4199163519.0,-0.3888741135597229,0.2507935464382171,9.83358383178711,3.088026762008667,-1.318326473236084,1.1963640451431274
4199171852.0,-0.5461666584014893,0.5861563086509705,9.90539264678955,3.2913527488708496,-0.5696222186088562,1.0659875869750977
4199180185.0,-0.8671003580093384,0.5229508280754089,10.10879135131836,3.041178226470948,-0.7878810167312622,1.1687008142471311
4199188518.0,-0.7108890414237976,0.1294890493154525,10.002276420593262,2.8786301612854004,-1.5486494302749634,1.1794588565826416
4199196851.0,-0.3851605355739593,0.057898961007595,9.78951358795166,2.952757835388184,-1.3864601850509644,1.059865951538086
4199205184.0,-0.4763786792755127,0.3849051892757416,9.854246139526367,3.1115405559539795,-0.7317346334457397,1.0494152307510376
4199213517.0,-0.9069022536277772,0.5870667695999146,10.12437915802002,3.1743597984313965,-0.5502963066101074,1.0229685306549072
4199221850.0,-0.9527925252914428,0.3626847267150879,10.16451644897461,2.809254169464112,-1.2016149759292605,1.129933476448059
4199230183.0,-0.5869325995445251,0.0996171236038208,9.934142112731934,2.933701276779175,-1.4648398160934448,1.191625475883484
4199238516.0,-0.4642800390720367,0.2386326044797897,9.817734718322754,3.1511147022247314,-1.120840549468994,1.1374257802963257
4199246849.0,-0.7476162910461426,0.4299637377262115,9.96468734741211,3.0763204097747803,-0.6643947958946228,1.12853741645813
4199255182.0,-0.8778665065765381,0.3820698857307434,10.157737731933594,2.92171311378479,-1.1353893280029297,1.1384246349334717
4199263515.0,-0.5431959629058838,0.1408110558986663,9.993148803710938,2.7963063716888428,-1.6041299104690552,1.2371163368225098
4199271848.0,-0.3204367160797119,0.2231584936380386,9.800591468811035,2.8990957736968994,-1.190716028213501,1.1560728549957275
4199280181.0,-0.6326718330383301,0.4142642319202423,9.88675022125244,2.9900779724121094,-0.5515897274017334,1.2177777290344238
4199288514.0,-1.0415135622024536,0.2881131470203399,10.112885475158691,3.018099546432495,-0.8549648523330688,1.116217017173767
4199296847.0,-0.9163954854011536,0.0253986362367868,10.11181640625,2.8862760066986084,-1.4544274806976318,1.2806476354599
4199305180.0,-0.4961012005805969,0.0747285932302475,9.948331832885742,2.888965845108032,-1.4989964962005615,1.2382307052612305
4199313513.0,-0.4878092110157013,0.4485355615615845,9.89653491973877,3.1195576190948486,-1.0037323236465454,1.2309433221817017
4199321846.0,-0.7674685120582581,0.5250266790390015,10.049434661865234,3.0148723125457764,-0.7474873661994934,1.2560197114944458
4199330179.0,-0.8072277307510376,0.1592112481594085,10.0737943649292,2.884854555130005,-1.3476803302764893,1.2505638599395752
4199338512.0,-0.4891396462917328,-0.1003813371062278,9.851171493530272,2.935596227645874,-1.4881999492645264,1.2256667613983154
4199346845.0,-0.4362667202949524,0.1679971516132354,9.785348892211914,3.087693691253662,-1.0123387575149536,1.1776914596557615
4199355178.0,-0.7808727622032166,0.5012921094894409,9.999800682067873,3.128702163696289,-0.6934926509857178,1.135735273361206
4199363511.0,-1.0070812702178955,0.4103552401065826,10.2334566116333,2.9288084506988525,-1.0532444715499878,1.2268706560134888
4199371844.0,-0.7278235554695129,0.0865662470459938,10.022368431091309,2.894793033599853,-1.6032335758209229,1.1133739948272705
4199380177.0,-0.4767503440380096,0.0694794654846191,9.8264799118042,2.9054739475250244,-1.1425358057022097,1.2296113967895508
4199388510.0,-0.6102925539016724,0.3012534081935882,9.869068145751951,3.24332594871521,-0.8416710495948792,1.2111692428588867
4199396843.0,-0.7976512908935547,0.363234668970108,10.09615421295166,3.1083643436431885,-1.0539873838424685,1.1529992818832395
4199405176.0,-0.6582474112510681,0.1183459088206291,10.055856704711914,2.8864426612854004,-1.5545920133590698,1.1381685733795166
4199413509.0,-0.3631289303302765,0.1184988915920257,9.832389831542969,2.911903142929077,-1.4537745714187622,1.1831215620040894
4199421842.0,-0.500781774520874,0.3276238143444061,9.84009075164795,3.1467342376708984,-0.5608876943588257,1.0407830476760864
4199430175.0,-0.905706226825714,0.3723267912864685,10.018592834472656,2.962376117706299,-0.5091853737831116,1.1486831903457642
4199438508.0,-0.9663965106010436,0.1083822920918464,10.10603141784668,2.932330369949341,-1.2363734245300293,1.0172821283340454
4199446841.0,-0.6149697303771973,-0.0281773041933774,9.959665298461914,3.0597739219665527,-1.6805371046066284,1.1200079917907717
4199455174.0,-0.4293367564678192,0.3075191676616668,9.893760681152344,3.2191717624664307,-1.1719409227371216,1.1549460887908936
4199463507.0,-0.6626477837562561,0.6063104271888733,9.972541809082031,3.2117693424224854,-0.6653682589530945,1.113579034805298
4199471840.0,-0.8466014266014099,0.4160659909248352,10.133759498596191,2.910264015197754,-1.1621819734573364,1.139065146446228
4199480173.0,-0.5671133995056152,0.0322648175060749,9.976134300231934,2.8907203674316406,-1.6936261653900146,1.2075575590133667
4199488506.0,-0.344970166683197,0.0972557961940765,9.811354637145996,3.039026498794556,-1.2101573944091797,1.2286123037338257
4199496839.0,-0.5724054574966431,0.4409889876842499,9.887322425842283,3.159567356109619,-0.6295595169067383,1.0018751621246338
4199505172.0,-0.9188817143440248,0.5399710536003113,10.168095588684082,3.041280746459961,-0.5642944574356079,1.1186761856079102
4199513505.0,-0.8655010461807251,0.2646470963954925,10.163870811462402,2.7236640453338623,-1.3774696588516235,1.1511551141738892
4199521838.0,-0.5910912752151489,0.1673034280538559,10.003686904907228,2.801595449447632,-1.4794269800186155,1.2016791105270386
4199530171.0,-0.5782594680786133,0.2672984302043915,9.817054748535156,2.953308343887329,-0.9844318628311156,1.15093731880188
4199538504.0,-0.7551752328872681,0.4662589132785797,10.01613426208496,3.096607685089112,-0.843643307685852,1.1903191804885864
4199546837.0,-0.7782159447669983,0.2435799539089203,10.053237915039062,2.9094700813293457,-1.346450686454773,1.1341471672058103
4199555170.0,-0.4706653356552124,0.1136621907353401,9.923065185546877,2.9195361137390137,-1.511585712432861,1.1141424179077148
4199563503.0,-0.4223268628120422,0.3184403777122497,9.79838752746582,3.026859760284424,-1.0470715761184692,1.1111454963684082
4199571836.0,-0.7748191952705383,0.4765225946903229,9.970115661621094,2.998274326324463,-0.5705698728561401,1.1905241012573242
4199580169.0,-0.971634805202484,0.2689107358455658,10.120427131652832,2.8188979625701904,-1.033905863761902,1.2080186605453491
4199588502.0,-0.7457945942878723,-0.0019425230566412,10.00588607788086,3.023375988006592,-1.606307029724121,1.2172139883041382
4199596835.0,-0.4845840632915497,0.1981267035007476,9.875996589660645,3.174833059310913,-1.350933074951172,1.1827884912490845
4199605168.0,-0.5553843975067139,0.538840115070343,9.936238288879396,3.02675724029541,-0.8489709496498108,1.213781714439392
4199613501.0,-0.7955923676490784,0.5298076868057251,10.10447883605957,3.0581345558166504,-1.024172306060791,1.1206996440887451
4199621834.0,-0.6920866370201111,0.12164868414402,10.005897521972656,2.86021375656128,-1.3729101419448853,1.2048680782318115
4199630167.0,-0.427463173866272,0.021833611652255,9.83840560913086,2.874788284301758,-1.2744747400283811,1.2146013975143433
4199638500.0,-0.492015540599823,0.3550831377506256,9.880044937133787,3.0774736404418945,-0.6879599690437317,1.1793819665908811
4199646833.0,-0.8353063464164734,0.4852769672870636,10.09815502166748,3.038309335708618,-0.5180607438087463,1.1359401941299438
4199655166.0,-0.9174278378486632,0.2734639346599579,10.172891616821287,2.8108038902282715,-1.1750915050506592,1.2307127714157104
4199663499.0,-0.6072510480880737,0.0478981062769889,9.9517822265625,2.8534388542175293,-1.4723576307296753,1.2318782806396484
4199671832.0,-0.5311645865440369,0.1892336905002594,9.847705841064451,2.899070501327514,-0.9927949905395508,1.2016150951385498
4199680165.0,-0.7141597867012024,0.3700645267963409,9.94196891784668,3.053908348083496,-0.786882221698761,1.1224926710128784
4199688498.0,-0.8076387643814087,0.2422029227018356,10.095548629760742,2.9655139446258545,-1.0669738054275513,1.1535115242004397
4199696831.0,-0.4934725761413574,0.0434777550399303,9.91236686706543,2.922430515289306,-1.5562056303024292,1.152486801147461
4199705164.0,-0.3788789510726928,0.2041920870542526,9.822101593017578,3.00091290473938,-1.138155817985535,1.0736464262008667
4199713497.0,-0.653093159198761,0.361295074224472,9.887514114379885,3.103651285171509,-0.4350706338882446,1.1261042356491089
4199721830.0,-0.9647184014320374,0.2535359561443329,10.123295783996582,3.012566566467285,-0.6857314705848694,1.0955721139907837
4199730163.0,-0.8276798725128174,0.0053533636964857,10.03152561187744,2.903770923614502,-1.322796106338501,1.1349027156829834
4199738496.0,-0.530994176864624,0.1029094755649566,9.9188814163208,3.1029212474823,-1.3734097480773926,1.1049853563308716
4199746829.0,-0.5460543632507324,0.464137464761734,9.94329071044922,3.163691282272339,-0.8449496626853943,1.1442135572433472
4199755162.0,-0.750029981136322,0.4641627371311188,10.080875396728516,3.155878782272339,-0.8448984026908875,1.1520003080368042
4199763495.0,-0.6934696435928345,0.148086130619049,10.059260368347168,2.9283478260040283,-1.2488093376159668,1.2135770320892334
4199771828.0,-0.4757006168365478,0.0131274741142988,9.883795738220217,3.063462734222412,-1.3661993741989136,1.16375732421875
4199780161.0,-0.4880544543266296,0.2533350586891174,9.860067367553713,3.1591057777404785,-0.8223065137863159,1.033354878425598
4199788494.0,-0.7742477655410767,0.4914126098155975,10.05459976196289,3.166175842285156,-0.5420100688934326,1.0848909616470337
4199796827.0,-0.9338346123695374,0.3434640765190124,10.178702354431152,3.0281407833099365,-0.993179202079773,1.16073477268219
4199805160.0,-0.7122411727905273,0.1247970834374427,10.029824256896973,2.8664891719818115,-1.293070673942566,1.1325334310531616
4199813493.0,-0.5766144394874573,0.2236586809158325,9.863444328308104,3.085055351257324,-1.0937408208847046,1.1206741333007812
4199821826.0,-0.7365565896034241,0.4046311378479004,9.949502944946287,3.1631276607513428,-0.7071962952613831,1.1095062494277954
4199830159.0,-0.8488935232162476,0.3489841818809509,10.129425048828123,3.020225763320923,-1.111337661743164,1.075157642364502
4199838492.0,-0.6130297183990479,0.1669440418481826,9.997825622558594,2.849891424179077,-1.529387593269348,1.217623949050903
4199846825.0,-0.3859741389751434,0.2264263033866882,9.84328556060791,2.949735403060913,-1.239895582199097,1.1272568702697754
4199855158.0,-0.5703211426734924,0.441185861825943,9.862027168273926,3.0497329235076904,-0.4559461772441864,1.05797016620636
4199863491.0,-0.928969383239746,0.3642409145832062,10.111356735229492,2.9784746170043945,-0.6303534507751465,1.116063356399536
4199871824.0,-0.8774808049201965,0.0831815004348754,10.07012939453125,2.915437936782837,-1.2997559309005735,1.1909595727920532
4199880157.0,-0.5959389805793762,0.0997614413499832,9.949795722961426,3.125244140625,-1.3969876766204834,1.1074315309524536
4199888490.0,-0.5544254779815674,0.4561940133571625,9.916605949401855,3.193941593170166,-0.96789813041687,1.172824740409851
4199896823.0,-0.7909865379333496,0.5554649829864502,10.047555923461914,3.0280892848968506,-0.7603969573974609,1.164448618888855
4199905156.0,-0.7823543548583984,0.2667835056781769,10.078633308410645,2.892154693603516,-1.3165078163146973,1.223899483680725
4199913489.0,-0.5056551694869995,0.0059515419416129,9.865970611572266,2.811342000961304,-1.593628168106079,1.2830684185028076
4199921822.0,-0.4384148120880127,0.2310428470373153,9.807795524597168,3.104522466659546,-1.0421792268753052,1.1609652042388916
4199930155.0,-0.7272123098373413,0.4916308224201202,10.011573791503906,3.069020986557007,-0.5508725047111511,1.1038711071014404
4199938488.0,-0.9123042225837708,0.4463467299938202,10.21030044555664,3.003294944763184,-0.8779151439666748,1.2126035690307615
4199946821.0,-0.7200117707252502,0.1628222465515136,10.041279792785645,2.8318588733673096,-1.4299277067184448,1.265215277671814
4199955154.0,-0.5081379413604736,0.1704067587852478,9.864295959472656,2.966883897781372,-1.2862188816070557,1.1645126342773438
4199963487.0,-0.6587278842926025,0.374582290649414,9.928380966186523,3.036875009536743,-0.7896228432655334,1.147159218788147
4199971820.0,-0.8322762846946716,0.3393236398696899,10.062780380249023,3.028038263320923,-1.0460469722747805,1.2562758922576904
4199980153.0,-0.6342663168907166,0.1451860517263412,9.998541831970217,2.9138882160186768,-1.4439257383346558,1.188590168952942
4199988486.0,-0.3493578135967254,0.1433923244476318,9.856196403503418,3.0768842697143555,-1.2747052907943726,1.1648330688476562
4199996819.0,-0.5209447145462036,0.3835627734661102,9.85630702972412,3.086284875869751,-0.6721303462982178,1.0585083961486816
4200005152.0,-0.8853965401649475,0.3458927571773529,10.065352439880373,3.0667409896850586,-0.4552545845508575,1.096366047859192
4200013485.0,-0.9125385880470276,0.0521093979477882,10.063733100891112,3.024887800216675,-1.1512959003448486,1.2030495405197144
4200021818.0,-0.6199787259101868,0.0124764926731586,9.930268287658691,3.082263231277466,-1.5002385377883911,1.1322261095046997
4200030151.0,-0.5107966065406799,0.3507584929466247,9.91310977935791,3.181570053100586,-1.05908465385437,1.1566364765167236
4200038484.0,-0.7075230479240417,0.5615069270133972,10.013184547424316,3.254711627960205,-0.605751097202301,1.0793968439102173
4200046817.0,-0.7917725443840027,0.3091135621070862,10.078361511230469,2.975592613220215,-1.1372976303100586,1.1724786758422852
4200055150.0,-0.5345680117607117,-0.0260272547602653,9.864869117736816,2.8024792671203613,-1.449804186820984,1.1848376989364624
4200063483.0,-0.4623158276081085,0.1183662712574005,9.77920627593994,3.046057939529419,-1.1283584833145142,1.0807799100875854
4200071816.0,-0.654401957988739,0.448629766702652,9.943233489990234,3.275497436523437,-0.6717973947525024,1.0663206577301023
4200080149.0,-0.8660687804222107,0.4543617367744446,10.179203987121582,3.1052911281585693,-0.6165987253189087,1.1580454111099243
4200088482.0,-0.8160665035247803,0.130777046084404,10.066011428833008,2.861750364303589,-1.1642054319381714,1.2252057790756226
4200096815.0,-0.6070671677589417,0.136846125125885,9.864633560180664,2.934161901473999,-1.2701714038848877,1.1784342527389526
4200105148.0,-0.6353248953819275,0.3746172785758972,9.915968894958496,3.1458888053894043,-0.9460488557815552,1.0862483978271484
4200113481.0,-0.795328676700592,0.3687417209148407,10.02031707763672,3.076666831970215,-0.925186276435852,1.2155876159667969
4200121814.0,-0.6848793029785156,0.1723261177539825,10.084300994873049,3.0035510063171387,-1.2339786291122437,1.2095043659210205
4200130147.0,-0.4443071484565735,0.1248816549777984,9.894306182861328,3.099271535873413,-1.3452725410461426,1.1594796180725098
4200138480.0,-0.4724487066268921,0.3660613894462585,9.818556785583496,3.1294703483581543,-0.8878278732299805,1.111248016357422
4200146813.0,-0.7964749932289124,0.4200977683067322,9.989195823669434,3.004626750946045,-0.5372714400291443,1.127384901046753
4200155146.0,-0.9968441128730774,0.1774465441703796,10.162931442260742,2.9522712230682373,-1.0994527339935305,1.1600943803787231
4200163479.0,-0.751580536365509,-0.0151282921433448,10.020668983459473,3.0326998233795166,-1.373294472694397,1.1217753887176514
4200171812.0,-0.5205618739128113,0.2973966896533966,9.9056396484375,3.1408944129943848,-1.238025784492493,1.1766412258148191
4200180145.0,-0.6690020561218262,0.5839115977287292,9.99121379852295,3.0754754543304443,-0.6766384243965149,1.074594020843506
4200188478.0,-0.834422767162323,0.4407294392585754,10.115890502929688,2.9132864475250244,-1.0138754844665527,1.1959543228149414
4200196811.0,-0.6448113918304443,0.0223955642431974,9.977012634277344,2.9111862182617188,-1.520755648612976,1.269697666168213
4200205144.0,-0.4183893203735351,0.0800925269722938,9.838265419006348,3.010057210922241,-1.3688377141952517,1.212091326713562
4200213477.0,-0.5442084074020386,0.4376805424690246,9.82962417602539,3.266532182693481,-0.6743075251579285,1.0820989608764648
4200221810.0,-0.8532167673110962,0.5447869896888733,10.113040924072266,3.2013955116271973,-0.720285177230835,1.1004644632339478
4200230143.0,-0.8770832419395447,0.2523418962955475,10.157010078430176,2.9822914600372314,-1.2226828336715698,1.2204158306121826
4200238476.0,-0.6171022653579712,0.0751570388674736,9.911398887634276,2.9697399139404297,-1.3697854280471802,1.2316604852676392
4200246809.0,-0.5767123103141785,0.299365371465683,9.841938018798828,3.100961446762085,-1.0053715705871582,1.0992093086242676
4200255142.0,-0.7875504493713379,0.434560477733612,9.970664024353027,3.0806241035461426,-0.6952344179153442,1.1015658378601074
4200263475.0,-0.7928353548049927,0.3164111375808716,10.131673812866213,2.961620330810547,-1.1632320880889893,1.031562089920044
4200271808.0,-0.5039036273956299,0.121035523712635,9.984068870544434,2.9680752754211426,-1.616450548171997,1.2021528482437134
4200280141.0,-0.3605421781539917,0.2047864198684692,9.785396575927734,3.003525495529175,-1.0939970016479492,1.201666235923767
4200288474.0,-0.6066286563873291,0.4295605719089508,9.896397590637209,3.121222734451294,-0.4846597611904144,1.1636548042297363
4200296807.0,-0.9468556642532348,0.3338299095630646,10.116936683654783,3.073784828186035,-0.7380101084709167,1.16780424118042
4200305140.0,-0.8300836682319641,0.018562963232398,10.08858585357666,3.025771379470825,-1.3997923135757446,1.056779384613037
4200313473.0,-0.5470533967018127,0.0555863492190837,9.925763130187988,3.0776658058166504,-1.5219210386276243,1.1563419103622437
4200321806.0,-0.5286902785301208,0.4671827852725982,9.884798049926758,3.126166582107544,-0.8911833763122559,1.176461935043335
4200330139.0,-0.7423785924911499,0.6106937527656555,10.08250617980957,3.063705921173096,-0.6886643171310425,1.1753731966018677
4200338472.0,-0.8119807839393616,0.2671321630477905,10.089667320251465,2.891911268234253,-1.236066222190857,1.157801866531372
4200346805.0,-0.5407988429069519,-0.0704853981733322,9.921963691711426,2.907318115234375,-1.4698344469070437,1.0901930332183838
4200355138.0,-0.5034807920455933,0.2227219492197036,9.942402839660645,3.04391884803772,-1.1718897819519043,1.1488242149353027
4200363471.0,-0.6645732522010803,0.3967654705047607,9.757793426513672,3.1707351207733154,-0.6320953965187073,1.1295111179351809
4200371804.0,-0.86705082654953,0.546901524066925,10.186064720153809,3.008046388626098,-0.6807495951652527,1.2027804851531982
4200380137.0,-0.7435184121131897,0.1100867241621017,10.094672203063965,2.902605056762696,-1.226371169090271,1.212552189826965
4200388470.0,-0.614136278629303,-0.0032758160959929,9.889513969421388,2.9092650413513184,-1.316840648651123,1.246311902999878
4200396803.0,-0.6455380916595459,0.3061671257019043,9.866943359375,3.066895008087158,-0.949353277683258,1.1483887434005735
4200405136.0,-0.7869128584861755,0.4789522588253021,10.01767635345459,3.127601146697998,-0.9511718153953552,1.0885027647018433
4200413469.0,-0.7674286961555481,0.2721264660358429,10.117266654968262,2.887531518936157,-1.3838858604431152,1.2525489330291748
4200421802.0,-0.4944835007190704,0.0523034259676933,9.929923057556152,2.921854257583618,-1.4779415130615234,1.233748197555542
4200430135.0,-0.4860999584197998,0.2307081222534179,9.841431617736816,3.0527305603027344,-0.9657976031303406,1.130868673324585
4200438468.0,-0.7874174118041992,0.4499870538711548,9.870058059692385,3.0130536556243896,-0.5347099900245667,1.1071242094039917
4200446801.0,-0.983212947845459,0.3425947725772857,10.131634712219238,2.995892286300659,-0.9034781455993652,1.15535569190979
4200455134.0,-0.8093163967132568,0.025676829740405,10.143277168273926,2.8778107166290283,-1.5465748310089111,1.1918048858642578
4200463467.0,-0.5290056467056274,0.0684917047619819,9.907310485839844,3.127703189849853,-1.2565191984176636,1.128486394882202
4200471800.0,-0.5590800046920776,0.4850919544696808,9.909326553344728,3.264252185821533,-0.8265328407287598,1.1604784727096558
4200480133.0,-0.7695815563201904,0.6220430731773376,9.996953010559082,3.205032587051392,-0.8484075665473938,1.1082510948181152
4200488466.0,-0.7511045932769775,0.2550172805786133,10.093626976013184,2.926067590713501,-1.2579021453857422,1.1351715326309204
4200496799.0,-0.517685055732727,-0.0536288805305957,9.922632217407228,2.84407639503479,-1.479311466217041,1.1545103788375854
4200505132.0,-0.466477632522583,0.1899992376565933,9.815401077270508,3.116509437561035,-0.9379547834396362,1.1046394109725952
4200513465.0,-0.7233924269676208,0.5596250295639038,9.920564651489258,3.179443836212158,-0.6044318675994873,1.15653395652771
4200521798.0,-0.9420099258422852,0.5273388028144836,10.13025188446045,2.994303941726685,-0.8666191697120667,1.1966713666915894
4200530131.0,-0.7893478274345398,0.163533478975296,10.163018226623535,2.895817518234253,-1.4103583097457886,1.1392955780029297
4200538464.0,-0.5346118807792664,-0.0157344434410333,9.891172409057615,2.954627752304077,-1.19550621509552,1.0659875869750977
4200546797.0,-0.5694748163223267,0.317157119512558,9.866477012634276,3.0698659420013428,-0.8598057627677917,1.1802526712417605
4200555130.0,-0.7353452444076538,0.5084113478660583,9.951184272766112,3.18100643157959,-0.8520703911781311,1.147492289543152
4200563463.0,-0.749226450920105,0.3171822428703308,10.123446464538574,2.937568664550781,-1.2078009843826294,1.1824045181274414
4200571796.0,-0.5301902294158936,0.0550080202519893,9.964787483215332,2.862672805786133,-1.3198118209838867,1.3099122047424316
4200580129.0,-0.4502598643302917,0.2072263062000274,9.8351411819458,2.974555015563965,-0.9605209827423096,1.2229514122009275
4200588462.0,-0.7685608267784119,0.4301160871982574,9.897924423217772,2.95752215385437,-0.6735135316848755,1.169187307357788
4200596795.0,-0.8798962235450745,0.4329412579536438,10.107399940490724,3.076013803482056,-0.9484568238258362,1.2361431121826172
4200605128.0,-0.7262763381004333,0.0291824024170637,10.04521942138672,2.9427173137664795,-1.280903935432434,1.146980047225952
4200613461.0,-0.5432550311088562,0.0651906058192253,9.982810020446776,3.1490395069122314,-1.2177647352218628,1.0818684101104736
4200621794.0,-0.6167616844177246,0.4453456103801727,9.895211219787598,3.2396631240844727,-0.8366761803627014,1.2019991874694824
4200630127.0,-0.789836585521698,0.653080403804779,10.024206161499023,3.077857732772827,-0.8505077958106995,1.1560215950012207
4200638460.0,-0.7566124796867371,0.3363058269023895,10.12704086303711,2.824404716491699,-1.303700566291809,1.1670613288879397
4200646793.0,-0.5888526439666748,-0.0651679784059524,9.988056182861328,2.8541176319122314,-1.346322774887085,1.1902167797088623
4200655126.0,-0.5074055790901184,0.0874112471938133,9.84664535522461,3.1135900020599365,-1.1274235248565674,1.206456184387207
4200663459.0,-0.7170701622962952,0.546096682548523,9.89980411529541,3.2214512825012207,-0.7487682104110718,1.1295878887176514
4200671792.0,-0.9241012334823608,0.5487719178199768,10.08743381500244,3.031291246414185,-0.8258157968521118,1.1696996688842771
4200680125.0,-0.8457286357879639,0.1893453896045684,10.153111457824709,2.7975995540618896,-1.3141127824783323,1.170634627342224
4200688458.0,-0.6047976613044739,-0.0136424452066421,9.96656322479248,2.9578936100006104,-1.2605534791946411,1.2212483882904053
4200696791.0,-0.5880468487739563,0.2812912166118622,9.838540077209473,3.121722459793091,-0.926723062992096,1.107342004776001
4200705124.0,-0.7528312802314758,0.5181676149368286,9.946248054504396,3.0979650020599365,-0.8797337412834167,1.135888934135437
4200713457.0,-0.7593371868133545,0.350562185049057,10.066713333129885,2.895305156707764,-1.218712568283081,1.1721073389053345
4200721790.0,-0.5854970812797546,0.0320694930851459,9.999359130859377,2.9028871059417725,-1.3654820919036863,1.1224415302276611
4200730123.0,-0.506416916847229,0.1400716453790664,9.886567115783691,3.05188512802124,-1.0458678007125854,1.2009748220443726
4200738456.0,-0.7170583009719849,0.4586264491081238,9.867030143737791,3.1458892822265625,-0.8206417560577393,1.0714179277420044
4200746789.0,-0.8865341544151306,0.4103215038776397,10.030946731567385,3.035620212554932,-0.8258926868438721,1.143240213394165
4200755122.0,-0.8043360114097595,0.1615595668554306,10.160429000854492,2.912313222885132,-1.380748271942139,1.185862421989441
4200763455.0,-0.5904744267463684,-0.1314133703708648,9.908817291259766,2.985083103179932,-1.4827953577041626,1.151923418045044
4200771788.0,-0.5561304092407227,0.4074265658855438,9.950080871582031,3.147374391555786,-0.8813729882240295,1.1299461126327517
4200780121.0,-0.6892040967941284,0.5808998346328735,9.91289520263672,3.053806066513061,-0.8250473141670227,1.092754364013672
4200788454.0,-0.7710556387901306,0.4092051386833191,10.089293479919434,2.8844189643859863,-1.2888444662094116,1.1365293264389038
4200796787.0,-0.6035650968551636,-0.0219976659864187,10.034416198730469,2.857421875,-1.4019056558609009,1.1726197004318235
4200805120.0,-0.4959807097911834,0.0084700398147106,9.895824432373049,2.914823293685913,-1.1413065195083618,1.2668033838272097
4200813453.0,-0.6611940860748291,0.4896953105926513,9.849496841430664,3.197681188583374,-0.7939004898071289,1.128486394882202
4200821786.0,-0.8441974520683289,0.5637151598930359,10.045987129211426,2.992997884750366,-1.0199204683303833,1.080869436264038
4200830119.0,-0.7691822052001953,0.2774545848369598,10.12824249267578,2.811418056488037,-1.2790082693099976,1.155765414237976
4200838452.0,-0.5859847068786621,-6.41695223748e-05,9.97957706451416,2.862262725830078,-1.3966033458709717,1.1723891496658323
4200846785.0,-0.6081753969192505,0.1976513564586639,9.891626358032228,2.929295301437378,-0.9849826693534852,1.1363756656646729
4200855118.0,-0.7428843975067139,0.4870287775993347,9.899103164672852,3.084005355834961,-0.8941289782524109,1.0990813970565796
4200863451.0,-0.7553345561027527,0.4050256311893463,10.024632453918455,2.9415645599365234,-1.188667058944702,1.1871943473815918
4200871784.0,-0.5952544808387756,0.0768502205610275,10.00079345703125,2.865259885787964,-1.4359725713729858,1.1880395412445068
4200880117.0,-0.4947515428066253,0.0822618007659912,9.864235877990724,2.9600067138671875,-1.0532445907592771,1.1875016689300537
4200888450.0,-0.6759714484214783,0.4307608008384704,9.898431777954102,3.113973379135132,-0.920024871826172,1.048825979232788
4200896783.0,-0.8444384336471558,0.4789986908435821,9.944369316101074,3.10462498664856,-0.916900098323822,1.0914226770401
4200905116.0,-0.8019802570343018,0.1618033051490783,10.084609985351562,2.887159585952759,-1.3817981481552124,1.1641924381256104
4200913449.0,-0.6197015643119812,-0.0657107979059219,10.009476661682127,2.9554219245910645,-1.4548503160476685,1.1673431396484375
4200921782.0,-0.5734148025512695,0.2349016964435577,9.93000602722168,3.156301021575928,-0.9505698084831238,1.2361044883728027
4200930115.0,-0.7461890578269958,0.6064175963401794,9.937349319458008,3.1578257083892822,-0.8332183361053467,1.0955208539962769
4200938448.0,-0.8060353398323059,0.4934624135494232,10.047019004821776,2.933931589126587,-1.0433062314987185,1.2168298959732056
4200946781.0,-0.6502988934516907,0.0754564702510833,10.060193061828612,2.828272819519043,-1.5142239332199097,1.2455434799194336
4200955114.0,-0.5225040316581726,-0.0555039905011653,9.885794639587402,2.9105966091156006,-1.1612085103988647,1.1816102266311646
4200963447.0,-0.6559508442878723,0.3297566175460815,9.886778831481934,3.170581340789795,-0.8751488327980042,1.2360150814056396
4200971780.0,-0.8012702465057373,0.5984489321708679,9.9925537109375,3.176575183868408,-0.9399528503417968,1.1607604026794434
4200980113.0,-0.8039498329162598,0.3715526461601257,10.128451347351074,2.895843029022217,-1.275857925415039,1.2241811752319336
4200988446.0,-0.6499221920967102,0.0286252219229936,10.076519966125488,2.8531699180603027,-1.3625109195709229,1.1627838611602783
4200996779.0,-0.5997005701065063,0.0686720833182334,9.91740608215332,3.127959489822388,-1.174989104270935,1.1774609088897705
4201005112.0,-0.7628268003463745,0.4552514851093292,9.896260261535645,3.191213846206665,-1.0735182762145996,1.1195086240768433
4201013445.0,-0.8094703555107117,0.4853220880031585,9.996222496032717,2.987452268600464,-1.1904983520507812,1.0969167947769165
4201021778.0,-0.6620709300041199,0.1789302825927734,10.066505432128906,2.842693567276001,-1.4031095504760742,1.2192633152008057
4201030111.0,-0.513702929019928,0.0066405241377651,9.97304916381836,2.893102169036865,-1.313536286354065,1.1705961227416992
4201038444.0,-0.6093469858169556,0.2938114404678345,9.89298152923584,3.113999605178833,-0.9497118592262268,1.0856850147247314
4201046777.0,-0.7707052230834961,0.5343618988990784,9.925738334655762,3.127780199050904,-0.8903124332427979,1.0775141716003418
4201055110.0,-0.7704247832298279,0.3187204003334045,10.076160430908203,2.8707666397094727,-1.165511965751648,1.188270092010498
4201063443.0,-0.6855274438858032,-0.0001483797095715,10.076337814331056,2.869729518890381,-1.3172377347946167,1.206904411315918
4201071776.0,-0.5971893668174744,0.0696997195482254,9.929526329040527,3.083441972732544,-1.2659964561462402,1.2152931690216064
4201080109.0,-0.7183600664138794,0.5120115876197815,9.909663200378418,3.21650767326355,-1.1882315874099731,1.1023086309432983
4201088442.0,-0.7847332954406738,0.6105659604072571,10.02358341217041,3.027756452560425,-1.1477612257003784,1.0779495239257812
4201096775.0,-0.6859700679779053,0.2645376324653625,10.090937614440918,2.841028213500977,-1.3562352657318115,1.238781213760376
4201105108.0,-0.5490977168083191,-0.0166425891220569,9.99626636505127,2.939592361450196,-1.3141255378723145,1.186400294303894
4201113441.0,-0.5695892572402954,0.1707579940557479,9.867989540100098,3.04981017112732,-1.0394384860992432,1.2820180654525757
4201121774.0,-0.6705785393714905,0.5540326237678528,9.904202461242676,3.068278312683105,-1.068817973136902,1.0970065593719482
4201130107.0,-0.7688171863555908,0.5273611545562744,10.013249397277832,2.952847719192505,-1.0842761993408203,1.160978078842163
4201138440.0,-0.7219263315200806,0.1819226294755935,10.132464408874512,2.8236618041992188,-1.1815718412399292,1.2303030490875244
4201146773.0,-0.6594359278678894,-0.0069227274507284,9.995939254760742,2.9264516830444336,-1.1538571119308472,1.2266401052474976
4201155106.0,-0.7005002498626709,0.3024870455265045,9.888392448425291,3.021045207977295,-1.0416924953460691,1.1448795795440674
4201163439.0,-0.7260505557060242,0.5196863412857056,9.933355331420898,2.983853816986084,-1.1941484212875366,1.1343777179718018
4201171772.0,-0.6633664965629578,0.3467066287994385,10.025489807128906,2.7951407432556152,-1.2999993562698364,1.142510175704956
4201180105.0,-0.6156484484672546,0.0584110245108604,10.052912712097168,2.735241413116455,-1.2520878314971924,1.1899093389511108
4201188438.0,-0.5876579880714417,0.0780894011259079,9.912398338317873,2.9530398845672607,-1.1454815864562988,1.184991478919983
4201196771.0,-0.6641427278518677,0.4480099678039551,9.868860244750977,3.071940898895264,-1.1866436004638672,1.1678811311721802
4201205104.0,-0.7096259593963623,0.4631930887699127,9.90408992767334,2.981433153152466,-1.1846840381622314,1.1476587057113647
4201213437.0,-0.693936288356781,0.1619541049003601,10.079852104187012,2.866898536682129,-1.0676908493041992,1.144648790359497
4201221770.0,-0.7371191382408142,-0.0379251092672348,10.055193901062012,2.8368279933929443,-1.0572659969329834,1.1981827020645142
4201230103.0,-0.7462002038955688,0.1780383288860321,9.951845169067385,3.080649852752685,-1.1990408897399902,1.2353745698928833
4201238436.0,-0.690963864326477,0.5541799664497375,9.891766548156738,3.114844799041748,-1.3395349979400637,1.2085310220718384
4201246769.0,-0.639985978603363,0.4781749844551086,9.979926109313965,2.8375964164733887,-1.3372297286987305,1.172722101211548
4201255102.0,-0.6280422210693359,0.1365935355424881,10.074207305908203,2.918408870697021,-1.1077516078948977,1.2909061908721924
4201263435.0,-0.655245840549469,-0.0198282226920127,9.993181228637695,3.038847208023072,-1.0576244592666626,1.2849637269973757
4201271768.0,-0.6991158723831177,0.3050394654273987,9.880425453186035,3.2280848026275635,-1.277881145477295,1.1319953203201294
4201280101.0,-0.6739329695701599,0.5564494132995605,9.904149055480955,3.048171043395996,-1.353930115699768,1.212193727493286
4201288434.0,-0.650778591632843,0.3659684658050537,10.03178882598877,2.912799835205078,-1.156393051147461,1.1692898273468018
4201296767.0,-0.7461865544319153,0.0943923965096473,10.120800018310549,2.82691502571106,-1.0980182886123655,1.2828633785247805
4201305100.0,-0.7936598658561707,0.0447198636829853,9.986538887023926,3.0691232681274414,-1.1885132789611816,1.1809955835342407
4201313433.0,-0.7664079070091248,0.3903824388980865,9.890579223632812,3.055650472640991,-1.2621543407440186,1.1636803150177002
4201321766.0,-0.6503530144691467,0.4733580648899078,9.911139488220217,2.998351573944092,-1.4268540143966677,1.1305099725723269
4201330099.0,-0.5937190651893616,0.2370190024375915,10.048821449279783,2.916257619857788,-1.1513983011245728,1.1635522842407229
4201338432.0,-0.6570487022399902,0.0252755600959062,10.016417503356934,2.9185116291046143,-1.0550631284713743,1.201973557472229
4201346765.0,-0.6834568381309509,0.2379848510026931,9.966168403625488,2.964719772338867,-1.1249899864196775,1.1525126695632937
4201355098.0,-0.6182328462600708,0.5200428366661072,9.904739379882812,2.9834439754486084,-1.2798024415969849,1.1500279903411863
4201363431.0,-0.6482934951782227,0.3955049514770508,9.948129653930664,2.816746473312378,-1.0929977893829346,1.0853263139724731
4201371764.0,-0.6783905029296875,0.061768215149641,10.126220703125,3.0402817726135254,-1.1572128534317017,1.1760520935058594
4201380097.0,-0.7812762260437012,-0.0070673879235982,10.044306755065918,3.1137688159942627,-0.902863383293152,1.305711269378662
4201388430.0,-0.7738151550292969,0.376322478055954,9.939557075500488,3.2492551803588867,-1.309041142463684,1.2253209352493286
4201396763.0,-0.6562923789024353,0.6707891821861267,9.946161270141602,3.028550386428833,-1.4926055669784546,1.1663954257965088
4201405096.0,-0.558214545249939,0.3728080093860626,9.99448585510254,2.8321404457092285,-1.2721182107925415,0.9932944774627686
4201413429.0,-0.5760022401809692,0.0008164228638634,10.050179481506348,2.84791898727417,-1.0434600114822388,1.146877408027649
4201421762.0,-0.6697909235954285,0.0243610721081495,9.885350227355955,3.0058305263519287,-1.180675387382507,1.2344781160354614
4201430095.0,-0.7167155742645264,0.4604083001613617,9.878788948059082,3.0688672065734863,-1.2693006992340088,1.1659857034683228
4201438428.0,-0.6661437153816223,0.5935535430908203,9.996454238891602,2.9409241676330566,-1.2218118906021118,1.2407537698745728
4201446761.0,-0.6430282592773438,0.2531399428844452,10.117642402648926,2.869434595108032,-1.1628222465515137,1.2270500659942627
4201455094.0,-0.7112120985984802,-0.0210493970662355,10.046343803405762,2.8225350379943848,-1.1593387126922607,1.2186229228973389
4201463427.0,-0.743378758430481,0.2058277726173401,9.886364936828612,3.0805470943450928,-1.1089298725128174,1.271951675415039
4201471760.0,-0.7542371153831482,0.5274873375892639,9.90236473083496,3.0707883834838867,-1.3614095449447632,1.0859668254852295
4201480093.0,-0.6691008806228638,0.3892545104026794,10.028995513916016,2.808447360992432,-1.2319037914276123,1.072801113128662
4201488426.0,-0.5741720795631409,0.0481840074062347,10.08009910583496,2.827120065689087,-1.159671664237976,1.262628197669983
4201496759.0,-0.5639239549636841,0.0799363926053047,9.915922164916992,2.998734951019287,-1.135286808013916,1.2507942914962769
4201505092.0,-0.6974267363548279,0.4294827580451965,9.831082344055176,3.2440168857574463,-1.1485549211502075,1.2162916660308838
4201513425.0,-0.7950472235679626,0.5018426179885864,9.937268257141112,3.00864839553833,-1.0710208415985107,1.1416265964508057
4201521758.0,-0.7468991875648499,0.1339686810970306,10.088114738464355,2.954704761505127,-1.285719394683838,1.1256946325302124
4201530091.0,-0.6735502481460571,-0.1279388517141342,10.009282112121582,3.015871524810791,-1.152755856513977,1.214678406715393
4201538424.0,-0.6724566221237183,0.2404078394174575,9.881470680236816,3.197117805480957,-1.0615180730819702,1.204304575920105
4201546757.0,-0.7759843468666077,0.663794755935669,9.955524444580078,3.0415754318237305,-1.072135090827942,1.2098243236541748
4201555090.0,-0.748434841632843,0.4896373748779297,10.020901679992676,2.9537057876586914,-1.2082875967025757,1.0887588262557983
4201563423.0,-0.5811765789985657,0.0116595299914479,10.06902027130127,2.825250625610352,-1.434205174446106,1.2157796621322632
4201571756.0,-0.4523203670978546,-0.0735731273889541,9.85745906829834,2.8910021781921387,-1.102859377861023,1.1837362051010132
4201580089.0,-0.6716102361679077,0.4237387478351593,9.8578462600708,3.175832509994507,-0.735192596912384,1.1879884004592896
4201588422.0,-0.8905259370803833,0.6323263049125671,10.064194679260254,3.117227077484131,-0.8712299466133118,1.0429861545562744
4201596755.0,-0.8301061391830444,0.3371933102607727,10.206792831420898,2.697537660598755,-1.3248834609985352,1.2004880905151367
4201605088.0,-0.5792130827903748,-0.0095991780981421,10.067787170410156,2.890194892883301,-1.4976129531860352,1.1329560279846191
4201613421.0,-0.5863059759140015,0.1586540937423706,9.871892929077148,3.0413577556610107,-0.911341667175293,1.2356308698654177
4201621754.0,-0.8019369840621948,0.5111757516860962,9.906353950500488,3.020379543304444,-0.7538397312164307,1.1706730127334597
4201630087.0,-0.8394129872322083,0.4171583354473114,10.121841430664062,2.8735837936401367,-1.3432999849319458,1.1665490865707395
4201638420.0,-0.4876278340816498,0.0322634652256965,10.00062370300293,2.856807231903076,-1.5836641788482666,1.124925971031189
4201646753.0,-0.3105085790157318,0.0745020285248756,9.881519317626951,2.8860838413238525,-1.065436840057373,1.117958903312683
4201655086.0,-0.650523841381073,0.4526739418506622,9.889588356018066,3.082827091217041,-0.527102530002594,1.1909849643707275
4201663419.0,-1.011457085609436,0.4772164225578308,10.068047523498535,2.976912260055542,-0.7155720591545105,1.1750530004501345
4201671752.0,-0.8536319136619568,0.0986982062458992,10.135476112365724,2.793462991714477,-1.5798476934432983,1.1374001502990725
4201680085.0,-0.4810366034507751,-0.0725755095481872,9.939868927001951,2.991384029388428,-1.6451382637023926,1.214703917503357
4201688418.0,-0.4913026988506317,0.3212136924266815,9.891300201416016,3.1767802238464355,-0.7405460476875305,1.1549715995788574
4201696751.0,-0.8992058634757996,0.671935498714447,10.038349151611328,3.298396587371826,-0.4963398277759552,1.1636803150177002
4201705084.0,-0.9298210144042968,0.4381323456764221,10.117252349853516,2.8712024688720703,-1.4522887468338013,1.1642694473266602
4201713417.0,-0.434739887714386,0.0163462422788143,9.9199800491333,2.7317073345184326,-1.9378834962844849,1.1947247982025146
4201721750.0,-0.254377543926239,0.0440245680510997,9.735593795776367,3.0610294342041016,-1.03838849067688,1.15248703956604
4201730083.0,-0.7305694818496704,0.4338470101356506,9.92271900177002,3.324548721313477,-0.3357385993003845,1.162783980369568
4201738416.0,-1.1157052516937256,0.5550558567047119,10.1491117477417,3.0671510696411133,-0.8893390893936157,1.2062768936157229
4201746749.0,-0.8384206295013428,0.2177201956510543,10.135082244873049,2.68770170211792,-1.886321783065796,1.1906263828277588
4201755082.0,-0.4371089041233063,0.0731967538595199,9.895751953125,2.739621877670288,-1.6307687759399414,1.0738255977630615
4201763415.0,-0.5913738012313843,0.2888287007808685,9.903597831726074,2.9438698291778564,-0.6641899347305298,1.122928261756897
4201771748.0,-0.9800386428833008,0.4510407447814941,10.078526496887209,3.0320723056793213,-0.6591311097145081,1.2168939113616943
4201780081.0,-0.8595320582389832,0.2382257431745529,10.09170150756836,2.8725340366363525,-1.836579203605652,1.2547390460968018
4201788414.0,-0.3456943035125732,0.0829003900289535,9.78031063079834,2.753786563873291,-2.0044548511505127,1.16132390499115
4201796747.0,-0.3117832243442535,0.2644639909267425,9.81205940246582,3.0667409896850586,-0.864006519317627,1.0401684045791626
4201805080.0,-0.8334025144577026,0.4338621497154236,10.082682609558104,3.084799289703369,-0.3507741689682007,1.0543075799942017
4201813413.0,-1.0980587005615234,0.2608407437801361,10.141060829162598,3.046403884887696,-1.251217007637024,1.1940076351165771
4201821746.0,-0.7044278383255005,0.0291803628206253,9.941605567932127,2.922609806060791,-1.8696212768554688,1.2180335521697998
4201830079.0,-0.4029488861560821,0.2029235213994979,9.873394012451172,3.036221981048584,-1.4091159105300903,1.0815483331680298
4201838412.0,-0.6464426517486572,0.5153148174285889,10.011923789978027,3.176011800765991,-0.7014586925506592,1.1490802764892578
4201846745.0,-0.9087645411491394,0.4371692836284637,10.16299057006836,3.0775249004364014,-0.9485336542129515,1.2672388553619385
4201855078.0,-0.6965190172195435,0.1247465834021568,9.95154094696045,2.830770254135132,-1.693792700767517,1.255776286125183
4201863411.0,-0.3854597508907318,0.1093639731407165,9.758872032165527,2.8791682720184326,-1.50840961933136,1.0787692070007324
4201871744.0,-0.4558393955230713,0.3772175312042236,9.908367156982422,3.0476841926574707,-0.722154974937439,1.1088145971298218
4201880077.0,-0.8375428318977356,0.4031344652175903,10.12470245361328,3.021275758743286,-0.6015630960464478,1.1236708164215088
4201888410.0,-0.9115764498710632,0.2029717117547989,10.107121467590332,2.791375637054444,-1.1873480081558228,1.2835934162139893
4201896743.0,-0.6227342486381531,0.1772835701704025,9.911073684692385,2.928987979888916,-1.55525803565979,1.1633986234664917
4201905076.0,-0.5742688179016113,0.3729236721992492,9.887264251708984,3.061720848083496,-0.993973195552826,1.1487215757369995
4201913409.0,-0.8017528653144836,0.3456165790557861,10.059880256652832,2.9253122806549072,-0.7863314151763916,1.1735801696777344
4201921742.0,-0.8233813047409058,0.1692101806402206,10.1201810836792,2.9095981121063232,-1.3710405826568604,1.285655498504639
4201930075.0,-0.5061548352241516,0.1805049329996109,9.883950233459473,2.9915120601654053,-1.6014147996902466,1.188987135887146
4201938408.0,-0.3826508820056915,0.3822518289089203,9.823834419250488,2.948889970779419,-1.0940992832183838,1.1315088272094729
4201946741.0,-0.6562852263450623,0.3505161702632904,9.921744346618652,2.9094693660736084,-0.7422876954078674,1.0655008554458618
4201955074.0,-0.923087239265442,0.1055531427264213,10.122563362121582,2.9212522506713867,-0.8856506943702698,1.2309178113937378
4201963407.0,-0.7424156069755554,0.063911460340023,10.020681381225586,3.0930724143981934,-1.4961658716201782,1.2617571353912354
4201971740.0,-0.5777958631515503,0.3557552695274353,9.88210105895996,3.1473751068115234,-1.2882040739059448,1.1108125448226929
4201980073.0,-0.6952614188194275,0.5036057829856873,9.983606338500977,2.9678444862365723,-0.8723055720329285,1.1127591133117676
4201988406.0,-0.7966568470001221,0.2401378899812698,10.096378326416016,3.003192186355591,-1.0988891124725342,1.250666260719299
4201996739.0,-0.6219810247421265,0.0342813208699226,9.926228523254396,2.983098030090332,-1.5436930656433103,1.127987027168274
4202005072.0,-0.4919598996639251,0.212950125336647,9.731236457824709,3.0741312503814697,-1.1492851972579956,1.1780370473861694
4202013405.0,-0.686875581741333,0.4122656285762787,9.91960334777832,3.1701462268829346,-0.6778935790061951,1.0468794107437134
4202021738.0,-0.8952354788780212,0.3561852872371673,10.194661140441896,3.010057210922241,-0.9692556262016296,1.21414053440094
4202030071.0,-0.7109339833259583,0.1826663613319397,10.104619979858398,2.95442271232605,-1.475495219230652,1.2087358236312866
4202038404.0,-0.5515457391738892,0.2316472381353378,9.860332489013672,2.9889509677886963,-1.30805504322052,1.08781099319458
4202046737.0,-0.7171236872673035,0.3579469919204712,9.900467872619627,3.1372318267822266,-0.742646336555481,1.1545617580413818
4202055070.0,-0.8915249705314636,0.3444238305091858,10.078808784484863,3.126652479171753,-1.0016573667526243,1.2486169338226318
4202063403.0,-0.6212117671966553,0.1560401022434234,9.997960090637209,2.9160525798797607,-1.6528995037078855,1.137297749519348
4202071736.0,-0.3553104698657989,0.2260436415672302,9.835681915283203,2.9769632816314697,-1.3307749032974243,1.1032307147979736
4202080069.0,-0.5702250599861145,0.4054129123687744,9.90539836883545,3.107506036758423,-0.4909736514091491,1.0731979608535769
4202088402.0,-0.9441878199577332,0.3760479688644409,10.083477020263672,3.048900604248047,-0.7814646363258362,1.2624359130859375
4202096735.0,-0.8991668224334717,0.0803547203540802,10.06584358215332,2.8558592796325684,-1.3334132432937622,1.2639857530593872
4202105068.0,-0.5239715576171875,0.0896762832999229,9.921741485595703,3.016998052597046,-1.51068913936615,1.2200827598571775
4202113401.0,-0.5448758602142334,0.4105963110923767,9.961618423461914,3.116356134414673,-0.7821691036224365,1.1030257940292358
4202121734.0,-0.8104764223098755,0.5824340581893921,10.125789642333984,2.996865510940552,-0.7506123185157776,1.2597081661224363
4202130067.0,-0.7999078631401062,0.2903517782688141,10.063374519348145,2.813326597213745,-1.323026418685913,1.2269091606140137
4202138400.0,-0.4681808054447174,0.0703797936439514,9.850831985473633,2.815785646438598,-1.4815274477005005,1.2742698192596436
4202146733.0,-0.4092589914798736,0.2777318358421325,9.816387176513672,3.0177924633026123,-0.9626727104187012,1.1411654949188232
4202155066.0,-0.7324472665786743,0.4830684959888458,10.030320167541504,3.078165531158448,-0.5647554993629456,1.2120656967163086
4202163399.0,-0.9269020557403564,0.3499180972576141,10.178898811340332,2.8921799659729004,-0.8116766810417175,1.2657017707824707
4202171732.0,-0.7208978533744812,0.2038466036319732,10.03758430480957,2.9022719860076904,-1.5256991386413574,1.1643719673156738
4202180065.0,-0.577634334564209,0.2939677834510803,9.877508163452148,2.7812705039978027,-1.3147659301757812,1.165498971939087
4202188398.0,-0.7317375540733337,0.308427631855011,9.954699516296388,3.026962280273437,-0.869488000869751,1.1531529426574707
4202196731.0,-0.8427727222442627,0.193474069237709,10.038915634155272,3.00024676322937,-1.1965049505233765,1.2726945877075195
4202205064.0,-0.5807209610939026,0.1307229101657867,9.87229347229004,2.971994161605835,-1.716217875480652,1.146288275718689
4202213397.0,-0.3861846625804901,0.2282910346984863,9.715396881103516,3.036362886428833,-1.4150457382202148,1.0710848569869995
4202221730.0,-0.6041939854621887,0.3209075033664703,9.841379165649414,3.011747121810913,-0.6287654042243958,1.0316133499145508
4202230063.0,-0.8871010541915894,0.2314353883266449,10.057371139526367,3.0603373050689697,-0.8191304206848145,1.1866306066513062
4202238396.0,-0.8201401233673096,0.0518309585750103,9.932852745056152,3.0435733795166016,-1.4256372451782229,1.2140765190124512
4202246729.0,-0.587622344493866,0.2153169810771942,9.861464500427246,3.084991693496704,-1.2691596746444702,1.1897941827774048
4202255062.0,-0.6889567375183105,0.5380492806434631,10.03880214691162,3.233797550201416,-0.7105005383491516,1.1003875732421875
4202263395.0,-0.774023175239563,0.4663389027118683,10.169023513793944,3.17975115776062,-1.0117493867874146,1.254969358444214
4202271728.0,-0.6252798438072205,0.198074385523796,9.976533889770508,2.877042293548584,-1.402469038963318,1.258120059967041
4202280061.0,-0.4686241149902344,0.1743564903736114,9.814621925354004,2.968203544616699,-1.2254234552383425,1.157994031906128
4202288394.0,-0.6761425733566284,0.3335898816585541,9.93114185333252,2.9404373168945312,-0.8254827857017517,1.2162662744522097
4202296727.0,-0.8575413823127747,0.4557970762252807,10.165468215942385,2.921905279159546,-0.8421191573143005,1.2464271783828735
4202305060.0,-0.7988829016685486,0.221254825592041,10.123249053955078,2.676841259002685,-1.340354561805725,1.2262815237045288
4202313393.0,-0.6815391778945923,0.1338252872228622,10.037047386169434,2.769949197769165,-1.3346681594848633,1.194648027420044
4202321726.0,-0.7022150754928589,0.3484879732131958,9.93317413330078,2.7882888317108154,-1.1150517463684082,1.1924195289611816
4202330059.0,-0.8440104126930237,0.3843410611152649,10.097769737243652,2.7538890838623047,-1.127064824104309,1.172568440437317
4202338392.0,-0.7213723063468933,0.1204447150230407,10.081233024597168,2.739391565322876,-1.6121984720230105,1.2576847076416016
4202346725.0,-0.4593248069286346,0.1031544283032417,9.932503700256348,2.765082359313965,-1.5683469772338867,1.1540493965148926
4202355058.0,-0.4678614139556885,0.3653786480426788,9.91079044342041,2.9461236000061035,-0.9783229231834412,1.0885025262832642
4202363391.0,-0.7688797116279602,0.3830790221691131,9.99094009399414,2.891796112060547,-0.7201314568519592,1.1231330633163452
4202371724.0,-0.9560851454734802,0.1134616136550903,10.157150268554688,2.8958940505981445,-1.2441987991333008,1.1899607181549072
4202380057.0,-0.701073169708252,0.0055989832617342,9.971701622009276,2.882293224334717,-1.7955451011657717,1.2140123844146729
4202388390.0,-0.5527297258377075,0.3012754619121551,9.895950317382812,3.014270782470703,-1.236450433731079,1.0442028045654297
4202396723.0,-0.7312779426574707,0.5248358249664307,10.102081298828123,3.1169581413269043,-0.854823887348175,1.0621840953826904
4202405056.0,-0.814545750617981,0.3202265202999115,10.1422119140625,2.8352527618408203,-1.3769445419311523,1.1528583765029907
4202413389.0,-0.5171840786933899,0.1102509945631027,9.87646484375,2.7802329063415527,-1.7617980241775513,1.2122576236724854
4202421722.0,-0.4183557033538818,0.1908537149429321,9.736976623535156,3.0000548362731934,-1.2574541568756104,1.1027568578720093
4202430055.0,-0.7094131112098694,0.4047554433345794,9.92708969116211,3.187537908554077,-0.688933253288269,1.0609928369522097
4202438388.0,-0.897832989692688,0.350510835647583,10.061795234680176,2.963695287704468,-1.0323690176010132,1.2446212768554688
4202446721.0,-0.7324947118759155,0.2042154818773269,9.941934585571287,2.862544775009156,-1.473676681518555,1.1899607181549072
4202455054.0,-0.5924209356307983,0.1834614276885986,9.871053695678713,2.83810830116272,-1.239306092262268,1.1426252126693726
4202463387.0,-0.7373740673065186,0.3410558700561523,9.944734573364258,3.1092350482940674,-1.0177429914474487,1.237423539161682
4202471720.0,-0.8624306321144104,0.3067370057106018,9.994418144226074,2.8095617294311523,-1.2114765644073486,1.277036190032959
4202480053.0,-0.6144962310791016,0.15308678150177,9.947199821472168,2.876811981201172,-1.7987725734710691,1.2798409461975098
4202488386.0,-0.3858018219470978,0.2318424135446548,9.794084548950195,2.9309089183807373,-1.635225772857666,1.231686234474182
4202496719.0,-0.4981893599033355,0.3883716166019439,9.823101997375488,2.9627726078033447,-0.9734305739402772,1.1450331211090088
4202505052.0,-0.8243650794029236,0.3411317765712738,9.961869239807127,2.945739269256592,-0.9168999791145324,1.2400107383728027
4202513385.0,-0.9026939272880554,0.1389727741479873,10.080944061279297,2.8287594318389893,-1.4019311666488647,1.2794567346572876
4202521718.0,-0.656211793422699,0.0699744373559951,9.920473098754885,2.9588022232055664,-1.83073890209198,1.1539212465286257
4202530051.0,-0.6076518893241882,0.3421901166439056,9.911874771118164,3.0722484588623047,-1.398934245109558,1.148491144180298
4202538384.0,-0.7702259421348572,0.4516662061214447,10.129056930541992,2.9868760108947754,-1.225654125213623,1.2582993507385254
4202546717.0,-0.7451773285865784,0.239220380783081,10.137767791748049,2.800840139389038,-1.8168048858642576,1.3436460494995115
4202555050.0,-0.4759814143180847,-0.0035899146459996,9.80517578125,2.79774022102356,-2.060678005218506,1.2857321500778198
4202563383.0,-0.4665849506855011,0.2467398345470428,9.793081283569336,2.9466874599456787,-1.402597188949585,1.2285869121551514
4202571716.0,-0.7595242261886597,0.3274153769016266,10.04042148590088,3.046992778778076,-1.1265780925750732,1.0798450708389282
4202580049.0,-0.859649658203125,0.243169367313385,10.243390083312988,2.9120569229125977,-1.6685752868652344,1.2261277437210083
4202588382.0,-0.6146172285079956,0.0761668235063552,9.919389724731444,2.887748956680298,-1.820647120475769,1.2396008968353271
4202596715.0,-0.6048474907875061,0.2771779596805572,9.95476245880127,3.0252976417541504,-1.3529056310653689,1.2750767469406128
4202605048.0,-0.8135302066802979,0.2999219894409179,10.102971076965332,3.0923805236816406,-1.3155341148376465,1.251665115356445
4202613381.0,-0.774062991142273,0.2001534551382064,10.164056777954102,2.9610180854797363,-1.721173882484436,1.3047505617141724
4202621714.0,-0.5181610584259033,0.1080498024821281,9.917141914367676,2.819000005722046,-2.126122236251831,1.27033793926239
4202630047.0,-0.4006470739841461,0.2910119891166687,9.896254539489746,2.9349050521850586,-1.6527714729309082,1.2392679452896118
4202638380.0,-0.6514157056808472,0.3684683442115783,9.95551300048828,3.080828905105591,-1.0685105323791504,1.2000781297683716
4202646713.0,-0.9296714663505554,0.2836407721042633,10.159727096557615,2.822202444076538,-1.269966721534729,1.3431849479675293
4202655046.0,-0.827552855014801,0.1032375320792198,10.145675659179688,2.788442373275757,-1.896721124649048,1.1956722736358645
4202663379.0,-0.5917802453041077,0.2292064428329467,9.968592643737791,3.151754379272461,-1.7519237995147705,1.2220804691314695
4202671712.0,-0.6445807814598083,0.640924870967865,10.09001922607422,3.0866947174072266,-1.2900995016098022,1.165883183479309
4202680045.0,-0.7545146942138672,0.5381436944007874,10.215856552124023,2.7413763999938965,-1.4561437368392944,1.3058521747589111
4202688378.0,-0.6259597539901733,0.1906382143497467,10.103880882263184,2.6450796127319336,-1.9301224946975708,1.2823766469955444
4202696711.0,-0.4634496867656708,0.1949486434459686,9.73867893218994,2.7397501468658447,-1.7216227054595947,1.1656527519226074
4202705044.0,-0.5879260897636414,0.4999462962150574,9.930723190307615,2.972557783126831,-1.0508880615234375,1.192726969718933
4202713377.0,-0.8499919772148132,0.3071567118167877,9.99045753479004,2.871458053588867,-0.9725596308708192,1.021854281425476
4202721710.0,-0.826554536819458,0.4045053422451019,10.21065616607666,2.7207698822021484,-1.442247986793518,1.2206718921661377
4202730043.0,-0.7320990562438965,0.1379612684249878,9.78605842590332,2.7242531776428223,-1.4401732683181765,1.1073546409606934
4202738376.0,-0.6433837413787842,0.4793083965778351,10.044203758239746,2.9536798000335693,-1.2971946001052856,1.1800222396850586
4202746709.0,-0.7620787620544434,0.3001774251461029,9.894323348999023,2.786444664001465,-1.1390777826309204,1.0789228677749634
4202755042.0,-0.6910512447357178,0.2789563536643982,9.989477157592772,2.85506534576416,-1.505617618560791,1.224539875984192
4202763375.0,-0.4591528475284576,0.2148700803518295,9.805289268493652,2.9911022186279297,-1.6132229566574097,1.2180593013763428
4202771708.0,-0.4800542891025543,0.4100255370140075,9.834664344787598,2.9387214183807373,-1.0501196384429932,1.0751575231552124
4202780041.0,-0.7548899054527283,0.4417807459831238,9.96253490447998,2.956394910812378,-0.8154675960540771,1.0993117094039917
4202788374.0,-0.9490283131599426,0.1999130100011825,10.067264556884766,2.7848563194274902,-1.1951217651367188,1.2640368938446045
4202796707.0,-0.7445182800292969,0.1665027141571045,9.979960441589355,2.895766019821167,-1.4695013761520386,1.0535646677017212
4202805040.0,-0.5457157492637634,0.4155892431735992,9.88818073272705,3.0276029109954834,-1.2556995153427124,1.150463581085205
4202813373.0,-0.6890064477920532,0.5284913778305054,10.045893669128418,2.9943554401397705,-0.9637227058410645,1.040757656097412
4202821706.0,-0.7116117477416992,0.3908477425575256,10.123053550720217,2.8970086574554443,-1.2971305847167969,1.2365400791168213
4202830039.0,-0.5012394189834595,0.1689015328884124,9.88416862487793,2.7458713054656982,-1.7575591802597046,1.1827117204666138
4202838372.0,-0.3742831945419311,0.226929634809494,9.702508926391602,2.881345510482788,-1.155496597290039,1.167471170425415
4202846705.0,-0.6362060308456421,0.4039892256259918,10.0003080368042,2.760138511657715,-0.6950294971466064,1.0698041915893557
4202855038.0,-0.8666292428970337,0.3298904001712799,10.164441108703612,2.820101737976074,-0.9696909189224244,1.0803829431533811
4202863371.0,-0.695651650428772,0.1225729957222938,9.9798583984375,2.6637778282165527,-1.4800032377243042,1.2457482814788818
4202871704.0,-0.5303059816360474,0.2469409108161926,9.90392017364502,2.7922847270965576,-1.311487317085266,1.2404205799102783
4202880037.0,-0.6651464104652405,0.3021295070648193,9.948796272277832,2.8465096950531006,-0.8712809681892395,1.1972606182098389
4202888370.0,-0.7907189726829529,0.1778167486190796,10.059430122375488,2.816464424133301,-1.2356690168380735,1.2376285791397097
4202896703.0,-0.5441710948944092,0.081290602684021,10.005171775817873,2.815849781036377,-1.6963156461715698,1.1775121688842771
4202905036.0,-0.3197697401046753,0.1497702002525329,9.763446807861328,2.9782698154449463,-1.2228877544403076,1.1522308588027954
4202913369.0,-0.5247751474380493,0.3271766006946563,9.802827835083008,2.9668455123901367,-0.6398820281028748,1.0897831916809082
4202921702.0,-0.8982406258583069,0.2231154590845108,10.092538833618164,2.955498695373535,-0.7946432828903198,1.1387577056884766
4202930035.0,-0.8344801664352417,-0.0288580507040023,10.091331481933594,2.852145195007324,-1.3583102226257324,1.2782785892486572
4202938368.0,-0.5161885619163513,0.0255766455084085,9.84887409210205,3.222155332565308,-1.421333909034729,1.1300615072250366
4202946701.0,-0.5843518376350403,0.342339813709259,9.918217658996582,3.2685558795928955,-0.7939260601997375,1.054179549217224
4202955034.0,-0.7953185439109802,0.3930192589759826,10.13249683380127,3.10101318359375,-1.0178712606430054,1.1606322526931765
4202963367.0,-0.7187774777412415,0.1409705728292465,10.039076805114746,2.955293655395508,-1.5399662256240845,1.1250284910202026
4202971700.0,-0.3776573836803436,-0.0279388017952442,9.825502395629885,3.023683786392212,-1.570857048034668,1.2180081605911257
4202980033.0,-0.4130188822746277,0.2197098731994629,9.808274269104004,3.250549077987671,-0.7578100562095642,1.1119396686553955
4202988366.0,-0.8619903922080994,0.4458258748054504,10.011286735534668,3.029754161834717,-0.6356556415557861,1.0932155847549438
4202996699.0,-0.9904143214225768,0.2310265302658081,10.113250732421877,2.9442410469055176,-1.1280765533447266,1.203702449798584
4203005032.0,-0.6891120076179504,0.0681329071521759,9.983774185180664,2.9569332599639893,-1.5874040126800537,1.188321232795715
4203013365.0,-0.4859527051448822,0.2647153735160827,9.885376930236816,3.110849142074585,-1.216407299041748,1.130842924118042
4203021698.0,-0.7617887258529663,0.3857277333736419,9.96724796295166,3.1233999729156494,-0.7068889141082764,1.2087101936340332
4203030031.0,-0.918520450592041,0.2178970724344253,10.105548858642578,3.129457712173462,-1.189422845840454,1.231084227561951
4203038364.0,-0.5208896994590759,0.0894524529576301,10.001194953918455,3.006342649459839,-1.7843644618988037,1.2137048244476318
4203046697.0,-0.2542212307453155,0.2119751572608947,9.76624870300293,3.1888952255249023,-1.3462200164794922,1.1867586374282837
4203055030.0,-0.5760127305984497,0.3896201848983764,9.851494789123535,3.149116516113281,-0.4021050930023193,1.0405526161193848
4203063363.0,-1.0060317516326904,0.3835689127445221,10.1450777053833,3.106852769851685,-0.7012537121772766,1.183070182800293
4203071696.0,-0.8903563022613525,0.0678750798106193,10.130142211914062,3.0742716789245605,-1.5652986764907837,1.233043551445007
4203080029.0,-0.475841760635376,0.1107866242527961,9.86962890625,3.171528577804565,-1.4795676469802856,1.1612725257873535
4203088362.0,-0.5571208000183105,0.5415636301040649,9.993407249450684,3.331080198287964,-0.7662883400917053,1.1476970911026
4203096695.0,-0.8506411910057068,0.5584704279899597,10.142945289611816,3.086310386657715,-0.7946175336837769,1.1778448820114136
4203105028.0,-0.7229142785072327,0.1832717508077621,10.006568908691406,2.9172050952911377,-1.6661931276321411,1.2313530445098877
4203113361.0,-0.3338411152362823,0.1420020908117294,9.841554641723633,2.9718403816223145,-1.617859125137329,1.2225419282913208
4203121694.0,-0.4155114293098449,0.3845428228378296,9.82907009124756,3.200626850128174,-0.8267378807067871,1.109634518623352
4203130027.0,-0.8993842601776123,0.4888947904109955,10.091992378234863,3.1219146251678467,-0.6136531233787537,1.2208770513534546
4203138360.0,-0.9611563682556152,0.3528226613998413,10.236616134643556,2.95634388923645,-1.3538788557052612,1.169520378112793
4203146693.0,-0.5584539175033569,0.2403595894575119,9.968653678894045,2.955485343933105,-1.6912055015563965,1.1661518812179563
4203155026.0,-0.4573332965373993,0.3250518441200256,9.829782485961914,3.1329030990600586,-0.8971002101898193,1.1837875843048096
4203163359.0,-0.8112906217575073,0.495981365442276,10.08768081665039,3.011593818664551,-0.6998961567878723,1.2658299207687378
4203171692.0,-0.9034048914909364,0.3652108013629913,10.20201301574707,2.853092670440674,-1.3512918949127195,1.2749487161636353
4203180025.0,-0.3951065242290497,0.1536909192800521,9.884136199951172,2.939361572265625,-1.7985419034957886,1.2102469205856323
4203188358.0,-0.2391140013933181,0.4424056112766266,9.823599815368652,3.00974988937378,-0.9987632036209106,1.2206976413726809
4203196691.0,-0.6528753638267517,0.5194622278213501,10.010302543640137,2.9697656631469727,-0.2414781898260116,1.050132393836975
4203205024.0,-1.0402493476867676,0.2680091261863708,10.177674293518066,2.870203018188477,-0.8505077958106995,1.069163799285889
4203213357.0,-0.8306080102920532,0.0625621899962425,10.053128242492676,2.877938985824585,-1.655102252960205,1.216010332107544
4203221690.0,-0.472080647945404,0.2362527549266815,9.883696556091309,2.9718151092529297,-1.4100253582000732,1.111094355583191
4203230023.0,-0.5997110605239868,0.5325558185577393,9.950632095336914,2.961876630783081,-0.7074011564254761,1.1573536396026611
4203238356.0,-0.9071728587150574,0.4778302311897278,10.158920288085938,2.791260242462158,-0.9156704545021056,1.1155767440795898
4203246689.0,-0.7227639555931091,0.0885224640369415,10.032337188720703,2.697306871414185,-1.659303069114685,1.2034591436386108
4203255022.0,-0.3141138255596161,0.0387027189135551,9.761068344116213,2.805962562561035,-1.4724470376968384,1.1124261617660522
4203263355.0,-0.4572248756885528,0.342337965965271,9.759737014770508,3.046326398849488,-0.5207757949829102,1.1252845525741575
4203271688.0,-0.9683650732040404,0.4393208622932434,10.159290313720703,2.952937364578247,-0.5918425917625427,1.119316577911377
4203280021.0,-0.960893452167511,0.1837436258792877,10.169361114501951,2.769411325454712,-1.3810298442840576,1.085531234741211
4203288354.0,-0.5330833792686462,0.1168791130185127,9.905427932739258,2.9138758182525635,-1.6763365268707275,1.3101682662963867
4203296687.0,-0.4904597699642181,0.2911342978477478,9.784831047058104,3.1225805282592773,-0.94074684381485,1.2116045951843262
4203305020.0,-0.8658847808837891,0.3848085403442383,10.005322456359863,2.9323434829711914,-0.7501257658004761,1.045291543006897
4203313353.0,-0.8664050698280334,0.1967078298330307,10.116525650024414,2.881012439727783,-1.551313400268555,1.2231309413909912
4203321686.0,-0.386720061302185,0.0787237212061882,9.857192039489746,2.874916315078736,-1.8285620212554927,1.1767693758010864
4203330019.0,-0.251813679933548,0.2804045975208282,9.747030258178713,2.965206384658813,-0.9871085286140442,1.0618125200271606
4203338352.0,-0.7567388415336609,0.4367614686489105,9.98365879058838,2.935032844543457,-0.2870202958583832,1.1619641780853271
4203346685.0,-1.1103346347808838,0.2200295031070709,10.192985534667969,2.760830402374268,-1.151193380355835,1.1687008142471311
4203355018.0,-0.7367603182792664,-0.040351428091526,9.999561309814451,2.8026580810546875,-1.81636929512024,1.2081722021102903
4203363351.0,-0.3937713503837585,0.1306459158658981,9.83872413635254,3.1022682189941406,-1.3298015594482422,1.113066792488098
4203371684.0,-0.6255157589912415,0.5019412636756897,9.968084335327148,3.1300339698791504,-0.6605527400970459,1.1474409103393557
4203380017.0,-0.9139866828918456,0.4309151470661163,10.172725677490234,2.920996189117432,-1.0529627799987793,1.1275898218154907
4203388350.0,-0.6249858736991882,0.0417211093008518,9.960199356079102,2.8247509002685547,-1.8057011365890503,1.2281899452209473
4203396683.0,-0.2659436464309692,0.0175101123750209,9.727424621582031,3.0113890171051025,-1.4616892337799072,1.1234403848648071
4203405016.0,-0.5179873108863831,0.3774487972259521,9.868197441101074,3.155545949935913,-0.5660874843597412,1.0860179662704468
4203413349.0,-1.0011637210845947,0.4360603988170624,10.142157554626465,3.018458366394043,-0.6406760811805725,1.0731340646743774
4203421682.0,-0.9631008505821228,0.2128094732761383,10.244013786315918,2.916372537612915,-1.636365294456482,1.1768587827682495
4203430015.0,-0.4565756618976593,0.17045359313488,9.93076515197754,2.9674222469329834,-1.6346750259399414,1.2454283237457275
4203438348.0,-0.4276193082332611,0.3327288329601288,9.855711936950684,3.091459035873413,-0.8218455910682678,1.1680092811584473
4203446681.0,-0.846314549446106,0.4070226848125458,10.07211208343506,3.0439319610595703,-0.5966579914093018,1.0928441286087036
4203455014.0,-0.8731052875518799,0.2592517435550689,10.155556678771973,2.935340166091919,-1.4853568077087402,1.2367321252822876
4203463347.0,-0.4014588892459869,0.0711185410618782,9.900018692016602,2.936492919921875,-1.8149608373641968,1.148619294166565
4203471680.0,-0.2317292988300323,0.3102752566337585,9.776381492614746,2.9727110862731934,-0.9212799668312072,1.1074059009552002
4203480013.0,-0.7289564609527588,0.5178810358047485,10.00005054473877,3.0082767009735107,-0.3383128345012665,1.1158970594406128
4203488346.0,-1.1118850708007812,0.210542693734169,10.186562538146973,2.770461320877075,-0.8817829489707947,1.221747875213623
4203496679.0,-0.7968922257423401,0.0236910935491323,10.03648281097412,2.8751983642578125,-1.7773847579956057,1.209683537483215
4203505012.0,-0.4059485495090484,0.2193531692028045,9.882034301757812,3.089461326599121,-1.4474732875823977,1.2036129236221311
4203513345.0,-0.5529928207397461,0.4741103947162628,9.957209587097168,2.9582395553588867,-0.7520467638969421,1.0260038375854492
4203521678.0,-0.8742319941520691,0.4419044554233551,10.11631965637207,2.9160265922546387,-0.8955631852149963,1.0782310962677002
4203530011.0,-0.6904943585395813,0.1583541631698608,10.050634384155272,2.8309364318847656,-1.6405022144317627,1.2539961338043213
4203538344.0,-0.314779132604599,0.025686590000987,9.718916893005373,2.9636693000793457,-1.6246213912963867,1.2189302444458008
4203546677.0,-0.4544427692890167,0.3535338342189789,9.774633407592772,3.0090065002441406,-0.5689049959182739,1.0527706146240234
4203555010.0,-0.9356755018234252,0.518170952796936,10.148447036743164,3.033545017242432,-0.5448020100593567,1.209632158279419
4203563343.0,-0.9788824915885924,0.276103675365448,10.189976692199709,2.841361284255981,-1.4368175268173218,1.2500513792037964
4203571676.0,-0.5652986764907837,0.0964308604598045,9.861679077148438,2.8729441165924072,-1.5183736085891724,1.250794529914856
4203580009.0,-0.5350279211997986,0.3640741407871246,9.864652633666992,2.990795135498047,-0.972739040851593,1.2442115545272827
4203588342.0,-0.8513603210449219,0.4087924659252167,10.01777172088623,3.1548030376434326,-0.6730524301528931,1.099516749382019
4203596675.0,-0.8412214517593384,0.1925187110900879,10.086788177490234,2.9092650413513184,-1.4243437051773071,1.267802357673645
4203605008.0,-0.4109053313732147,0.1842977553606033,9.885047912597656,2.9259138107299805,-1.802742600440979,1.2168554067611694
4203613341.0,-0.2602871060371399,0.3211517930030823,9.74095344543457,2.9138240814208984,-0.9030426144599916,1.0992093086242676
4203621674.0,-0.6860572099685669,0.4076503217220306,9.917122840881348,2.9579319953918457,-0.3196528553962707,1.119572639465332
4203630007.0,-1.0397533178329468,0.2588894367218017,10.167966842651367,2.9291160106658936,-1.0059350728988647,1.1385016441345217
4203638340.0,-0.7561560869216919,-0.0030054529197514,10.008057594299316,2.976092576980591,-1.668114423751831,1.2478231191635132
4203646673.0,-0.4584284126758575,0.1591169238090515,9.831138610839844,3.04605770111084,-1.2442370653152466,1.1730166673660278
4203655006.0,-0.6496487259864807,0.5398882031440735,9.968425750732422,3.15897798538208,-0.6085813641548157,1.2142939567565918
4203663339.0,-0.8747033476829529,0.4310477674007416,10.16671085357666,3.0186378955841064,-1.169251561164856,1.2866798639297483
4203671672.0,-0.6094884872436523,-0.0001424322836101,9.946444511413574,2.731297492980957,-1.7979273796081543,1.29287850856781
4203680005.0,-0.2905134260654449,0.0950571969151496,9.780707359313965,2.9695608615875244,-1.4927849769592283,1.1654222011566162
4203688338.0,-0.4952255189418793,0.3843337893486023,9.86489486694336,3.146580934524536,-0.6108611226081848,1.110197901725769
4203696671.0,-0.8816766142845154,0.3830263018608093,10.134486198425291,2.9969935417175293,-0.6857059001922607,1.149899959564209
4203705004.0,-0.8850971460342407,0.1875211149454116,10.150104522705078,2.86264705657959,-1.3601800203323364,1.185247540473938
4203713337.0,-0.5511128306388855,0.1360554546117782,9.975635528564451,2.9649498462677,-1.6125569343566897,1.283247470855713
4203721670.0,-0.5222914814949036,0.2496711760759353,9.824440002441406,3.127882719039917,-0.982395589351654,1.1548434495925903
4203730003.0,-0.8214490413665771,0.3876022100448608,10.017378807067873,2.9779751300811768,-0.6285220980644226,1.174963355064392
4203738336.0,-0.8702202439308167,0.2183741629123687,10.178709030151367,3.009660005569458,-1.329839825630188,1.1845687627792358
4203746669.0,-0.4242005348205566,0.0413827933371067,9.938389778137209,3.033122301101685,-1.6522974967956543,1.2509095668792725
4203755002.0,-0.2924269139766693,0.2923385202884674,9.759504318237305,3.0139760971069336,-0.9777337908744812,1.1636803150177002
4203763335.0,-0.733019232749939,0.4860173463821411,10.022397994995115,2.970021724700928,-0.392807126045227,1.0465720891952517
4203771668.0,-1.0630155801773071,0.2062663435935974,10.15021514892578,2.9856975078582764,-0.8753281235694885,1.17369544506073
4203780001.0,-0.7766724824905396,-0.0504571385681629,9.996989250183104,3.0055742263793945,-1.6775659322738647,1.2543290853500366
4203788334.0,-0.397425502538681,0.2034805715084076,9.89741325378418,2.982086181640625,-1.3601799011230469,1.1921120882034302
4203796667.0,-0.6297044157981873,0.4898311793804168,9.953729629516602,3.2125377655029297,-0.7584759593009949,1.1122726202011108
4203805000.0,-0.9198868870735168,0.4460210800170898,10.119979858398438,2.9882848262786865,-0.9369046092033386,1.105023741722107
4203813333.0,-0.7211251258850098,0.1083213463425636,10.032668113708496,2.812417507171631,-1.7451876401901243,1.2220808267593384
4203821666.0,-0.3293441236019134,0.0385530404746532,9.754072189331056,3.0601067543029785,-1.6710598468780518,1.2235662937164309
4203829999.0,-0.4505738019943237,0.332095593214035,9.794085502624512,3.14609432220459,-0.6770739555358887,1.0574581623077393
4203838332.0,-0.9257633686065674,0.5065430998802185,10.141119003295898,3.067560911178589,-0.6757419109344482,1.1580195426940918
4203846665.0,-0.961420714855194,0.2671884298324585,10.200407028198242,2.9562673568725586,-1.434922456741333,1.357477784156799
4203854998.0,-0.5236023664474487,0.0832967832684516,9.903343200683594,2.907676696777344,-1.81063175201416,1.1931878328323364
4203863331.0,-0.4045082628726959,0.341510146856308,9.886645317077637,3.083134174346924,-1.024223566055298,1.1850937604904177
4203871664.0,-0.7829462885856628,0.47144415974617,10.066997528076172,3.01674222946167,-0.5824292302131653,1.2113995552062988
4203879997.0,-0.9124629497528076,0.2239766865968704,10.10947036743164,2.8935887813568115,-1.3788782358169556,1.217418909072876
4203888330.0,-0.4625452756881714,0.1049090027809143,9.96543788909912,2.9709951877593994,-1.806200385093689,1.217239499092102
4203896663.0,-0.2322286516427993,0.3053030967712402,9.745074272155762,3.040998697280884,-1.1662288904190063,1.1584293842315674
4203904996.0,-0.6415777206420898,0.4453745484352112,9.946980476379396,2.9698421955108643,-0.4121202230453491,1.1063814163208008
4203913329.0,-1.0460277795791626,0.2856499254703522,10.21889305114746,2.8321533203125,-0.9092798233032228,1.1419979333877563
4203921662.0,-0.8388177156448364,-0.0038374280557036,10.055500984191896,2.8789761066436768,-1.6393111944198608,1.2210689783096311
4203929995.0,-0.4330534636974334,0.1465373784303665,9.850502967834473,3.0804190635681152,-1.608176827430725,1.2708758115768433
4203938328.0,-0.4845452010631561,0.5197381973266602,9.945966720581056,3.174628257751465,-0.72323077917099,1.0952390432357788
4203946661.0,-0.8574682474136353,0.5055289268493652,10.116659164428713,2.89358901977539,-0.7619338035583496,1.1071242094039917
4203954994.0,-0.742464005947113,0.1015740409493446,10.027226448059082,2.9689714908599854,-1.5768250226974487,1.2055339813232422
4203963327.0,-0.3319547772407532,0.0441937297582626,9.799141883850098,2.885007858276367,-1.6066912412643433,1.107738733291626
4203971660.0,-0.4238703548908233,0.3815905451774597,9.817883491516112,3.169275283813477,-0.6100671291351318,1.121442437171936
4203979993.0,-0.9082427024841307,0.4774350821971893,10.122332572937012,2.966512680053711,-0.4688557684421539,1.1602225303649902
4203988326.0,-0.9991642832756042,0.2300208359956741,10.189213752746582,3.0186634063720703,-1.394323706626892,1.264216423034668
4203996659.0,-0.570314884185791,0.102091409265995,9.93503475189209,2.8856232166290283,-1.729588508605957,1.3050198554992676
4204004992.0,-0.4242629706859588,0.2918911576271057,9.80542278289795,2.947173833847046,-1.0490437746047974,1.12272310256958
4204013325.0,-0.7823629975318909,0.3998263478279114,10.045133590698242,3.033622026443481,-0.6958491802215576,1.183223843574524
4204021658.0,-0.8973358273506165,0.2284204810857772,10.139439582824709,2.9856975078582764,-1.3035211563110352,1.2358611822128296
4204029991.0,-0.4614231288433075,0.0512645840644836,9.87959098815918,2.9906153678894043,-1.790908932685852,1.2662396430969238
4204038324.0,-0.2305536717176437,0.2548095881938934,9.716487884521484,3.04356050491333,-1.1435859203338623,1.167625069618225
4204046657.0,-0.6245339512825012,0.4186207950115204,9.90220069885254,2.9895145893096924,-0.2627124190330505,1.1099417209625244
4204054990.0,-1.073542594909668,0.2226850688457489,10.132192611694336,2.9552934169769287,-0.8177984356880188,1.11204195022583
4204063323.0,-0.8444173336029053,-0.0679173097014427,10.051468849182127,2.9820351600646973,-1.675491213798523,1.1848633289337158
4204071656.0,-0.4159665703773498,0.1251322627067566,9.839871406555176,3.223602533340454,-1.4905307292938232,1.1916766166687012
4204079989.0,-0.5489001870155334,0.501158595085144,9.900874137878418,3.271091938018799,-0.6268187761306763,1.1979522705078125
4204088322.0,-0.889727771282196,0.4842316210269928,10.144885063171388,3.125782012939453,-0.9848802089691162,1.2301493883132937
4204096655.0,-0.7178963422775269,0.1038088649511337,10.068843841552734,2.9038093090057373,-1.63238263130188,1.182378888130188
4204104988.0,-0.317275196313858,0.0793249383568763,9.759543418884276,2.963029146194458,-1.5744431018829346,1.1221085786819458
4204113321.0,-0.4249252378940582,0.3761321008205414,9.85494613647461,3.14136815071106,-0.717454731464386,1.1474536657333374
4204121654.0,-0.8919626474380493,0.5658310651779175,10.19965934753418,3.008686780929565,-0.5405372381210327,1.1013994216918943
4204129987.0,-0.9772697687149048,0.3162696659564972,10.25553035736084,2.8150298595428467,-1.3687094449996948,1.2255642414093018
4204138320.0,-0.5945451259613037,0.1528408527374267,10.008416175842283,2.9165902137756348,-1.6660906076431274,1.2332741022109983
4204146653.0,-0.4500051736831665,0.329554408788681,9.861201286315918,2.9914867877960205,-0.9875696897506714,1.195237159729004
4204154986.0,-0.8087339997291565,0.4184562563896179,10.06707000732422,2.993919849395752,-0.6485908031463623,1.1251051425933838
4204163319.0,-0.9125092029571532,0.2150232940912246,10.179983139038086,2.8776566982269287,-1.3428646326065063,1.1419594287872314
4204171652.0,-0.4562545418739319,0.0591275207698345,9.968652725219728,2.8736226558685303,-1.856955409049988,1.180598497390747
4204179985.0,-0.2305554151535034,0.2426786571741104,9.785881042480469,2.950849771499634,-1.2106825113296509,1.1304203271865845
4204188318.0,-0.6373927593231201,0.404829204082489,9.943634033203123,2.958725690841675,-0.4874517023563385,1.1945966482162476
4204196651.0,-1.0294827222824097,0.2435000836849212,10.15827465057373,2.8647730350494385,-0.8320655822753906,1.2122704982757568
4204204984.0,-0.8140609264373779,-0.0874659568071365,10.010754585266112,2.9783976078033447,-1.6009283065795898,1.2052522897720337
4204213317.0,-0.4601436257362366,0.1290784478187561,9.84321403503418,3.1883060932159424,-1.429415225982666,1.231250524520874
4204221650.0,-0.5799006819725037,0.5159814953804016,9.960749626159668,3.2175068855285645,-0.8194634914398193,1.1518210172653198
4204229983.0,-0.877108097076416,0.4805426299571991,10.1250638961792,3.107506513595581,-0.7693748474121094,1.1777042150497437
4204238316.0,-0.7453867793083191,0.1151764094829559,10.003558158874512,2.95442271232605,-1.7093018293380735,1.3224629163742063
4204246649.0,-0.3228313326835632,0.0687640309333801,9.74917697906494,3.092918634414673,-1.5267748832702637,1.1967737674713137
4204254982.0,-0.3899122476577759,0.3786748349666595,9.76672649383545,3.0978879928588867,-0.6697226166725159,1.1336349248886108
4204263315.0,-0.8699563145637512,0.5504554510116577,10.095858573913574,3.0226075649261475,-0.5046132206916809,1.1646791696548462
4204271648.0,-0.9507620930671692,0.3078305125236511,10.18403434753418,2.786226749420166,-1.3252805471420288,1.2605661153793335
4204279981.0,-0.5562289357185364,0.1577226966619491,9.889389991760254,2.80674409866333,-1.6431021690368652,1.234721541404724
4204288314.0,-0.4627854824066162,0.3339183330535888,9.79526424407959,3.0136172771453857,-0.9803464412689208,1.1621434688568115
4204296647.0,-0.8170795440673828,0.4485843777656555,10.00252628326416,2.9022462368011475,-0.5790225863456726,1.1579426527023315
4204304980.0,-0.9255091547966005,0.2531960904598236,10.144432067871094,2.664520740509033,-1.3531615734100342,1.1506427526474
4204313313.0,-0.5049324035644531,0.0664403438568115,9.919424057006836,2.8428215980529785,-1.7656790018081665,1.2766392230987549
4204321646.0,-0.2266925275325775,0.2912044525146484,9.747772216796877,2.986030578613281,-1.0801140069961548,1.2415475845336914
4204329979.0,-0.6166089773178101,0.409216046333313,9.899118423461914,2.937081813812256,-0.3548468053340912,1.1569950580596924
4204338312.0,-1.052667498588562,0.2331976741552353,10.184682846069336,2.9203555583953857,-0.6474894285202026,1.1692641973495483
4204346645.0,-0.8273258805274963,-0.0597396790981292,10.04419231414795,2.9202022552490234,-1.651798129081726,1.2352209091186523
4204354978.0,-0.4240105152130127,0.0951642468571662,9.816131591796877,3.200754404067993,-1.5424505472183228,1.0930360555648804
4204363311.0,-0.5197812914848328,0.4813396632671356,9.984580039978027,3.3213212490081787,-0.6476943492889404,1.1175235509872437
4204371644.0,-0.8509174585342407,0.431561529636383,10.156408309936523,3.015307664871216,-0.8420295119285583,1.2383713722229004
4204379977.0,-0.7419792413711548,0.0543377548456192,10.092208862304688,2.8638508319854736,-1.5639411211013794,1.1752578020095823
4204388310.0,-0.3342359960079193,0.0160621833056211,9.797271728515623,3.038924217224121,-1.5510573387145996,1.281044840812683
4204396643.0,-0.412752240896225,0.3434505462646484,9.899224281311035,3.209182024002075,-0.7725126147270203,1.0620943307876587
4204404976.0,-0.8860759139060974,0.4406271278858185,10.140609741210938,3.109132766723633,-0.5786895751953125,1.1444696187973022
4204413309.0,-0.9833700656890868,0.2173425108194351,10.237162590026855,2.9476351737976074,-1.2480409145355225,1.218443512916565
4204421642.0,-0.5428459644317627,0.1265222728252411,9.956430435180664,3.044200897216797,-1.5805392265319824,1.2068402767181396
4204429975.0,-0.4479778110980987,0.2685748040676117,9.869930267333984,3.048964738845825,-0.941515326499939,1.1479276418685913
4204438308.0,-0.8144859671592712,0.3887431621551513,10.07608127593994,3.097273349761963,-0.6325563788414001,1.2417525053024292
4204446641.0,-0.9331189393997192,0.20964315533638,10.19775104522705,2.941256761550904,-1.320042371749878,1.2423672676086426
4204454974.0,-0.487086683511734,0.0826136693358421,9.981500625610352,3.012028455734253,-1.761016845703125,1.2290221452713013
4204463307.0,-0.2428235113620758,0.2598280012607574,9.797253608703612,3.094635009765625,-1.0654112100601196,1.0968271493911743
4204471640.0,-0.6389480233192444,0.4788578450679779,9.969968795776367,3.0399742126464844,-0.5234396457672119,1.129536509513855
4204479973.0,-1.0583364963531494,0.182897001504898,10.089913368225098,2.8800647258758545,-0.8232287764549255,1.1527175903320312
4204488306.0,-0.8251025080680847,-0.0391679778695106,10.048317909240724,3.0857722759246826,-1.674440860748291,1.2304565906524658
4204496639.0,-0.4690964519977569,0.1859159916639328,9.87384033203125,3.1122066974639893,-1.4366897344589231,1.1540237665176392
4204504972.0,-0.5632188320159912,0.524689793586731,10.007401466369627,3.1680970191955566,-0.7593469023704529,1.178716063499451
4204513305.0,-0.8513578176498413,0.4471037983894348,10.101763725280762,3.009134531021118,-0.8431309461593628,1.152025818824768
4204521638.0,-0.7399304509162903,0.140109047293663,10.042644500732422,2.9545891284942627,-1.5505833625793457,1.31696879863739
4204529971.0,-0.3721806704998016,0.0810928642749786,9.790818214416504,2.9831361770629883,-1.5079995393753052,1.1418312788009644
4204538304.0,-0.4353760480880737,0.3963134586811065,9.86957550048828,3.1322624683380127,-0.7755863070487976,1.209196925163269
4204546637.0,-0.8656521439552307,0.5265185236930847,10.125043869018556,3.0002849102020264,-0.538718581199646,1.2117197513580322
4204554970.0,-0.9994242787361144,0.3231492936611175,10.214635848999023,2.979524612426758,-1.33950936794281,1.2504613399505615
4204563303.0,-0.6131548881530762,0.2258045673370361,9.934736251831056,2.9864919185638428,-1.5247259140014648,1.2466193437576294
4204571636.0,-0.5060306191444397,0.3449211716651916,9.85558032989502,2.9596991539001465,-1.0294744968414309,1.1401920318603516
4204579969.0,-0.7631836533546448,0.3691337406635284,10.01022243499756,2.94522762298584,-0.7414937615394592,1.201282024383545
4204588302.0,-0.9142784476280212,0.2440817207098007,10.156764030456545,2.885251760482788,-1.2756913900375366,1.1831856966018677
4204596635.0,-0.5449989438056946,0.2008992284536361,10.00095558166504,2.8148891925811768,-1.8875644207000728,1.1937130689620972
4204604968.0,-0.2707401216030121,0.3863696455955505,9.754539489746094,3.029895544052124,-1.2163689136505127,1.118996262550354
4204613301.0,-0.5644885301589966,0.469046026468277,9.956482887268066,2.9097256660461426,-0.6079923510551453,1.1837875843048096
4204621634.0,-0.918712079524994,0.2752253413200378,10.150774002075195,2.785240888595581,-0.8777357935905457,1.1705961227416992
4204629967.0,-0.8759700655937195,0.0682931691408157,10.047348976135254,2.789825916290283,-1.6386066675186155,1.224334955215454
4204638300.0,-0.5500103235244751,0.2165737301111221,9.88159465789795,3.008481502532959,-1.6091887950897217,1.1818280220031738
4204646633.0,-0.5472452044487,0.5628617405891418,9.944279670715332,3.0284736156463623,-1.0151561498641968,1.0966992378234863
4204654966.0,-0.803469717502594,0.4721773266792297,10.073125839233398,2.7766599655151367,-1.0208425521850586,1.2698514461517334
4204663299.0,-0.7663960456848145,0.1133072450757026,10.0662260055542,2.819896459579468,-1.6522077322006226,1.2040482759475708
4204671632.0,-0.3827671408653259,0.113782525062561,9.751468658447266,2.992690324783325,-1.700464963912964,1.2304822206497192
4204679965.0,-0.429951012134552,0.3268914818763733,9.76609230041504,2.991281270980835,-0.9523244500160216,1.1093780994415283
4204688298.0,-0.7228091359138489,0.4343574941158294,10.09755516052246,2.924812793731689,-0.6462599635124207,1.1625534296035769
4204696631.0,-0.8949205875396729,0.3202186524868011,10.22179126739502,2.6974093914031982,-1.363023042678833,1.1402175426483154
4204704964.0,-0.6386359930038452,0.1311976909637451,10.00749397277832,2.7014055252075195,-1.7253109216690063,1.2776893377304075
4204713297.0,-0.550247311592102,0.2988256216049194,9.890111923217772,2.830219268798828,-1.123069167137146,1.1893714666366575
4204721630.0,-0.8749076128005981,0.4412756562232971,10.1329984664917,2.740671873092652,-1.071840524673462,1.2098628282546997
4204729963.0,-0.8868160247802734,0.1705810129642486,10.08814525604248,2.596771240234375,-1.6571003198623655,1.2882680892944336
4204738296.0,-0.402881771326065,0.0105332760140299,9.787812232971191,2.8317558765411377,-2.030632257461548,1.283682942390442
4204746629.0,-0.1927822232246399,0.3795085549354553,9.813380241394045,3.1159207820892334,-1.1650251150131226,1.18614399433136
4204754962.0,-0.6459749937057495,0.3419150114059448,9.838754653930664,2.826979160308838,-0.4229422807693481,1.168969750404358
4204763295.0,-1.0199848413467407,0.2101788371801376,10.237534523010254,2.827043294906616,-0.9011216163635254,1.1775888204574585
4204771628.0,-0.7899736762046814,-0.0609157904982566,10.06202220916748,2.706362009048462,-1.6329845190048218,1.2535735368728638
4204779961.0,-0.4613882005214691,0.0753982737660408,9.781474113464355,2.97350549697876,-1.266047716140747,1.1765387058258057
4204788294.0,-0.5757874250411987,0.4248107075691223,9.889957427978516,3.1521902084350586,-0.712754487991333,1.1605041027069092
4204796627.0,-0.844952404499054,0.4186822772026062,10.10890769958496,2.969125270843506,-1.0154634714126587,1.171671986579895
4204804960.0,-0.7197892069816589,0.047593105584383,10.033724784851074,2.7773005962371826,-1.6945738792419434,1.2424697875976562
4204813293.0,-0.3821159899234772,-0.0538859218358993,9.718013763427734,3.127882242202759,-1.5348175764083862,1.1496436595916748
4204821626.0,-0.4916631579399109,0.3155285716056824,9.813961029052734,3.2358076572418213,-0.8346654176712036,1.1738619804382324
4204829959.0,-0.85470050573349,0.4293861985206604,10.103575706481934,3.015115737915039,-0.7130746841430664,1.2115662097930908
4204838292.0,-0.8693079352378845,0.17207632958889,10.13734531402588,2.841771364212036,-1.3907121419906616,1.2491294145584106
4204846625.0,-0.5395709872245789,0.1032587438821792,9.954936981201172,2.9940991401672363,-1.4947057962417605,1.180355191230774
4204854958.0,-0.4773801565170288,0.2332367151975631,9.83685302734375,3.07898473739624,-0.9817808866500854,1.1824811697006226
4204863291.0,-0.805118978023529,0.337048590183258,9.990631103515623,3.0065479278564453,-0.7426719665527344,1.169674038887024
4204871624.0,-0.8457044959068298,0.1554177403450012,10.095890045166016,2.973146677017212,-1.3666601181030271,1.2121679782867432
4204879957.0,-0.4674480557441711,0.0259837340563535,9.892647743225098,2.9807286262512207,-1.6276695728302002,1.194494366645813
4204888290.0,-0.2832788825035095,0.2694507241249084,9.811479568481444,3.131340503692627,-1.1889231204986572,1.1552021503448486
4204896623.0,-0.6547191739082336,0.4420219361782074,9.9483060836792,3.2290585041046143,-0.5990272760391235,1.268339991569519
4204904956.0,-1.0071556568145752,0.1778861731290817,10.046940803527832,2.907036542892456,-0.9780154228210448,1.2001806497573853
4204913289.0,-0.7989941239356995,0.0388021953403949,10.041146278381348,3.001706838607788,-1.499290943145752,1.1315345764160156
4204921622.0,-0.4759272933006286,0.2276074290275573,9.892849922180176,3.1977834701538086,-1.3609994649887085,1.2107336521148682
4204929955.0,-0.5729364156723022,0.5369243025779724,10.011555671691896,3.2797110080718994,-0.6216574907302856,1.1582374572753906
4204938288.0,-0.8345433473587036,0.5430485010147095,10.198562622070312,3.0483500957489014,-0.8364456295967102,1.200257420539856
4204946621.0,-0.6921085715293884,0.1761640012264251,10.083338737487791,2.927809715270996,-1.6185252666473389,1.1961593627929688
4204954954.0,-0.3104516267776489,0.0909153372049331,9.757736206054688,2.983738422393799,-1.4913121461868286,1.168944239616394
4204963287.0,-0.4653253257274627,0.3890296816825866,9.869465827941896,3.0868735313415527,-0.5481317639350891,1.124157428741455
4204971620.0,-0.8933743238449097,0.5433599352836609,10.175436973571776,3.08251953125,-0.6842458248138428,1.124746561050415
4204979953.0,-0.919506311416626,0.262980580329895,10.140668869018556,2.816054582595825,-1.3822081089019775,1.1896531581878662
4204988286.0,-0.5713933110237122,0.1919543445110321,9.963107109069824,2.937619686126709,-1.4755719900131226,1.2036128044128418
4204996619.0,-0.5268893241882324,0.3642490804195404,9.87527561187744,3.08000922203064,-1.0127739906311035,1.236194133758545
4205004952.0,-0.8253455758094788,0.4176833927631378,10.055157661437988,2.9856977462768555,-0.771949052810669,1.093061923980713
4205013285.0,-0.8188185691833496,0.2558896243572235,10.16930866241455,2.8447682857513428,-1.2820308208465576,1.0580984354019165
4205021618.0,-0.4298939406871795,0.1971790492534637,9.949457168579102,2.9871575832366943,-1.786759376525879,1.2948250770568848
4205029951.0,-0.2742572426795959,0.4212453961372375,9.782720565795898,3.055137634277344,-0.9526317715644836,1.1893458366394043
4205038284.0,-0.7014905214309692,0.5443807244300842,10.062232971191406,3.014180898666382,-0.5336854457855225,0.9828694462776184
4205046617.0,-1.002286076545715,0.3138617575168609,10.20882511138916,2.9007863998413086,-0.9978921413421632,1.1365548372268677
4205054950.0,-0.814625084400177,0.0783293694257736,10.067734718322754,2.849891424179077,-1.5990071296691897,1.2151137590408323
4205063283.0,-0.5241143107414246,0.3325851261615753,9.92759132385254,2.9554219245910645,-1.3320043087005615,1.0726218223571775
4205071616.0,-0.6530510783195496,0.6445347666740417,10.01521110534668,2.837865114212036,-0.7171985507011414,1.0947139263153076
4205079949.0,-0.8720295429229736,0.5024431347846985,10.19959545135498,2.694899082183838,-1.1227359771728516,1.2478742599487305
4205088282.0,-0.6405106782913208,0.0987002924084663,9.971826553344728,2.5193393230438232,-1.6833548545837402,1.314445734024048
4205096615.0,-0.3541023135185241,0.1569775193929672,9.70297622680664,2.743054151535034,-1.5244697332382202,1.2059694528579712
4205104948.0,-0.4691827893257141,0.5095067024230957,9.920795440673828,2.817155838012696,-0.7521748542785645,1.1349412202835083
4205113281.0,-0.950150191783905,0.4433307349681854,10.128169059753418,2.675586223602295,-0.8443093299865723,1.0235447883605957
4205121614.0,-0.8696759939193726,0.3722616732120514,10.27658748626709,2.5435447692871094,-1.463302731513977,1.2316347360610962
4205129947.0,-0.5606490969657898,0.2054958045482635,9.937495231628418,2.599191665649414,-1.5864943265914917,1.1871557235717771
4205138280.0,-0.5738245248794556,0.3656878173351288,9.873053550720217,2.735113382339477,-0.9757871031761168,1.16603684425354
4205146613.0,-0.8105255365371704,0.3809123933315277,10.04435920715332,2.6913771629333496,-0.9590737223625184,1.0583674907684326
4205154946.0,-0.7289887070655823,0.1677044034004211,10.044048309326172,2.4676499366760254,-1.5892225503921509,1.226204752922058
4205163279.0,-0.3555611371994018,0.1258312761783599,9.906383514404297,2.6872150897979736,-1.6554096937179563,1.1823275089263916
4205171612.0,-0.3339653313159942,0.3346375524997711,9.846901893615724,2.7783632278442383,-0.8757506608963013,1.1536779403686523
4205179945.0,-0.7509064674377441,0.344929039478302,9.98410987854004,2.7176318168640137,-0.5105941295623779,1.1749120950698853
4205188278.0,-0.9063987135887146,0.0768284797668457,10.077682495117188,2.631376028060913,-1.1251181364059448,1.2492319345474243
4205196611.0,-0.6461812853813171,-0.0425450466573238,9.934975624084473,2.679914712905884,-1.562045693397522,1.1225183010101318
4205204944.0,-0.5402482748031616,0.3269112706184387,9.9348783493042,2.921738862991333,-1.0685362815856934,1.029999852180481
4205213277.0,-0.7397098541259766,0.4944461286067962,10.144464492797852,2.79510235786438,-0.7546850442886353,1.081023097038269
4205221610.0,-0.8069053292274475,0.281275987625122,10.155037879943848,2.555763006210327,-1.3390482664108276,1.1599150896072388
4205229943.0,-0.522082507610321,0.0615303628146648,9.943891525268556,2.50635313987732,-1.7846591472625732,1.241291642189026
4205238276.0,-0.3074755072593689,0.0601480789482593,9.674596786499023,2.783396482467652,-1.329852819442749,1.2261022329330444
4205246609.0,-0.6221756339073181,0.3604501485824585,9.929183959960938,3.0039732456207275,-0.6619486212730408,1.1655372381210327
4205254942.0,-0.8307124972343445,0.3129833340644836,10.168206214904783,2.6598715782165527,-0.9578955173492432,1.1362602710723877
4205263275.0,-0.8130530118942261,0.0742435082793235,10.069270133972168,2.6184537410736084,-1.5725091695785522,1.2243733406066897
4205271608.0,-0.5787498354911804,0.0752273276448249,9.825352668762209,2.839299440383911,-1.3651362657546997,1.090666890144348
4205279941.0,-0.6182506084442139,0.2690893113613128,9.89233684539795,2.904052257537842,-0.9318970441818236,1.0437928438186646
4205288274.0,-0.8044159412384033,0.1114430129528045,10.006979942321776,2.871791124343872,-1.0089318752288818,1.1793818473815918
4205296607.0,-0.6781325340270996,-0.0288414917886257,9.991865158081056,2.831474542617798,-1.5715487003326416,1.2165738344192505
4205304940.0,-0.3524363338947296,0.1215900331735611,9.747018814086914,3.007854461669922,-1.497677206993103,1.1544337272644043
4205313273.0,-0.4232926666736603,0.3195188343524933,9.797406196594238,2.996379137039185,-0.8568601608276367,1.226947546005249
4205321606.0,-0.763194739818573,0.1894738674163818,9.977248191833496,2.933239698410034,-0.6840665936470032,1.1957236528396606
4205329939.0,-0.7948315739631653,-0.0430893898010253,9.973150253295898,2.850403308868408,-1.286564588546753,1.2206975221633911
4205338272.0,-0.6145002841949463,-0.0265935510396957,9.826114654541016,3.1462602615356445,-1.4694373607635498,1.1184327602386477
4205346605.0,-0.5918684005737305,0.3558720648288727,9.910327911376951,3.2606537342071533,-0.9925260543823242,1.1211735010147097
4205354938.0,-0.7594376802444458,0.4536451995372772,10.084161758422852,3.0437653064727783,-0.8455899357795715,1.1913180351257324
4205363271.0,-0.7030973434448242,0.1671282947063446,10.01393699645996,3.02581000328064,-1.3225014209747314,1.1552790403366089
4205371604.0,-0.4386208653450012,0.0584310479462146,9.793129920959473,3.203110933303833,-1.586174249649048,1.1953394412994385
4205379937.0,-0.3908312916755676,0.2352605462074279,9.765167236328123,3.164024353027344,-0.9953820705413818,1.2075575590133667
4205388270.0,-0.695692241191864,0.3615428507328033,9.99950122833252,3.106213092803955,-0.697539746761322,1.137938141822815
4205396603.0,-0.8514043092727661,0.2622405588626861,10.170180320739746,3.099809408187866,-1.0114935636520386,1.2467730045318604
4205404936.0,-0.7027639746665955,0.1326789259910583,9.991389274597168,3.071389675140381,-1.464468240737915,1.317429780960083
4205413269.0,-0.57322096824646,0.3098157942295074,9.87983226776123,3.186321258544922,-1.068062424659729,1.2164329290390017
4205421602.0,-0.7158776521682739,0.4421363770961761,9.996200561523438,3.0733110904693604,-0.8161207437515259,1.2105158567428589
4205429935.0,-0.8309832215309143,0.2879937589168548,10.119376182556152,3.0846455097198486,-1.1450716257095337,1.182404398918152
4205438268.0,-0.6177181601524353,0.1683738231658935,10.021535873413086,3.046377658843994,-1.62751567363739,1.21406352519989
4205446601.0,-0.3088774085044861,0.3825865983963012,9.900986671447754,3.172246217727661,-1.2716569900512695,1.2250776290893557
4205454934.0,-0.499540239572525,0.4789571762084961,9.938737869262695,3.043099164962769,-0.7286353707313538,1.0895015001296997
4205463267.0,-0.8892443776130676,0.3884354829788208,10.183393478393556,2.880807399749756,-0.6172134280204773,1.2582992315292358
4205471600.0,-0.9373781681060792,0.1556877195835113,10.18735122680664,2.888056516647339,-1.3602057695388794,1.2759475708007812
4205479933.0,-0.5958899259567261,0.2167155891656875,9.99361801147461,2.8907458782196045,-1.418657302856445,1.1702120304107666
4205488266.0,-0.5370651483535767,0.559295654296875,9.997514724731444,2.862800121307373,-0.9557310938835144,1.1049723625183103
4205496599.0,-0.8145446181297302,0.6332522034645081,10.218600273132324,2.7546958923339844,-0.8560277819633484,1.231903910636902
4205504932.0,-0.8110092878341675,0.3238053619861603,10.1807222366333,2.7207183837890625,-1.4288772344589231,1.101412057876587
4205513265.0,-0.4911500811576843,0.179370567202568,9.947049140930176,2.737316370010376,-1.5264674425125122,1.092190861701965
4205521598.0,-0.4589658677577972,0.4482418596744537,9.998284339904783,2.882241725921631,-0.9151581525802612,1.165652632713318
4205529931.0,-0.8356626033782959,0.5745223164558411,10.175127983093262,2.630889415740967,-0.581942617893219,1.0643996000289917
4205538264.0,-0.9853326678276062,0.4006924927234649,10.278368949890137,2.5324795246124268,-1.2351312637329102,1.170544981956482
4205546597.0,-0.6709467768669128,0.2521491646766662,10.11671543121338,2.6015608310699463,-1.6257739067077637,1.1245930194854736
4205554930.0,-0.519983172416687,0.3967446684837341,9.936356544494627,2.478074789047241,-1.057394027709961,1.0433703660964966
4205563263.0,-0.8288437724113464,0.5193366408348083,10.11875343322754,2.5328123569488525,-0.6829395890235901,1.1071242094039917
4205571596.0,-0.9375375509262084,0.3958505690097809,10.295124053955078,2.40661096572876,-1.270939826965332,1.1196750402450562
4205579929.0,-0.5170975923538208,0.2701371014118194,10.065245628356934,2.1532094478607178,-1.7541779279708862,1.10312819480896
4205588262.0,-0.2315204590559005,0.456485390663147,9.901168823242188,2.3457517623901367,-1.304878830909729,1.0525145530700684
4205596595.0,-0.5866981148719788,0.6535942554473877,10.065312385559082,2.3685996532440186,-0.446571409702301,1.054640531539917
4205604928.0,-1.023406744003296,0.3872832953929901,10.25767993927002,2.0806186199188232,-0.9352653622627258,1.0789228677749634
4205613261.0,-0.8298721313476562,0.1586843878030777,10.107553482055664,2.1435275077819824,-1.6972633600234983,1.162450909614563
4205621594.0,-0.4551053643226623,0.4025631248950958,9.96115016937256,2.2283613681793213,-1.3922488689422607,1.0528475046157837
4205629927.0,-0.5693487524986267,0.6136351227760315,10.015077590942385,2.0686569213867188,-0.7220780849456787,1.003821849822998
4205638260.0,-0.8804025650024414,0.541464626789093,10.232979774475098,1.9653033018112185,-1.0985561609268188,1.1689056158065796
4205646593.0,-0.7194411158561707,0.2502421140670776,10.101080894470217,1.9791606664657595,-1.733917236328125,1.2922124862670898
4205654926.0,-0.3203397095203399,0.199085384607315,9.80269718170166,2.055734634399414,-1.636365532875061,1.2248855829238892
4205663259.0,-0.3953133821487427,0.433706134557724,9.838781356811523,2.118002891540528,-0.7166094779968262,1.1487088203430176
4205671592.0,-0.8191697597503662,0.4732488691806793,10.207798957824709,1.9705286026000977,-0.738240659236908,1.156047224998474
4205679925.0,-0.8801797032356262,0.2411190420389175,10.180060386657717,1.7439452409744265,-1.5399152040481567,1.236066222190857
4205688258.0,-0.5659096240997314,0.2042091488838195,9.904959678649902,1.9982175827026367,-1.5461134910583496,1.189883589744568
4205696591.0,-0.5133602619171143,0.3620538711547851,9.86216640472412,2.0089244842529297,-0.9372121095657348,1.1447259187698364
4205704924.0,-0.8374789953231812,0.3223817944526672,10.111089706420898,1.8749362230300903,-0.7666468620300293,1.124157428741455
4205713257.0,-0.8290759325027466,0.1138872653245925,10.127646446228027,1.9056861400604248,-1.5975855588912964,1.2842849493026731
4205721590.0,-0.3997723758220672,0.1809083968400955,9.866310119628906,1.9697730541229248,-1.8355159759521484,1.2415090799331665
4205729923.0,-0.2793888747692108,0.3183136284351349,9.70629596710205,1.9683644771575928,-1.124080777168274,1.1436628103256226
4205738256.0,-0.6621596217155457,0.2958127856254577,10.007479667663574,1.930353045463562,-0.5953773260116577,1.256698489189148
4205746589.0,-0.9383470416069032,0.0473460219800472,10.12979221343994,1.7967363595962524,-1.280929684638977,1.2568137645721436
4205754922.0,-0.716643750667572,-0.120545357465744,9.914886474609377,1.9970139265060425,-1.6633243560791016,1.1800991296768188
4205763255.0,-0.4931454360485077,0.1706099361181259,9.73935317993164,2.153670310974121,-1.236642360687256,1.2080698013305664
4205771588.0,-0.6633399724960327,0.3570127487182617,9.948813438415527,2.1167221069335938,-1.0261062383651731,1.13848876953125
4205779921.0,-0.801540732383728,0.0962976664304733,10.066954612731934,1.921951413154602,-1.2891900539398191,1.262871503829956
4205788254.0,-0.5601954460144043,-0.1474101692438125,9.848214149475098,2.0641233921051025,-1.646572828292847,1.3284568786621094
4205796587.0,-0.3594773113727569,-0.0130233252421021,9.643102645874023,2.226901769638061,-1.2455307245254517,1.123337984085083
4205804920.0,-0.6189419627189636,0.0914392694830894,9.763456344604492,2.393381357192993,-0.7009590864181519,1.1947119235992432
4205813253.0,-0.8746166229248047,0.0582319572567939,10.023001670837402,2.159651517868042,-1.00243878364563,1.1228384971618652
4205821586.0,-0.7721169590950012,-0.0574226826429367,9.974947929382324,2.290616989135742,-1.654423475265503,1.2625129222869873
4205829919.0,-0.5409732460975647,-0.0942964926362037,9.66808032989502,2.519160032272339,-1.4411722421646118,1.3002554178237915
4205838252.0,-0.6448235511779785,0.0527052208781242,9.753706932067873,2.511193990707397,-0.8298628926277161,1.181840896606445
4205846585.0,-0.8352625966072083,0.0171863064169883,9.948233604431152,2.59944748878479,-1.0378373861312866,1.1489136219024658
4205854918.0,-0.6683002710342407,-0.1932769566774368,9.899530410766602,2.679172277450561,-1.5228047370910645,1.1693923473358154
4205863251.0,-0.3109192252159118,-0.1055799424648284,9.645164489746094,2.735036849975586,-1.4749828577041626,1.2151392698287964
4205871584.0,-0.451479434967041,0.1646363586187362,9.725255966186523,2.7778635025024414,-0.8287869095802307,1.1987204551696775
4205879917.0,-0.8155667185783386,0.0302887521684169,9.922415733337402,2.65212345123291,-0.865594744682312,1.1299207210540771
4205888250.0,-0.8537434935569763,-0.2898004055023193,9.957737922668455,2.7268145084381104,-1.31394624710083,1.165934443473816
4205896583.0,-0.590124249458313,-0.1993285119533538,9.761457443237305,3.0033206939697266,-1.4401733875274658,1.2529715299606323
4205904916.0,-0.5679936408996582,0.08211300522089,9.731855392456056,3.253891706466675,-0.9930895566940308,1.1370288133621216
4205913249.0,-0.7546033263206482,0.2078638225793838,9.991372108459473,3.0922398567199707,-0.8837422728538513,1.217278003692627
4205921582.0,-0.7036503553390503,0.030255876481533,10.045817375183104,3.0408835411071777,-1.3891880512237549,1.2659450769424438
4205929915.0,-0.3981534540653229,-0.17592653632164,9.737164497375488,3.1439425945281982,-1.5492128133773804,1.1499254703521729
4205938248.0,-0.3290967941284179,-0.0103630619123578,9.662124633789062,3.3508288860321045,-0.907653272151947,1.0927801132202148
4205946581.0,-0.682272732257843,0.2529806494712829,9.964069366455078,3.2667369842529297,-0.6062761545181274,1.093599796295166
4205954914.0,-0.8771277070045471,0.1717964261770248,10.141132354736328,3.087744951248169,-1.1241449117660522,1.102257490158081
4205963247.0,-0.6362974643707275,0.015199314802885,10.041332244873049,3.314891815185547,-1.3535714149475098,1.1749505996704102
4205971580.0,-0.4494374990463257,0.2042100131511688,9.854166030883787,3.359537124633789,-1.0578293800354004,1.1769227981567385
4205979913.0,-0.6891132593154907,0.3322933912277221,9.985960006713867,3.290404796600342,-0.7334253191947937,1.125387191772461
4205988246.0,-0.8080822825431824,0.2089099884033203,10.160614013671877,3.186974287033081,-1.1090835332870483,1.2282793521881104
4205996579.0,-0.5410017371177673,0.0854372531175613,9.98983383178711,3.282541036605835,-1.6698559522628784,1.192752480506897
4206004912.0,-0.2464430183172226,0.2369091659784317,9.86326789855957,3.388763189315796,-1.130266547203064,1.133148193359375
4206013245.0,-0.4332213997840881,0.446045309305191,9.90268325805664,3.2893548011779785,-0.625691831111908,1.0950597524642944
4206021578.0,-0.8904585242271423,0.3370538353919983,10.155869483947754,3.02962613105774,-0.7535324096679688,1.1750530004501345
4206029911.0,-0.8676003813743591,0.0423896573483943,10.167236328125,3.131442785263061,-1.346143364906311,1.291521072387695
4206038244.0,-0.5435492396354675,0.073971688747406,9.902117729187012,3.3097686767578125,-1.414405107498169,1.3059159517288208
4206046577.0,-0.5859871506690979,0.4547538757324219,9.980639457702637,3.49160385131836,-0.8262253999710083,1.2193653583526611
4206054910.0,-0.8133167028427124,0.5160772204399109,10.163825988769531,3.261652946472168,-0.8435536623001099,1.176167368888855
4206063243.0,-0.726036548614502,0.2696529924869537,10.130791664123535,3.1759731769561768,-1.6153104305267334,1.2677637338638306
4206071576.0,-0.3588647246360779,0.1316487342119217,9.840271949768066,3.202880382537842,-1.5696786642074585,1.1777936220169067
4206079909.0,-0.3863535821437835,0.3535105288028717,9.79759120941162,3.3219871520996094,-0.7040457129478455,1.0395026206970217
4206088242.0,-0.8450278639793396,0.5104860067367554,10.094159126281738,3.189868688583374,-0.620466411113739,1.124029517173767
4206096575.0,-0.994619369506836,0.3042446374893188,10.248138427734377,3.07124924659729,-1.1771918535232544,1.1723891496658323
4206104908.0,-0.6341122984886169,0.2456086128950119,10.04568862915039,3.0359787940979004,-1.5504425764083862,1.2447494268417358
4206113241.0,-0.5105709433555603,0.4048047661781311,9.87126350402832,3.244081735610962,-0.9387617111206056,1.1302409172058103
4206121574.0,-0.8064871430397034,0.4721331000328064,10.036561965942385,3.084799289703369,-0.7134973406791687,1.090526103973389
4206129907.0,-0.9449304342269896,0.3208616077899933,10.175168991088867,2.93792724609375,-1.1994762420654297,1.106432557106018
4206138240.0,-0.5602574944496155,0.1650008708238601,10.001849174499512,3.0147697925567627,-1.7271549701690674,1.1892433166503906
4206146573.0,-0.2525107860565185,0.3434679508209228,9.774126052856444,3.1551618576049805,-1.3068767786026,1.1134508848190308
4206154906.0,-0.5769267678260803,0.4993760287761688,9.957324028015137,3.0108766555786133,-0.4798186719417572,0.9498783946037292
4206163239.0,-1.0350178480148315,0.3165940344333648,10.18966007232666,2.761060953140259,-0.743133008480072,1.1434451341629028
4206171572.0,-0.8934257626533508,0.0412622056901454,10.040398597717283,2.786137342453003,-1.4563870429992676,1.1487470865249634
4206179905.0,-0.5269830822944641,0.1511707603931427,9.855110168457031,2.9244539737701416,-1.409666657447815,1.0875548124313354
4206188238.0,-0.6035865545272827,0.4552968144416809,9.95116138458252,2.946303129196167,-0.8160823583602905,1.0818684101104736
4206196571.0,-0.8159546256065369,0.3809353113174438,10.119885444641112,2.790056228637696,-0.8904661536216736,1.0789228677749634
4206204904.0,-0.7062837481498718,0.0658796280622482,10.018391609191896,2.6689648628234863,-1.3708226680755615,1.20721173286438
4206213237.0,-0.3813874423503876,0.0746085867285728,9.783710479736328,2.833894729614258,-1.380325436592102,1.1869508028030396
4206221570.0,-0.405322253704071,0.2598735690116882,9.756585121154783,3.019303798675537,-0.933574914932251,1.036736011505127
4206229903.0,-0.8334900140762329,0.2952965795993805,10.037385940551758,2.899531364440918,-0.6245903372764587,1.114372968673706
4206238236.0,-0.928821623325348,0.1886155307292938,10.205184936523438,2.830577850341797,-1.2903810739517212,1.1458271741867063
4206246569.0,-0.6072292923927307,0.0642981901764869,9.939027786254885,2.8719449043273926,-1.5640950202941897,1.2659324407577517
4206254902.0,-0.4790416061878204,0.1549717336893081,9.814947128295898,2.897507905960083,-0.9499422907829284,1.1825580596923828
4206263235.0,-0.7625084519386292,0.3064326643943786,10.034956932067873,2.903245687484741,-0.7548899054527283,1.1580196619033811
4206271568.0,-0.8052676916122437,0.1626033037900924,10.14296054840088,2.8022360801696777,-1.5459474325180054,1.1925092935562134
4206279901.0,-0.4036080241203308,-0.0375603474676609,9.877619743347168,2.9296023845672607,-1.789320707321167,1.2701586484909058
4206288234.0,-0.2244184464216232,0.2325562983751297,9.78851318359375,2.926887035369873,-1.0899239778518677,1.0929850339889526
4206296567.0,-0.6130956411361694,0.3690893948078155,9.99032974243164,2.9496843814849854,-0.5070210099220276,1.2213636636734009
4206304900.0,-0.9386222958564758,0.0777632296085357,10.15382957458496,2.772510290145874,-0.9109830260276794,1.2046630382537842
4206313233.0,-0.7716351747512817,-0.100607618689537,10.02825164794922,2.8110339641571045,-1.5349456071853638,1.1921119689941406
4206321566.0,-0.4747213721275329,0.1486526578664779,9.902702331542969,2.946162462234497,-1.3141895532608032,1.1508347988128662
4206329899.0,-0.5878673791885376,0.3567999899387359,9.99996852874756,3.0134379863739014,-0.7067865133285522,1.0772836208343506
4206338232.0,-0.8220766186714172,0.3024677634239197,10.14096450805664,2.934289932250977,-1.046968936920166,1.195160150527954
4206346565.0,-0.6570028066635132,0.0417311005294323,10.040934562683104,2.7942955493927,-1.599685788154602,1.1140272617340088
4206354898.0,-0.3193809390068054,-0.0424635037779808,9.761953353881836,3.0526280403137207,-1.4630210399627686,1.1291524171829224
4206363231.0,-0.4347451627254486,0.2544536590576172,9.875584602355955,3.106930017471313,-0.6018705368041992,1.0882720947265625
4206371564.0,-0.9176610112190248,0.3882970511913299,10.140713691711426,2.97829532623291,-0.5727470517158508,1.0828417539596558
4206379897.0,-0.9507765173912048,0.0999129936099052,10.154311180114746,2.879603385925293,-1.3256518840789795,1.1379635334014893
4206388230.0,-0.5384113192558289,0.0485668778419494,9.931157112121582,2.874621868133545,-1.591771125793457,1.1267318725585938
4206396563.0,-0.4726371467113495,0.286683052778244,9.885140419006348,3.0960440635681152,-0.9157729744911194,1.1729270219802856
4206404896.0,-0.8607901930809021,0.2958770096302032,10.054996490478516,3.0361580848693848,-0.5991809964179993,1.1731576919555664
4206413229.0,-0.931187868118286,0.1169969663023948,10.131067276000977,2.996378898620605,-1.3128705024719238,1.2066609859466553
4206421562.0,-0.4063166975975036,0.0932561010122299,9.907459259033203,3.0321106910705566,-1.796544075012207,1.1174721717834473
4206429895.0,-0.207232728600502,0.2711591720581054,9.73022747039795,3.058416843414306,-1.0007097721099854,1.002720594406128
4206438228.0,-0.7199866771697998,0.3659430146217346,9.93085479736328,3.031162977218628,-0.3442168831825256,1.102283000946045
4206446561.0,-1.07340407371521,0.1682650744915008,10.142568588256836,2.8870060443878174,-0.9632874131202698,1.0845835208892822
4206454894.0,-0.7938587665557861,-0.031674887984991,10.014039993286133,2.9848523139953613,-1.6931391954421997,1.264088153839111
4206463227.0,-0.4439865350723266,0.1825520098209381,9.863859176635742,3.188690185546875,-1.4170691967010498,1.1906263828277588
4206471560.0,-0.6073989272117615,0.5235632061958313,9.991828918457031,3.0894994735717773,-0.8645060062408447,1.09399676322937
4206479893.0,-0.910892367362976,0.4030878841876983,10.162148475646973,2.917768716812134,-1.011032223701477,1.2566856145858765
4206488226.0,-0.6465674638748169,0.0377423353493213,9.96668529510498,2.9862866401672363,-1.8409078121185305,1.2512553930282593
4206496559.0,-0.2477984875440597,0.0775701105594635,9.745189666748049,3.107698440551758,-1.3764195442199707,1.2225675582885742
4206504892.0,-0.4798505008220672,0.376138687133789,9.875261306762695,2.999529361724853,-0.4995928704738617,1.1985669136047363
4206513225.0,-0.9558203220367432,0.3920598924160003,10.208358764648438,2.916872262954712,-0.6202359199523926,1.231558084487915
4206521558.0,-0.8646202087402344,0.1964558213949203,10.172517776489258,2.9055254459381104,-1.5705753564834597,1.210221529006958
4206529891.0,-0.4668382704257965,0.1447533667087555,9.868565559387209,2.861737966537476,-1.6118015050888062,1.2957345247268677
4206538224.0,-0.4860663115978241,0.3332018852233886,9.87254810333252,3.12392520904541,-0.8337690234184265,1.2287278175354004
4206546557.0,-0.8644440174102783,0.3508771955966949,10.08923053741455,2.997493267059326,-0.6778295040130615,1.1698660850524902
4206554890.0,-0.8575618267059326,0.1292475312948227,10.094465255737305,2.9191009998321533,-1.6062560081481934,1.291623592376709
4206563223.0,-0.3664395809173584,0.1302033215761184,9.868996620178224,3.016895294189453,-1.894876837730408,1.207762360572815
4206571556.0,-0.2239055931568145,0.3693409562110901,9.784393310546877,2.931241989135742,-0.8976892232894897,1.115115761756897
4206579889.0,-0.7784935235977173,0.3751142024993896,10.04310417175293,2.880474805831909,-0.2611243426799774,1.1646794080734253
4206588222.0,-1.052321434020996,0.1127179637551307,10.159892082214355,2.8393380641937256,-1.0834180116653442,1.195621371269226
4206596555.0,-0.6834935545921326,-0.0560338534414768,9.979331016540527,2.9550626277923584,-1.7793309688568115,1.2524333000183103
4206604888.0,-0.371961385011673,0.2171817421913147,9.867366790771484,2.9882595539093018,-1.1106204986572266,1.0856338739395142
4206613221.0,-0.6124595403671265,0.4984340667724609,10.01499843597412,3.032904624938965,-0.6682369709014893,1.106919288635254
4206621554.0,-0.8783068060874939,0.3108032345771789,10.15571117401123,2.97048282623291,-1.1227359771728516,1.1220827102661133
4206629887.0,-0.6034426093101501,-0.0189771223813295,9.907435417175291,2.9251198768615723,-1.6511319875717163,1.1694434881210327
4206638220.0,-0.2944495975971222,0.0803448259830474,9.769634246826172,3.008673667907715,-1.3259592056274414,1.1345568895339966
4206646553.0,-0.5791254043579102,0.3309451639652252,9.893333435058594,3.15897798538208,-0.4281547367572784,1.0402196645736694
4206654886.0,-0.9956639409065248,0.2890456914901733,10.21975040435791,2.8839449882507324,-0.8081547617912292,1.149605393409729
4206663219.0,-0.8377821445465088,0.1264638751745224,10.139901161193848,2.8688840866088867,-1.6377742290496826,1.2416372299194336
4206671552.0,-0.4231403768062591,0.1075287088751792,9.841731071472168,2.959993839263916,-1.4550423622131348,1.2142045497894287
4206679885.0,-0.5415505766868591,0.2724066376686096,9.869750022888184,2.96437406539917,-0.6210172176361084,1.112362265586853
4206688218.0,-0.9182947278022766,0.2533828914165497,10.108654975891112,2.993100166320801,-0.921843409538269,1.1893713474273682
4206696551.0,-0.7754989862442017,0.0474376082420349,10.078872680664062,2.8175277709960938,-1.7413582801818848,1.1955573558807373
4206704884.0,-0.3010351061820984,0.0455942712724208,9.800485610961914,2.8791935443878174,-1.5993655920028689,1.2252824306488037
4206713217.0,-0.3691640794277191,0.3791822493076324,9.83603572845459,3.022274971008301,-0.6084789633750916,1.2226699590682983
4206721550.0,-0.9003329873085022,0.2910650968551636,10.029097557067873,2.837211847305298,-0.4862478375434875,1.1291524171829224
4206729883.0,-1.0060261487960815,0.0002416641218587,10.1560640335083,2.883880853652954,-1.2629482746124268,1.182788610458374
4206738216.0,-0.6094985008239746,-0.0888758301734924,9.91393756866455,2.9539356231689453,-1.8336588144302368,1.2616291046142578
4206746549.0,-0.4337273240089416,0.260227620601654,9.8368501663208,3.1654202938079834,-1.0017985105514526,1.1027569770812988
4206754882.0,-0.7723294496536255,0.418780654668808,10.037086486816406,3.1560070514678955,-0.5993603467941284,1.1692899465560913
4206763215.0,-0.8440825939178467,0.2740191221237182,10.182223320007324,2.9681007862091064,-1.484152913093567,1.2273573875427246
4206771548.0,-0.4317940175533294,-0.0363567657768726,9.841508865356444,2.9562411308288574,-1.828049302101136,1.195185661315918
4206779881.0,-0.2553241848945617,0.1059684157371521,9.716368675231934,3.042330741882324,-1.1209685802459717,1.2083516120910645
4206788214.0,-0.689672589302063,0.3670258820056915,9.975189208984377,3.2540841102600098,-0.4741579294204712,1.1516928672790527
4206796547.0,-1.0134598016738892,0.3312505483627319,10.249285697937012,3.083185911178589,-0.8838064074516296,1.1141425371170044
4206804880.0,-0.7645033597946167,0.0641478598117828,10.039054870605469,2.932189702987671,-1.6346877813339231,1.1888848543167114
4206813213.0,-0.406964510679245,0.2048053592443466,9.884774208068848,2.96651291847229,-1.3293660879135132,1.251895785331726
4206821546.0,-0.5828450918197632,0.3460373878479004,9.872215270996094,3.060516834259033,-0.7173907160758972,1.1380149126052856
4206829879.0,-0.907134771347046,0.3034932613372803,10.10953140258789,3.0494000911712646,-0.8489197492599487,1.1367852687835691
4206838212.0,-0.7050479650497437,0.078666053712368,10.011018753051758,3.0616695880889893,-1.696392297744751,1.193495273590088
4206846545.0,-0.2464308887720108,0.1508191525936126,9.863200187683104,3.1074671745300293,-1.577285885810852,1.1963638067245483
4206854878.0,-0.2950831949710846,0.3384599685668945,9.812305450439451,3.045980930328369,-0.7475002408027649,1.1691490411758425
4206863211.0,-0.8353149890899658,0.3743164241313934,10.086467742919922,2.9065752029418945,-0.5595556497573853,1.13458251953125
4206871544.0,-1.0062109231948853,0.0728891193866729,10.152605056762695,2.872098684310913,-1.226499319076538,1.2464655637741089
4206879877.0,-0.648958683013916,-0.0072567239403724,9.968482971191406,3.0746302604675293,-1.6850451231002808,1.2190070152282717
4206888210.0,-0.4145825803279876,0.2888006865978241,9.85257625579834,3.164959192276001,-1.1182663440704346,1.1399743556976318
4206896543.0,-0.6704224348068237,0.5046566724777222,10.04109001159668,3.109132766723633,-0.6842715740203857,1.2124497890472412
4206904876.0,-0.8729508519172668,0.3021237254142761,10.149779319763184,3.012362241744995,-1.1760904788970947,1.2432894706726074
4206913209.0,-0.5834081172943115,0.054225917905569,9.924175262451172,3.022735595703125,-1.7049987316131592,1.2199547290802002
4206921542.0,-0.3029909431934356,0.1419734507799148,9.725489616394045,3.12752366065979,-1.2845922708511353,1.2105287313461304
4206929875.0,-0.5912935733795166,0.3649135231971741,9.9153413772583,3.0131430625915527,-0.5568790435791016,1.1551122665405271
4206938208.0,-0.9954137802124025,0.3954425454139709,10.215848922729492,2.927450656890869,-0.791415810585022,1.175257921218872
4206946541.0,-0.8759098649024963,0.1632994711399078,10.132144927978516,2.866668701171875,-1.5040552616119385,1.3228217363357544
4206954874.0,-0.45022714138031,0.1466347128152847,9.839872360229492,3.0272438526153564,-1.4789018630981443,1.1892433166503906
