Lat_GNSS,Long_GNSS,Height_GNSS,Acc_X,Acc_Y,Acc_Z,Gyro_X,Gyro_Y,Gyro_Z,Magn_X,Magn_Y,Magn_Z
32.7643211,35.01647,482.74,-0.057,0.0095,0.98975,-0.14,0.1,-0.02,27360.0,-1620.0,-35190.0
32.7643211,35.01647,482.74,-0.04925,-0.007,0.9955,-0.22,-0.5,-0.06,27350.0,-1600.0,-35180.0
32.7643211,35.01647,482.74,-0.0535,0.01075,0.99925,0.22,0.0,0.04,27330.0,-1560.0,-35180.0
32.7643211,35.01647,482.74,-0.0655,0.02625,0.991,0.12,0.54,-0.08,27340.0,-1580.0,-35180.0
32.7643211,35.01647,482.74,-0.06575,-0.0015,0.99225,-0.3,0.04,0.02,27360.0,-1610.0,-35180.0
32.7643211,35.01647,482.74,-0.062,-0.01,1.0,0.02,-0.4,0.04,27360.0,-1620.0,-35190.0
32.7643211,35.01647,482.74,-0.06325,0.024,1.0035,0.36,0.04,-0.02,27380.0,-1660.0,-35190.0
32.7643211,35.01647,482.74,-0.0595,0.03125,0.9905,0.04,0.16,0.06,27400.0,-1700.0,-35180.0
32.7643211,35.01647,482.74,-0.051,0.00075,0.992,-0.38,-0.42,0.04,27420.0,-1710.0,-35180.0
32.7643211,35.01647,482.73,-0.05075,-0.0005,0.99875,0.06,-0.3,0.02,27380.0,-1630.0,-35210.0
32.7643211,35.01647,482.73,-0.0625,0.02675,0.9965,0.26,0.44,-0.02,27360.0,-1620.0,-35220.0
32.7643211,35.01647,482.73,-0.066,0.01925,0.9955,-0.14,0.22,0.02,27360.0,-1620.0,-35220.0
32.7643211,35.01647,482.73,-0.06175,0.00275,1.00075,-0.22,-0.48,-0.04,27350.0,-1630.0,-35210.0
32.7643211,35.01647,482.73,-0.06275,0.01525,1.0045,0.08,0.06,0.04,27360.0,-1650.0,-35200.0
32.7643211,35.01647,482.73,-0.0625,0.025,0.991,0.02,0.28,-0.02,27350.0,-1650.0,-35190.0
32.7643211,35.01647,482.73,-0.0545,0.003,0.9895,-0.34,-0.46,-0.04,27340.0,-1610.0,-35190.0
32.7643211,35.01647,482.73,-0.045,0.0025,1.0045,-0.26,-0.9,0.1,27350.0,-1660.0,-35180.0
32.7643211,35.01647,482.73,-0.059,0.0275,1.00625,0.16,0.08,-0.02,27360.0,-1680.0,-35180.0
32.7643211,35.01647,482.73,-0.06575,0.01775,0.9875,-0.06,0.52,-0.04,27330.0,-1640.0,-35180.0
32.7643211,35.01647,482.73,-0.06375,-0.0085,0.99475,-0.36,-0.36,0.02,27320.0,-1630.0,-35190.0
32.7643211,35.01647,482.73,-0.06175,0.00875,1.00725,0.3,-0.44,0.04,27340.0,-1670.0,-35190.0
32.7643211,35.01647,482.73,-0.06275,0.03775,1.00025,0.36,0.44,-0.06,27340.0,-1680.0,-35200.0
32.7643211,35.01647,482.73,-0.0565,0.018,0.9865,-0.3,-0.04,0.06,27320.0,-1650.0,-35210.0
32.7643211,35.01647,482.73,-0.051,-0.00525,0.99475,-0.34,-0.72,0.02,27300.0,-1620.0,-35210.0
32.7643211,35.01647,482.73,-0.0585,0.01525,1.0015,0.22,0.0,0.1,27290.0,-1570.0,-35210.0
32.7643211,35.01647,482.73,-0.06525,0.02825,0.99525,0.02,0.48,-0.04,27240.0,-1560.0,-35210.0
32.7643211,35.01647,482.73,-0.064,0.0075,0.9945,-0.38,-0.28,0.08,27260.0,-1640.0,-35210.0
32.7643211,35.01647,482.73,-0.06175,0.00625,1.00275,-0.12,-0.48,0.02,27270.0,-1640.0,-35200.0
32.7643211,35.01647,482.73,-0.0635,0.0235,1.00225,0.04,0.14,0.0,27290.0,-1670.0,-35200.0
32.764321,35.01647,482.74,-0.0585,0.013,0.98875,-0.28,-0.02,0.06,27280.0,-1670.0,-35210.0
32.764321,35.01647,482.74,-0.04925,-0.006,0.994,-0.34,-0.68,0.04,27310.0,-1680.0,-35200.0
32.764321,35.01647,482.74,-0.053,0.01375,1.0015,0.1,-0.22,0.06,27330.0,-1710.0,-35200.0
32.764321,35.01647,482.74,-0.06325,0.0265,0.99575,0.02,0.5,0.0,27340.0,-1740.0,-35190.0
32.764321,35.01647,482.74,-0.06575,-0.0025,0.9905,-0.42,-0.1,-0.02,27340.0,-1730.0,-35190.0
32.764321,35.01647,482.74,-0.061,-0.0105,0.9995,-0.08,-0.64,0.08,27310.0,-1690.0,-35190.0
32.764321,35.01647,482.74,-0.06125,0.023,1.006,0.4,-0.04,0.1,27340.0,-1730.0,-35190.0
32.764321,35.01647,482.74,-0.05825,0.02975,0.99175,-0.06,0.18,0.02,27360.0,-1750.0,-35180.0
32.764321,35.01647,482.74,-0.051,-0.003,0.98825,-0.48,-0.52,0.08,27350.0,-1760.0,-35180.0
32.764321,35.01647,482.74,-0.05125,-0.002,0.99925,-0.02,-0.5,0.06,27340.0,-1760.0,-35180.0
32.764321,35.01647,482.74,-0.0615,0.02325,1.00075,0.12,0.3,0.02,27340.0,-1760.0,-35190.0
32.764321,35.01647,482.74,-0.0645,0.017,0.99275,-0.2,0.0,0.04,27330.0,-1750.0,-35180.0
32.764321,35.01647,482.74,-0.0625,0.00025,0.997,-0.42,-0.76,0.06,27330.0,-1760.0,-35180.0
32.764321,35.01647,482.74,-0.0625,0.015,1.0055,0.02,-0.4,0.12,27340.0,-1760.0,-35180.0
32.764321,35.01647,482.74,-0.062,0.02175,0.99525,-0.1,0.0,0.04,27330.0,-1760.0,-35180.0
32.764321,35.01647,482.74,-0.05375,-0.00075,0.98975,-0.48,-0.64,0.08,27340.0,-1750.0,-35190.0
32.764321,35.01647,482.74,-0.04925,0.00175,0.99825,-0.22,-0.96,0.1,27340.0,-1760.0,-35190.0
32.764321,35.01647,482.74,-0.05675,0.0275,1.00325,0.04,-0.16,0.1,27310.0,-1750.0,-35190.0
32.764321,35.01647,482.74,-0.06425,0.0165,0.99275,-0.46,0.02,0.06,27310.0,-1760.0,-35190.0
32.764321,35.01647,482.74,-0.06375,-0.0115,0.994,-0.54,-0.8,0.12,27320.0,-1750.0,-35200.0
32.764321,35.01647,482.74,-0.0625,0.006,1.006,-0.06,-0.96,0.1,27280.0,-1690.0,-35220.0
32.764321,35.01647,482.74,-0.06,0.0365,1.00475,0.08,-0.36,0.08,27300.0,-1670.0,-35210.0
32.764321,35.01647,482.74,-0.054,0.01775,0.9885,-0.5,-0.38,0.08,27310.0,-1690.0,-35200.0
32.764321,35.01647,482.74,-0.05175,-0.00625,0.99125,-0.68,-1.08,0.16,27320.0,-1740.0,-35190.0
32.764321,35.01647,482.74,-0.057,0.01375,1.003,-0.12,-0.78,0.14,27340.0,-1770.0,-35190.0
32.764321,35.01647,482.74,-0.06075,0.02525,0.9985,-0.08,-0.14,0.1,27350.0,-1800.0,-35190.0
32.764321,35.01647,482.74,-0.06225,0.00825,0.9945,-0.4,-0.36,0.1,27340.0,-1810.0,-35180.0
32.764321,35.01647,482.74,-0.06375,0.00725,1.00225,-0.58,-1.02,0.06,27330.0,-1790.0,-35180.0
32.764321,35.01647,482.74,-0.06125,0.02475,1.00275,-0.14,-0.84,0.16,27330.0,-1790.0,-35180.0
32.764321,35.01647,482.74,-0.05225,0.01425,0.99125,-0.44,-0.62,0.14,27330.0,-1780.0,-35190.0
32.764321,35.01647,482.74,-0.049,-0.005,0.99175,-0.66,-0.88,0.12,27320.0,-1760.0,-35200.0
32.764321,35.01647,482.74,-0.05675,0.01375,1.0005,-0.26,-0.98,0.14,27340.0,-1760.0,-35200.0
32.764321,35.01647,482.74,-0.06125,0.028,0.99875,-0.24,-0.54,0.1,27330.0,-1760.0,-35190.0
32.764321,35.01647,482.74,-0.059,-0.00075,0.99275,-0.72,-0.56,0.14,27290.0,-1680.0,-35190.0
32.764321,35.01647,482.74,-0.06075,-0.0125,0.99675,-0.58,-1.02,0.18,27260.0,-1710.0,-35210.0
32.764321,35.01647,482.74,-0.06175,0.01825,1.00275,0.04,-1.08,0.14,27280.0,-1740.0,-35220.0
32.764321,35.01647,482.74,-0.0525,0.02775,0.9965,-0.08,-0.82,0.18,27280.0,-1730.0,-35220.0
32.764321,35.01647,482.74,-0.0495,-0.001,0.98825,-0.86,-1.1,0.16,27290.0,-1720.0,-35220.0
32.764321,35.01647,482.74,-0.055,-0.0065,0.99125,-0.62,-1.44,0.22,27310.0,-1730.0,-35210.0
32.764321,35.01647,482.74,-0.0575,0.01425,0.9965,-0.14,-1.2,0.12,27290.0,-1690.0,-35200.0
32.764321,35.0164701,482.74,-0.05625,0.01825,0.9985,-0.36,-0.88,0.22,27310.0,-1750.0,-35210.0
32.764321,35.0164701,482.74,-0.06,0.002,1.001,-0.74,-1.14,0.24,27310.0,-1750.0,-35220.0
32.764321,35.0164701,482.74,-0.06175,0.01075,1.00025,-0.48,-1.44,0.32,27320.0,-1740.0,-35210.0
32.764321,35.0164701,482.74,-0.05325,0.02025,0.9985,-0.26,-1.5,0.24,27350.0,-1820.0,-35200.0
32.764321,35.0164701,482.74,-0.04225,-0.0005,0.9935,-0.78,-1.46,0.18,27400.0,-1910.0,-35190.0
32.764321,35.0164701,482.74,-0.0465,0.0005,0.997,-0.82,-1.62,0.36,27500.0,-1990.0,-35160.0
32.764321,35.0164701,482.74,-0.05725,0.0225,1.00175,-0.26,-1.48,0.36,27540.0,-2040.0,-35150.0
32.764321,35.0164701,482.74,-0.05775,0.01725,1.00075,-0.32,-1.2,0.38,27560.0,-2090.0,-35140.0
32.764321,35.0164701,482.74,-0.05925,-0.00925,0.9975,-1.1,-1.7,0.48,27570.0,-2090.0,-35130.0
32.764321,35.0164701,482.74,-0.0575,0.0005,1.001,-0.66,-2.02,0.46,27620.0,-2160.0,-35140.0
32.764321,35.0164701,482.74,-0.0505,0.0285,1.006,0.26,-1.22,0.3,27620.0,-2140.0,-35140.0
32.764321,35.0164701,482.74,-0.0425,0.01675,0.99625,-0.12,-0.58,0.34,27510.0,-2020.0,-35150.0
32.764321,35.0164701,482.74,-0.04725,-0.006,0.992,-0.88,-0.84,0.44,27440.0,-1940.0,-35160.0
32.764321,35.0164701,482.74,-0.057,0.0095,0.99725,-0.3,-1.2,0.42,27410.0,-1920.0,-35170.0
32.764321,35.0164701,482.74,-0.05475,0.02225,1.0035,0.36,-0.76,0.46,27400.0,-1890.0,-35170.0
32.764321,35.0164701,482.74,-0.0525,0.007,1.00125,-0.24,-0.48,0.46,27360.0,-1840.0,-35180.0
32.764321,35.0164701,482.74,-0.05825,0.001,0.999,-0.64,-0.64,0.44,27360.0,-1860.0,-35190.0
32.764321,35.0164701,482.74,-0.06075,0.01775,0.99775,0.2,-0.62,0.38,27350.0,-1870.0,-35200.0
32.764321,35.0164701,482.74,-0.046,0.013,0.99525,0.24,-0.58,0.34,27360.0,-1890.0,-35190.0
32.764321,35.0164701,482.74,-0.04125,-0.006,0.99375,-0.68,-0.58,0.26,27360.0,-1880.0,-35190.0
32.764321,35.01647,482.73,-0.04875,0.0085,0.99575,-0.26,-0.54,0.24,27360.0,-1860.0,-35200.0
32.764321,35.01647,482.73,-0.05275,0.02025,0.9915,0.4,0.1,0.16,27340.0,-1850.0,-35200.0
32.764321,35.01647,482.73,-0.0525,0.00025,0.99,-0.14,0.32,0.12,27370.0,-1920.0,-35190.0
32.764321,35.01647,482.73,-0.05875,-0.0095,0.99975,-0.32,-0.12,0.1,27390.0,-1950.0,-35180.0
32.764321,35.01647,482.73,-0.0585,0.02225,1.00475,0.4,-0.28,0.08,27380.0,-1900.0,-35180.0
32.764321,35.01647,482.73,-0.0435,0.02875,0.991,0.3,0.2,0.0,27380.0,-1910.0,-35180.0
32.764321,35.01647,482.73,-0.03925,-0.00175,0.988,-0.52,0.46,0.04,27390.0,-1920.0,-35180.0
32.764321,35.01647,482.73,-0.04675,0.00325,0.999,0.22,0.42,-0.02,27390.0,-1950.0,-35180.0
32.764321,35.01647,482.73,-0.05325,0.03025,1.0035,0.64,0.8,-0.02,27390.0,-1970.0,-35180.0
32.764321,35.01647,482.73,-0.05325,0.0215,1.0,-0.18,0.88,-0.04,27400.0,-1940.0,-35190.0
32.764321,35.01647,482.73,-0.06025,0.00275,1.00525,-0.46,0.3,0.02,27370.0,-1900.0,-35200.0
32.764321,35.01647,482.73,-0.06175,0.0155,1.0065,0.04,-0.1,-0.04,27380.0,-1910.0,-35190.0
32.764321,35.01647,482.73,-0.054,0.0165,0.9945,0.0,0.16,0.0,27380.0,-1950.0,-35190.0
32.764321,35.01647,482.73,-0.0455,-0.007,0.9915,-0.5,0.02,-0.06,27360.0,-1900.0,-35180.0
32.764321,35.01647,482.73,-0.051,-0.002,1.0015,0.02,-0.12,-0.02,27320.0,-1820.0,-35190.0
32.764321,35.01647,482.73,-0.056,0.02125,0.999,0.32,0.36,-0.04,27330.0,-1840.0,-35210.0
32.764321,35.01647,482.73,-0.0565,0.00725,0.99925,-0.38,0.48,-0.12,27340.0,-1890.0,-35220.0
32.764321,35.01647,482.73,-0.057,-0.0065,1.0095,-0.24,-0.06,-0.04,27350.0,-1930.0,-35220.0
32.764321,35.01647,482.73,-0.0595,0.018,1.0135,0.22,-0.18,0.02,27330.0,-1930.0,-35220.0
32.764321,35.01647,482.73,-0.053,0.0355,1.00075,0.06,0.22,-0.02,27350.0,-1910.0,-35220.0
32.7643211,35.0164699,482.73,-0.045,0.011,0.99625,-0.58,-0.08,0.0,27330.0,-1900.0,-35230.0
32.7643211,35.0164699,482.73,-0.048,-0.00075,1.0035,-0.42,-0.48,0.06,27330.0,-1910.0,-35230.0
32.7643211,35.0164699,482.73,-0.05425,0.0175,0.99875,-0.06,-0.14,0.04,27340.0,-1940.0,-35230.0
32.7643211,35.0164699,482.73,-0.05325,0.01625,0.98975,-0.24,0.34,0.04,27330.0,-1920.0,-35210.0
32.7643211,35.0164699,482.73,-0.05725,0.003,1.00425,-0.52,-0.06,0.02,27370.0,-1950.0,-35200.0
32.7643211,35.0164699,482.73,-0.06075,0.01425,1.00875,-0.16,-0.2,0.06,27390.0,-2020.0,-35190.0
32.7643211,35.0164699,482.73,-0.05725,0.02475,0.99375,-0.2,0.06,-0.02,27390.0,-2020.0,-35190.0
32.7643211,35.0164699,482.73,-0.0445,0.0075,0.98825,-0.58,-0.06,0.0,27390.0,-2030.0,-35190.0
32.7643211,35.0164699,482.73,-0.0425,0.0055,0.99975,-0.3,-0.14,0.0,27380.0,-1990.0,-35190.0
32.7643211,35.0164699,482.73,-0.0515,0.025,1.001,0.16,0.62,-0.06,27380.0,-1950.0,-35190.0
32.7643211,35.0164699,482.73,-0.059,0.0175,0.98775,-0.18,1.0,-0.12,27400.0,-1970.0,-35200.0
32.7643211,35.0164699,482.73,-0.0605,-0.00625,0.996,-0.66,0.16,-0.12,27400.0,-1970.0,-35190.0
32.7643211,35.0164699,482.73,-0.06125,0.0025,1.0055,-0.22,-0.66,-0.1,27370.0,-1930.0,-35190.0
32.7643211,35.0164699,482.73,-0.05475,0.02475,0.9975,-0.02,-0.42,-0.14,27360.0,-1950.0,-35190.0
32.7643211,35.0164699,482.73,-0.04425,0.01075,0.985,-0.56,-0.18,-0.1,27380.0,-1960.0,-35190.0
32.7643211,35.0164699,482.73,-0.04475,-0.007,0.99175,-0.66,-0.54,-0.04,27380.0,-1900.0,-35190.0
32.7643211,35.0164699,482.73,-0.05025,0.0065,0.9955,-0.08,-0.32,0.02,27370.0,-1940.0,-35190.0
32.7643211,35.0164699,482.73,-0.0515,0.01675,0.9895,-0.14,0.4,-0.1,27370.0,-1930.0,-35200.0
32.7643211,35.0164699,482.73,-0.05425,0.00325,0.99875,-0.42,0.22,-0.08,27350.0,-1900.0,-35190.0
32.7643211,35.0164699,482.73,-0.0585,0.00325,1.00525,-0.36,-0.38,-0.02,27340.0,-1910.0,-35200.0
32.7643211,35.0164699,482.73,-0.055,0.01275,0.994,-0.1,-0.18,-0.06,27370.0,-1950.0,-35220.0
32.7643211,35.0164699,482.73,-0.045,0.0015,0.987,-0.44,0.0,0.06,27380.0,-1970.0,-35210.0
32.7643211,35.0164699,482.73,-0.04175,-0.01,0.998,-0.48,-0.38,0.06,27380.0,-1940.0,-35200.0
32.7643211,35.0164699,482.73,-0.0475,0.0055,0.99625,-0.14,-0.4,0.06,27370.0,-1930.0,-35200.0
32.7643211,35.0164699,482.73,-0.05125,0.00925,0.98425,-0.16,0.24,0.06,27370.0,-1920.0,-35190.0
32.7643211,35.0164699,482.73,-0.0505,-0.01225,0.99025,-0.44,0.22,0.1,27360.0,-1920.0,-35190.0
32.7643211,35.0164699,482.73,-0.05625,-0.01025,1.009,-0.08,-0.1,-0.04,27380.0,-1950.0,-35190.0
32.7643211,35.0164699,482.73,-0.05625,0.019,1.00475,0.3,0.2,0.0,27370.0,-1920.0,-35200.0
32.7643211,35.0164699,482.73,-0.0485,0.0205,0.99525,-0.18,-0.06,0.08,27330.0,-1850.0,-35190.0
32.7643211,35.0164699,482.73,-0.04475,-0.00525,1.001,-0.86,-1.02,0.08,27350.0,-1890.0,-35200.0
32.7643211,35.0164699,482.73,-0.04825,-0.00025,1.00525,-0.56,-1.48,0.12,27370.0,-1900.0,-35210.0
32.7643211,35.0164699,482.73,-0.0525,0.0225,0.9975,-0.2,-0.78,0.22,27360.0,-1890.0,-35200.0
32.7643211,35.0164699,482.73,-0.05475,0.0095,0.9975,-1.0,-0.92,0.2,27360.0,-1910.0,-35190.0
32.7643211,35.0164699,482.73,-0.05975,-0.00125,1.012,-1.14,-1.62,0.24,27370.0,-1950.0,-35190.0
32.7643211,35.0164699,482.73,-0.06275,0.013,1.008,-0.22,-1.62,0.32,27350.0,-1910.0,-35200.0
32.7643211,35.0164699,482.73,-0.0495,0.01525,0.99675,-0.16,-1.1,0.42,27370.0,-1940.0,-35210.0
32.7643211,35.0164699,482.73,-0.04325,0.00175,1.00075,-0.58,-0.96,0.8,27370.0,-1910.0,-35220.0
32.7643211,35.0164699,482.73,-0.041,0.0025,1.01175,-0.44,-0.92,1.0,27360.0,-1910.0,-35230.0
32.7643211,35.0164699,482.73,-0.053,0.0235,1.00425,0.1,-0.14,0.54,27390.0,-1960.0,-35230.0
32.7643211,35.0164699,482.73,-0.05325,0.00625,0.992,-0.44,0.08,0.52,27410.0,-1990.0,-35240.0
32.7643211,35.0164699,482.73,-0.0605,-0.00925,1.0005,-1.0,-0.16,0.46,27400.0,-1900.0,-35240.0
32.7643211,35.0164699,482.73,-0.063,0.01275,1.00725,-0.14,-0.54,0.14,27360.0,-1870.0,-35240.0
32.7643211,35.0164699,482.73,-0.05325,0.03525,1.012,0.24,-0.12,0.06,27330.0,-1840.0,-35240.0
32.7643211,35.0164699,482.73,-0.04325,0.0125,1.003,-0.94,-0.6,0.16,27330.0,-1840.0,-35220.0
32.7643211,35.0164699,482.73,-0.04625,0.0025,0.9985,-1.22,-0.58,0.1,27350.0,-1840.0,-35210.0
32.7643211,35.0164699,482.73,-0.049,0.02,1.01025,-0.2,-0.42,0.06,27340.0,-1840.0,-35200.0
32.7643211,35.0164699,482.73,-0.04825,0.01825,1.012,-0.34,0.44,0.04,27310.0,-1800.0,-35190.0
32.7643211,35.0164699,482.73,-0.058,0.01225,1.013,-0.94,0.26,0.1,27300.0,-1800.0,-35200.0
32.7643211,35.0164699,482.73,-0.06375,0.01875,1.0075,-0.7,-0.18,0.12,27300.0,-1840.0,-35200.0
32.7643211,35.0164699,482.73,-0.057,0.01475,1.0015,-0.48,-0.36,0.02,27320.0,-1850.0,-35200.0
32.7643211,35.0164699,482.73,-0.04475,-0.00175,1.003,-1.1,-0.42,0.12,27300.0,-1810.0,-35220.0
32.7643211,35.0164699,482.73,-0.047,0.00475,1.003,-0.7,-0.36,0.1,27290.0,-1850.0,-35220.0
32.7643211,35.0164699,482.73,-0.054,0.01875,0.9915,-0.22,0.1,0.04,27310.0,-1860.0,-35210.0
32.7643211,35.0164699,482.73,-0.059,0.00075,0.9925,-0.7,0.24,0.04,27320.0,-1880.0,-35200.0
32.7643211,35.0164699,482.73,-0.06425,-0.0145,1.00125,-0.88,-0.22,0.08,27350.0,-1900.0,-35200.0
32.7643211,35.0164699,482.73,-0.0665,0.00325,0.99575,-0.1,-0.44,0.02,27340.0,-1910.0,-35210.0
32.7643211,35.0164699,482.73,-0.05775,0.01275,0.98675,-0.08,-0.24,0.0,27310.0,-1860.0,-35210.0
32.7643211,35.0164699,482.73,-0.04625,-0.00275,0.98825,-0.66,-0.36,-0.04,27300.0,-1860.0,-35210.0
32.7643211,35.0164699,482.73,-0.04875,-0.0085,0.99125,-0.56,-0.64,-0.02,27290.0,-1860.0,-35200.0
32.7643211,35.0164699,482.73,-0.0535,0.0,0.981,-0.08,-0.3,0.06,27270.0,-1790.0,-35200.0
32.764321,35.0164699,482.74,-0.052,0.00225,0.984,-0.14,0.04,0.0,27240.0,-1800.0,-35230.0
32.764321,35.0164699,482.74,-0.0535,-0.01025,0.99725,-0.54,-0.16,0.04,27240.0,-1830.0,-35230.0
32.764321,35.0164699,482.74,-0.055,-0.00025,0.99,-0.3,-0.48,-0.04,27250.0,-1860.0,-35220.0
32.764321,35.0164699,482.74,-0.053,0.0045,0.98175,-0.22,-0.3,0.08,27290.0,-1920.0,-35210.0
32.764321,35.0164699,482.74,-0.04125,-0.014,0.987,-0.46,-0.52,0.02,27320.0,-1910.0,-35210.0
32.764321,35.0164699,482.74,-0.037,-0.013,0.99475,-0.46,-0.7,0.02,27310.0,-1910.0,-35210.0
32.764321,35.0164699,482.74,-0.04025,0.00575,0.9825,0.0,-0.36,0.12,27320.0,-1960.0,-35210.0
32.764321,35.0164699,482.74,-0.04325,-0.00275,0.98075,-0.24,-0.04,0.04,27310.0,-1980.0,-35210.0
32.764321,35.0164699,482.74,-0.04475,-0.026,0.9925,-0.56,-0.22,0.02,27320.0,-1970.0,-35210.0
32.764321,35.0164699,482.74,-0.04675,-0.017,1.0,-0.04,-0.58,0.0,27270.0,-1920.0,-35210.0
32.764321,35.0164699,482.74,-0.04475,0.00525,0.9895,0.36,-0.24,-0.04,27270.0,-1950.0,-35220.0
32.764321,35.0164699,482.74,-0.032,-0.00425,0.989,-0.18,-0.3,-0.04,27400.0,-2120.0,-35200.0
32.764321,35.0164699,482.74,-0.0305,-0.0195,0.9945,-0.28,-0.66,0.02,27490.0,-2260.0,-35170.0
32.764321,35.0164699,482.74,-0.03325,-0.00925,0.9905,0.26,-0.36,-0.02,27540.0,-2300.0,-35160.0
32.764321,35.0164699,482.74,-0.04,0.00275,0.98875,0.34,0.2,0.02,27570.0,-2310.0,-35150.0
32.764321,35.0164699,482.74,-0.04325,-0.00775,1.00125,-0.02,0.16,-0.04,27600.0,-2390.0,-35150.0
32.764321,35.0164699,482.74,-0.0445,-0.00925,1.0045,0.16,-0.32,-0.04,27610.0,-2400.0,-35160.0
32.764321,35.0164699,482.74,-0.04325,0.01075,0.99575,0.38,-0.12,0.02,27570.0,-2340.0,-35180.0
32.764321,35.0164699,482.74,-0.03725,0.004,0.99225,0.1,0.08,0.08,27450.0,-2220.0,-35200.0
32.764321,35.0164699,482.74,-0.0335,-0.01325,0.9995,0.02,-0.12,0.04,27410.0,-2160.0,-35220.0
32.7643211,35.0164699,482.73,-0.036,0.004,0.99775,0.44,-0.22,0.06,27390.0,-2120.0,-35240.0
32.7643211,35.0164699,482.73,-0.0455,0.02475,0.991,0.5,0.46,0.06,27390.0,-2130.0,-35240.0
32.7643211,35.0164699,482.73,-0.051,0.005,0.9955,-0.14,0.54,0.06,27380.0,-2140.0,-35230.0
32.7643211,35.0164699,482.73,-0.05525,-0.00825,1.00325,-0.04,-0.06,0.06,27330.0,-2090.0,-35220.0
32.7643211,35.0164699,482.73,-0.056,0.01625,1.00125,0.48,0.02,0.0,27300.0,-2010.0,-35200.0
32.7643211,35.0164699,482.73,-0.04975,0.028,0.9935,0.26,0.22,0.02,27290.0,-2010.0,-35210.0
32.7643211,35.0164699,482.73,-0.04575,0.006,0.99525,-0.2,-0.02,0.08,27300.0,-2030.0,-35200.0
32.7643211,35.0164699,482.73,-0.04675,0.0025,0.99925,0.0,-0.26,0.1,27290.0,-1990.0,-35190.0
32.7643211,35.0164699,482.73,-0.054,0.019,0.99275,0.34,0.18,-0.02,27300.0,-2020.0,-35190.0
32.7643211,35.0164699,482.73,-0.05775,0.01175,0.9995,-0.06,0.48,0.04,27310.0,-2020.0,-35200.0
32.7643211,35.0164699,482.73,-0.06175,0.00325,0.9995,-0.1,0.0,0.04,27280.0,-1940.0,-35220.0
32.7643211,35.0164699,482.73,-0.06225,0.01475,1.0035,0.28,-0.24,0.02,27230.0,-1930.0,-35210.0
32.7643211,35.0164699,482.73,-0.05825,0.0225,1.001,0.12,0.02,0.04,27260.0,-1970.0,-35210.0
32.7643211,35.0164699,482.73,-0.04725,0.003,0.99675,-0.24,-0.16,0.06,27260.0,-1930.0,-35200.0
32.7643211,35.0164699,482.73,-0.0465,0.006,0.997,0.0,-0.44,0.08,27260.0,-1940.0,-35200.0
32.7643211,35.0164699,482.73,-0.0515,0.0215,1.00025,0.16,-0.02,0.06,27280.0,-1960.0,-35200.0
32.7643211,35.0164699,482.73,-0.0565,0.0135,0.9935,-0.18,0.44,-0.02,27310.0,-2010.0,-35200.0
32.7643211,35.0164699,482.73,-0.059,-0.01325,0.99475,-0.32,-0.08,-0.04,27300.0,-2020.0,-35210.0
32.7643211,35.0164699,482.73,-0.0575,0.0025,1.0015,0.22,-0.42,0.0,27300.0,-2020.0,-35200.0
32.7643211,35.0164699,482.73,-0.0515,0.02875,1.00275,0.26,0.0,-0.04,27300.0,-2000.0,-35200.0
32.764321,35.0164699,482.73,-0.0425,0.01275,0.99575,-0.3,-0.1,0.0,27240.0,-1940.0,-35220.0
32.764321,35.0164699,482.73,-0.03825,-0.0045,0.994,-0.42,-0.4,0.04,27240.0,-1940.0,-35240.0
32.764321,35.0164699,482.73,-0.042,0.012,0.99875,0.18,-0.3,-0.02,27230.0,-1940.0,-35240.0
32.764321,35.0164699,482.73,-0.04425,0.01075,0.99775,-0.2,0.42,0.0,27210.0,-1900.0,-35230.0
32.764321,35.0164699,482.73,-0.046,-0.008,0.99775,-0.42,0.18,0.04,27230.0,-1940.0,-35220.0
32.764321,35.0164699,482.73,-0.04875,-0.007,1.00025,-0.14,-0.4,0.0,27290.0,-1980.0,-35210.0
32.764321,35.0164699,482.73,-0.04625,0.01,1.00075,0.1,-0.06,0.0,27250.0,-1910.0,-35200.0
32.764321,35.0164699,482.73,-0.038,-0.004,0.99475,-0.32,0.02,0.04,27220.0,-1910.0,-35200.0
32.764321,35.0164699,482.73,-0.03525,-0.01875,0.99425,-0.24,-0.4,0.02,27250.0,-1960.0,-35200.0
32.764321,35.0164699,482.73,-0.03975,0.00075,0.99575,0.3,-0.14,0.08,27250.0,-1940.0,-35200.0
32.764321,35.0164699,482.73,-0.04775,0.01075,0.9955,0.08,0.48,0.1,27260.0,-1970.0,-35220.0
32.764321,35.0164699,482.73,-0.0525,-0.01325,0.99525,-0.16,0.34,-0.02,27300.0,-2020.0,-35210.0
32.764321,35.0164699,482.73,-0.055,-0.0115,0.9975,0.18,-0.28,0.04,27290.0,-2000.0,-35210.0
32.764321,35.0164699,482.73,-0.05325,0.02175,1.0025,0.48,-0.06,0.04,27310.0,-2030.0,-35210.0
32.764321,35.0164699,482.73,-0.0475,0.02275,0.998,0.02,0.18,-0.02,27350.0,-2090.0,-35210.0
32.764321,35.0164699,482.73,-0.04475,-0.0055,0.9925,-0.34,-0.14,0.04,27350.0,-2020.0,-35210.0
32.764321,35.0164699,482.73,-0.04775,0.001,0.9915,0.06,-0.24,-0.02,27330.0,-1980.0,-35210.0
32.764321,35.0164699,482.73,-0.0545,0.0205,0.997,0.2,0.34,-0.04,27330.0,-2010.0,-35220.0
32.764321,35.0164699,482.73,-0.059,0.01,0.99975,-0.2,0.42,-0.02,27360.0,-2040.0,-35230.0
32.764321,35.0164699,482.73,-0.06,-0.00225,1.00175,-0.26,-0.18,-0.04,27350.0,-2080.0,-35240.0
32.7643211,35.0164699,482.73,-0.0585,0.00875,0.99925,0.02,-0.26,-0.02,27370.0,-2050.0,-35250.0
32.7643211,35.0164699,482.73,-0.05125,0.009,0.996,-0.12,0.06,-0.04,27350.0,-2000.0,-35250.0
32.7643211,35.0164699,482.73,-0.043,-0.01175,0.99575,-0.3,-0.28,-0.04,27330.0,-1970.0,-35240.0
32.7643211,35.0164699,482.73,-0.04375,-0.00375,0.99825,0.1,-0.42,-0.06,27340.0,-2000.0,-35230.0
32.7643211,35.0164699,482.73,-0.051,0.016,0.99825,0.18,0.12,-0.02,27360.0,-2030.0,-35220.0
32.7643211,35.0164699,482.73,-0.0545,0.0015,0.9965,-0.16,0.4,-0.04,27360.0,-2020.0,-35220.0
32.7643211,35.0164699,482.73,-0.055,-0.016,1.00075,-0.16,-0.22,-0.04,27370.0,-2040.0,-35210.0
32.7643211,35.0164699,482.73,-0.051,0.00625,1.00325,0.36,-0.46,-0.02,27400.0,-2050.0,-35210.0
32.7643211,35.0164699,482.73,-0.04425,0.02875,1.00075,0.24,0.04,0.0,27370.0,-2050.0,-35210.0
32.7643211,35.0164699,482.73,-0.039,0.00625,0.9955,-0.36,-0.02,0.08,27390.0,-2050.0,-35210.0
32.7643211,35.0164699,482.73,-0.039,-0.00675,0.9955,-0.14,-0.38,0.0,27390.0,-2030.0,-35220.0
32.7643211,35.0164699,482.73,-0.04475,0.01525,0.9975,0.32,-0.1,0.14,27390.0,-2020.0,-35210.0
32.7643211,35.0164699,482.73,-0.0465,0.021,0.99825,0.02,0.48,0.02,27400.0,-2020.0,-35210.0
32.7643211,35.0164699,482.73,-0.0485,0.00075,0.998,-0.36,0.02,0.1,27410.0,-2040.0,-35210.0
32.7643211,35.0164699,482.73,-0.05,0.00275,1.0005,-0.04,-0.32,0.04,27390.0,-2030.0,-35210.0
32.7643211,35.0164699,482.73,-0.0485,0.0165,0.99825,0.12,0.08,0.12,27390.0,-2070.0,-35220.0
32.7643211,35.0164699,482.73,-0.03975,-0.001,0.994,-0.28,0.08,0.06,27410.0,-2120.0,-35220.0
32.7643211,35.0164699,482.73,-0.03575,-0.01075,0.995,-0.26,-0.4,0.04,27390.0,-2090.0,-35220.0
32.7643211,35.0164699,482.73,-0.04,0.00975,0.998,0.24,-0.16,0.04,27410.0,-2130.0,-35220.0
32.7643211,35.0164699,482.73,-0.04675,0.00925,0.99175,-0.08,0.54,-0.02,27410.0,-2120.0,-35220.0
32.7643211,35.0164699,482.73,-0.05225,-0.0175,0.9955,-0.34,0.2,0.04,27380.0,-2070.0,-35230.0
32.7643211,35.0164699,482.73,-0.05475,-0.0125,1.0035,0.2,-0.34,0.0,27360.0,-2080.0,-35230.0
32.7643211,35.0164699,482.73,-0.05325,0.02075,1.00375,0.44,0.0,-0.08,27370.0,-2060.0,-35230.0
32.7643211,35.0164699,482.73,-0.047,0.01375,0.99375,-0.14,0.22,0.02,27360.0,-2060.0,-35220.0
32.7643211,35.0164699,482.73,-0.045,-0.01525,0.99,-0.32,-0.22,0.1,27370.0,-2070.0,-35210.0
32.7643211,35.0164699,482.73,-0.04675,-0.00575,0.9955,0.22,-0.22,0.0,27390.0,-2070.0,-35210.0
32.7643211,35.0164699,482.73,-0.053,0.01725,1.00275,0.32,0.44,-0.02,27400.0,-2080.0,-35210.0
32.7643211,35.0164699,482.73,-0.05675,0.0065,1.00125,-0.14,0.4,-0.06,27370.0,-2030.0,-35200.0
32.7643211,35.0164699,482.73,-0.0575,-0.0065,0.99975,-0.14,-0.32,0.02,27350.0,-2050.0,-35200.0
32.7643211,35.0164699,482.73,-0.057,0.00725,0.99925,0.12,-0.22,0.0,27360.0,-2050.0,-35200.0
32.7643211,35.0164699,482.73,-0.05025,0.0065,0.996,0.02,0.14,0.02,27340.0,-2040.0,-35220.0
32.7643211,35.0164699,482.73,-0.04425,-0.011,0.995,-0.2,-0.16,0.0,27370.0,-2100.0,-35220.0
32.7643211,35.0164699,482.73,-0.0435,0.0005,0.9975,0.2,-0.36,0.04,27380.0,-2150.0,-35210.0
32.7643211,35.0164699,482.73,-0.04925,0.0205,0.999,0.18,0.16,0.06,27350.0,-2090.0,-35220.0
32.7643211,35.0164699,482.73,-0.05275,0.00075,0.9955,-0.24,0.4,0.04,27370.0,-2100.0,-35210.0
32.7643211,35.0164699,482.73,-0.0545,-0.01925,0.99675,-0.14,-0.28,-0.02,27370.0,-2090.0,-35210.0
32.7643211,35.0164699,482.73,-0.05275,0.00975,1.00225,0.46,-0.34,0.02,27370.0,-2100.0,-35210.0
32.7643211,35.0164699,482.73,-0.048,0.034,1.00175,0.38,0.14,0.06,27410.0,-2130.0,-35210.0
32.7643211,35.0164699,482.73,-0.04175,0.00775,0.99375,-0.34,0.04,-0.02,27390.0,-2110.0,-35210.0
32.7643211,35.0164699,482.73,-0.04025,-0.0085,0.99275,-0.16,-0.54,0.0,27330.0,-2030.0,-35220.0
32.7643211,35.0164699,482.73,-0.04475,0.01475,0.99925,0.36,0.0,0.02,27310.0,-2050.0,-35240.0
32.7643211,35.0164699,482.73,-0.047,0.0225,1.00075,0.06,0.48,0.06,27360.0,-2130.0,-35240.0
32.7643211,35.0164699,482.73,-0.051,0.00425,1.0,-0.36,0.02,-0.06,27340.0,-2080.0,-35240.0
32.7643211,35.0164699,482.73,-0.05225,0.00775,0.99975,-0.04,-0.38,0.04,27330.0,-2080.0,-35240.0
32.7643211,35.0164699,482.73,-0.0485,0.0205,0.99675,0.12,0.1,0.0,27350.0,-2100.0,-35240.0
32.7643211,35.0164699,482.73,-0.04025,0.002,0.995,-0.36,0.06,-0.02,27350.0,-2070.0,-35220.0
32.7643211,35.0164699,482.73,-0.038,-0.00825,0.99525,-0.16,-0.36,-0.08,27360.0,-2120.0,-35210.0
32.7643211,35.0164699,482.73,-0.04375,0.016,0.99825,0.28,-0.08,0.0,27360.0,-2140.0,-35210.0
32.7643211,35.0164699,482.73,-0.05025,0.01925,0.99575,-0.08,0.6,0.06,27350.0,-2100.0,-35200.0
32.7643211,35.0164699,482.73,-0.05375,-0.013,0.997,-0.44,0.12,0.04,27380.0,-2170.0,-35200.0
32.7643211,35.0164699,482.73,-0.053,-0.0125,1.0,0.02,-0.42,-0.06,27380.0,-2170.0,-35210.0
32.7643211,35.0164699,482.73,-0.05025,0.0215,1.001,0.4,-0.06,0.02,27370.0,-2130.0,-35200.0
32.7643211,35.0164699,482.73,-0.045,0.0175,0.99475,-0.18,0.3,0.02,27350.0,-2110.0,-35190.0
32.7643211,35.0164699,482.73,-0.04425,-0.01275,0.993,-0.38,-0.2,0.0,27350.0,-2130.0,-35190.0
32.7643211,35.0164699,482.73,-0.04725,-0.00425,0.99675,0.12,-0.24,0.06,27340.0,-2110.0,-35200.0
32.7643211,35.0164699,482.73,-0.05325,0.0165,1.001,0.24,0.34,0.0,27350.0,-2120.0,-35200.0
32.7643211,35.0164699,482.73,-0.0555,0.00275,0.999,-0.3,0.3,0.06,27340.0,-2100.0,-35200.0
32.7643211,35.0164699,482.73,-0.05525,-0.00875,0.99975,-0.18,-0.32,0.06,27370.0,-2120.0,-35200.0
32.7643211,35.0164699,482.73,-0.053,0.0085,0.9995,0.1,-0.28,0.0,27430.0,-2230.0,-35170.0
32.7643211,35.0164699,482.73,-0.04675,0.00875,0.997,-0.08,0.18,0.02,27550.0,-2370.0,-35160.0
32.7643211,35.0164699,482.73,-0.041,-0.0145,0.9955,-0.32,-0.12,-0.04,27610.0,-2420.0,-35170.0
32.7643211,35.0164699,482.73,-0.04125,-0.00625,0.998,0.1,-0.44,-0.02,27590.0,-2330.0,-35160.0
32.7643211,35.0164699,482.73,-0.0495,0.01675,0.999,0.22,0.24,-0.02,27590.0,-2350.0,-35150.0
32.7643211,35.0164699,482.73,-0.05475,0.00075,0.997,-0.2,0.48,0.02,27630.0,-2360.0,-35140.0
32.7643211,35.0164699,482.73,-0.0565,-0.02075,0.99775,-0.22,-0.24,0.0,27550.0,-2270.0,-35160.0
32.7643211,35.0164699,482.73,-0.05075,-0.0005,1.0025,0.4,-0.46,-0.04,27470.0,-2190.0,-35180.0
32.7643211,35.0164699,482.73,-0.04275,0.0245,0.9995,0.36,0.2,-0.02,27440.0,-2160.0,-35180.0
32.7643211,35.0164699,482.73,-0.03925,0.003,0.99275,-0.38,0.06,0.02,27400.0,-2110.0,-35190.0
32.7643211,35.0164699,482.73,-0.04125,-0.01425,0.994,-0.16,-0.42,0.06,27380.0,-2110.0,-35190.0
32.7643211,35.0164699,482.73,-0.0465,0.01075,0.999,0.42,0.06,0.02,27380.0,-2100.0,-35200.0
32.7643211,35.0164699,482.73,-0.04925,0.01625,1.00025,0.06,0.56,-0.02,27360.0,-2020.0,-35210.0
32.7643211,35.0164699,482.73,-0.052,-0.001,0.99625,-0.28,-0.02,0.06,27300.0,-1980.0,-35200.0
32.7643211,35.0164699,482.73,-0.054,0.00275,0.99925,0.06,-0.4,-0.06,27330.0,-2030.0,-35210.0
32.7643211,35.0164699,482.73,-0.04875,0.01875,0.99775,0.22,0.04,0.02,27360.0,-2060.0,-35200.0
32.7643211,35.0164699,482.73,-0.04225,0.0035,0.99575,-0.22,0.12,-0.02,27380.0,-2090.0,-35200.0
32.7643211,35.0164699,482.73,-0.04,-0.00675,0.9945,-0.06,-0.36,0.0,27390.0,-2080.0,-35200.0
32.7643211,35.0164699,482.73,-0.04475,0.01525,0.99925,0.32,-0.1,0.02,27380.0,-2030.0,-35200.0
32.7643211,35.0164699,482.73,-0.05125,0.02,0.99475,0.02,0.56,0.0,27380.0,-2030.0,-35200.0
32.7643211,35.0164699,482.73,-0.0555,-0.0095,0.99775,-0.34,0.2,-0.06,27410.0,-2040.0,-35200.0
32.7643211,35.0164699,482.73,-0.0555,-0.00675,0.99925,0.08,-0.54,-0.02,27410.0,-2060.0,-35210.0
32.7643211,35.0164699,482.73,-0.051,0.026,1.004,0.42,-0.08,0.02,27360.0,-1990.0,-35230.0
32.7643211,35.0164699,482.73,-0.04625,0.0215,0.99625,-0.14,0.34,-0.08,27370.0,-1990.0,-35240.0
32.7643211,35.0164699,482.73,-0.04325,-0.009,0.992,-0.4,-0.28,0.04,27390.0,-2020.0,-35240.0
32.7643211,35.0164699,482.73,-0.0455,0.00075,0.99675,0.08,-0.3,0.02,27400.0,-2040.0,-35240.0
32.7643211,35.0164699,482.73,-0.05025,0.02375,1.002,0.2,0.36,0.0,27400.0,-2040.0,-35250.0
32.7643211,35.0164699,482.73,-0.0535,0.0075,0.99875,-0.34,0.42,0.0,27390.0,-2020.0,-35240.0
32.7643211,35.0164699,482.73,-0.0555,-0.00475,1.00025,-0.32,-0.38,0.0,27390.0,-2040.0,-35230.0
32.7643211,35.0164699,482.73,-0.0535,0.013,1.00075,0.08,-0.24,0.02,27420.0,-2080.0,-35210.0
32.7643211,35.0164699,482.73,-0.04675,0.01325,0.9965,-0.1,0.18,0.02,27410.0,-2070.0,-35210.0
32.7643211,35.0164699,482.73,-0.04125,-0.011,0.994,-0.48,-0.12,0.04,27390.0,-2050.0,-35210.0
32.7643211,35.0164699,482.73,-0.0415,-0.0015,0.997,0.06,-0.38,-0.02,27390.0,-2040.0,-35220.0
32.7643211,35.0164699,482.73,-0.0475,0.019,0.9975,0.2,0.24,-0.02,27380.0,-2050.0,-35210.0
32.7643211,35.0164699,482.73,-0.051,-0.00125,0.99675,-0.36,0.48,0.06,27350.0,-2020.0,-35210.0
32.7643211,35.0164699,482.73,-0.052,-0.02125,0.99825,-0.22,-0.26,-0.06,27380.0,-2030.0,-35210.0
32.7643211,35.0164699,482.73,-0.05,0.00375,1.00175,0.34,-0.32,0.04,27390.0,-2050.0,-35210.0
32.7643211,35.0164699,482.73,-0.0455,0.02525,0.99825,0.18,0.2,0.0,27370.0,-2010.0,-35210.0
32.7643211,35.0164699,482.73,-0.0415,-0.0025,0.99225,-0.44,0.06,-0.04,27390.0,-2040.0,-35210.0
32.7643211,35.0164699,482.73,-0.042,-0.016,0.993,-0.1,-0.42,0.04,27390.0,-2090.0,-35220.0
32.7643211,35.0164699,482.73,-0.04675,0.0095,1.0,0.36,0.04,0.02,27400.0,-2080.0,-35220.0
32.7643211,35.0164699,482.73,-0.0495,0.01525,1.00025,-0.02,0.48,-0.02,27380.0,-2080.0,-35220.0
32.764321,35.0164699,482.73,-0.05225,-0.007,0.9975,-0.32,0.0,0.0,27370.0,-2070.0,-35230.0
32.764321,35.0164699,482.73,-0.0515,-0.0015,0.999,0.04,-0.4,0.1,27370.0,-2020.0,-35220.0
32.764321,35.0164699,482.73,-0.0495,0.016,0.999,0.22,0.04,0.02,27350.0,-2020.0,-35210.0
32.764321,35.0164699,482.73,-0.0435,0.00075,0.99425,-0.18,0.2,0.0,27360.0,-2040.0,-35210.0
32.764321,35.0164699,482.73,-0.04075,-0.01175,0.997,-0.1,-0.3,-0.02,27370.0,-2050.0,-35200.0
32.764321,35.0164699,482.73,-0.04525,0.011,0.99775,0.26,-0.16,-0.02,27390.0,-2080.0,-35200.0
32.764321,35.0164699,482.73,-0.0525,0.0155,0.99625,0.0,0.54,0.0,27390.0,-2110.0,-35210.0
32.764321,35.0164699,482.73,-0.0555,-0.01425,0.99675,-0.32,0.22,0.02,27410.0,-2140.0,-35200.0
32.764321,35.0164699,482.73,-0.054,-0.011,1.00125,0.14,-0.5,0.04,27380.0,-2120.0,-35200.0
32.764321,35.0164699,482.73,-0.05125,0.02375,1.003,0.48,-0.12,0.02,27380.0,-2120.0,-35200.0
32.764321,35.0164699,482.73,-0.0455,0.019,0.99625,-0.08,0.34,0.02,27370.0,-2110.0,-35210.0
32.764321,35.0164699,482.73,-0.0425,-0.01325,0.99175,-0.36,-0.24,0.04,27370.0,-2150.0,-35210.0
32.764321,35.0164699,482.73,-0.0445,-0.003,0.997,0.22,-0.32,0.06,27420.0,-2190.0,-35200.0
32.764321,35.0164699,482.73,-0.05125,0.023,1.0015,0.32,0.4,0.08,27400.0,-2170.0,-35200.0
32.764321,35.0164699,482.73,-0.05425,0.01125,0.99675,-0.12,0.44,-0.06,27370.0,-2120.0,-35200.0
32.764321,35.0164699,482.73,-0.05525,-0.00375,0.99875,-0.14,-0.3,0.06,27380.0,-2170.0,-35210.0
32.764321,35.0164699,482.73,-0.05325,0.01225,1.00075,0.14,-0.32,-0.02,27400.0,-2200.0,-35210.0
32.764321,35.0164699,482.73,-0.047,0.016,0.9965,0.02,0.22,0.04,27380.0,-2150.0,-35210.0
32.764321,35.0164699,482.73,-0.04075,-0.00575,0.99425,-0.24,-0.12,-0.02,27360.0,-2150.0,-35200.0
32.764321,35.0164699,482.73,-0.03925,0.0015,0.9965,0.04,-0.44,0.04,27370.0,-2170.0,-35210.0
32.764321,35.0164699,482.73,-0.0455,0.02425,0.999,0.14,0.22,0.04,27380.0,-2140.0,-35220.0
32.764321,35.0164699,482.73,-0.05,0.00425,0.99525,-0.26,0.54,0.02,27360.0,-2140.0,-35230.0
32.764321,35.0164699,482.73,-0.05275,-0.0185,0.99675,-0.28,-0.2,0.02,27340.0,-2140.0,-35240.0
32.764321,35.0164699,482.73,-0.05225,0.007,1.0035,0.4,-0.38,0.02,27310.0,-2100.0,-35240.0
32.764321,35.0164699,482.73,-0.048,0.0305,1.002,0.18,0.22,-0.02,27350.0,-2130.0,-35240.0
32.764321,35.0164699,482.73,-0.042,0.0025,0.991,-0.46,0.14,-0.02,27370.0,-2170.0,-35230.0
32.764321,35.0164699,482.73,-0.03925,-0.015,0.9915,-0.26,-0.4,0.02,27390.0,-2190.0,-35210.0
32.764321,35.0164699,482.73,-0.044,0.01075,1.0005,0.3,0.04,0.02,27350.0,-2140.0,-35210.0
32.764321,35.0164699,482.73,-0.0485,0.01775,1.00175,0.0,0.58,0.0,27350.0,-2170.0,-35210.0
32.764321,35.0164699,482.73,-0.0535,-0.0045,0.9975,-0.4,0.1,-0.02,27400.0,-2200.0,-35210.0
32.764321,35.0164699,482.73,-0.05375,-0.0025,0.99925,-0.06,-0.36,0.02,27390.0,-2180.0,-35220.0
32.764321,35.0164699,482.73,-0.0515,0.0145,0.9985,0.14,0.06,-0.02,27400.0,-2180.0,-35210.0
32.764321,35.0164699,482.73,-0.04475,0.0005,0.99425,-0.22,0.16,0.0,27390.0,-2190.0,-35200.0
32.764321,35.0164699,482.73,-0.042,-0.01075,0.99475,-0.14,-0.32,-0.02,27380.0,-2190.0,-35190.0
32.764321,35.0164699,482.73,-0.0455,0.01075,0.9985,0.2,-0.06,0.06,27370.0,-2170.0,-35190.0
32.764321,35.0164699,482.73,-0.05075,0.012,0.9985,-0.04,0.52,0.06,27380.0,-2110.0,-35200.0
32.764321,35.0164699,482.73,-0.05375,-0.0155,0.99675,-0.34,0.18,0.0,27340.0,-2100.0,-35200.0
32.764321,35.0164699,482.73,-0.05475,-0.0115,0.99925,0.16,-0.46,-0.02,27370.0,-2160.0,-35200.0
32.764321,35.0164699,482.73,-0.0525,0.02125,1.002,0.42,-0.02,0.02,27400.0,-2210.0,-35200.0
32.764321,35.0164699,482.73,-0.04525,0.0145,0.995,-0.12,0.2,0.0,27400.0,-2200.0,-35200.0
32.764321,35.0164699,482.73,-0.0435,-0.014,0.992,-0.38,-0.34,0.06,27400.0,-2170.0,-35220.0
32.764321,35.0164699,482.73,-0.04625,-0.00125,0.99725,0.24,-0.3,0.04,27370.0,-2110.0,-35220.0
32.764321,35.0164699,482.73,-0.05125,0.0195,1.0025,0.3,0.4,-0.02,27360.0,-2060.0,-35220.0
32.764321,35.0164699,482.73,-0.053,0.0035,0.999,-0.26,0.36,-0.04,27370.0,-2080.0,-35210.0
32.764321,35.0164699,482.73,-0.05225,-0.006,0.9975,-0.08,-0.36,-0.04,27370.0,-2090.0,-35200.0
32.764321,35.0164699,482.73,-0.04975,0.01425,0.9995,0.14,-0.16,0.0,27350.0,-2070.0,-35200.0
32.764321,35.0164699,482.73,-0.0445,0.01325,0.99775,-0.08,0.24,0.04,27360.0,-2070.0,-35200.0
32.764321,35.0164699,482.73,-0.04,-0.0105,0.99525,-0.26,-0.14,0.0,27390.0,-2110.0,-35200.0
32.764321,35.0164699,482.73,-0.0405,0.00075,0.9955,0.12,-0.36,0.0,27390.0,-2120.0,-35200.0
32.764321,35.0164699,482.73,-0.0485,0.02225,0.998,0.24,0.34,0.02,27410.0,-2140.0,-35200.0
32.764321,35.0164699,482.73,-0.05375,0.003,0.996,-0.34,0.5,0.02,27420.0,-2110.0,-35210.0
32.764321,35.0164699,482.73,-0.05425,-0.0165,0.9975,-0.22,-0.3,-0.06,27410.0,-2070.0,-35200.0
32.764321,35.0164699,482.73,-0.04975,0.00925,1.0025,0.4,-0.36,-0.08,27400.0,-2090.0,-35200.0
32.764321,35.0164699,482.73,-0.0435,0.028,1.0,0.22,0.22,0.04,27420.0,-2110.0,-35190.0
32.764321,35.0164699,482.73,-0.039,-0.00025,0.992,-0.42,0.02,0.02,27420.0,-2070.0,-35190.0
32.764321,35.0164699,482.73,-0.042,-0.00975,0.99325,-0.08,-0.36,0.02,27390.0,-2040.0,-35200.0
32.764321,35.0164699,482.73,-0.0495,0.016,1.00075,0.36,0.22,-0.06,27410.0,-2030.0,-35200.0
32.764321,35.0164699,482.73,-0.0525,0.01725,0.9995,0.02,0.54,0.04,27430.0,-2080.0,-35210.0
32.764321,35.0164699,482.73,-0.05475,-0.00275,0.997,-0.34,-0.1,-0.06,27440.0,-2110.0,-35200.0
32.764321,35.0164699,482.73,-0.0535,0.005,1.0005,0.04,-0.34,-0.02,27450.0,-2090.0,-35200.0
32.7643211,35.0164699,482.73,-0.04975,0.01825,1.0005,0.12,0.18,0.0,27420.0,-2040.0,-35220.0
32.7643211,35.0164699,482.73,-0.0425,-0.00075,0.9955,-0.34,0.04,-0.04,27390.0,-2030.0,-35230.0
32.7643211,35.0164699,482.73,-0.03975,-0.00675,0.99575,-0.06,-0.44,0.0,27410.0,-2070.0,-35230.0
32.7643211,35.0164699,482.73,-0.04525,0.0175,0.9975,0.22,0.02,0.0,27400.0,-2060.0,-35230.0
32.7643211,35.0164699,482.73,-0.05125,0.01325,0.99675,-0.12,0.54,0.06,27440.0,-2110.0,-35220.0
32.7643211,35.0164699,482.73,-0.05575,-0.01725,0.9965,-0.4,0.08,0.04,27550.0,-2240.0,-35190.0
32.7643211,35.0164699,482.73,-0.0545,-0.007,1.00125,0.18,-0.46,-0.04,27590.0,-2270.0,-35170.0
32.7643211,35.0164699,482.73,-0.05125,0.02525,1.0035,0.36,-0.02,-0.06,27580.0,-2210.0,-35150.0
32.7643211,35.0164699,482.73,-0.0445,0.01125,0.994,-0.26,0.24,0.02,27560.0,-2220.0,-35150.0
32.7643211,35.0164699,482.73,-0.0415,-0.016,0.991,-0.36,-0.38,0.02,27610.0,-2300.0,-35150.0
32.7643211,35.0164699,482.73,-0.0435,0.0005,0.9965,0.24,-0.16,0.06,27610.0,-2280.0,-35160.0
32.7643211,35.0164699,482.73,-0.04825,0.01825,1.001,0.2,0.46,-0.06,27550.0,-2230.0,-35170.0
32.7643211,35.0164699,482.73,-0.05275,0.00075,1.0,-0.24,0.28,0.02,27510.0,-2210.0,-35180.0
32.7643211,35.0164699,482.73,-0.0545,-0.00525,0.9995,-0.12,-0.44,-0.02,27480.0,-2180.0,-35190.0
32.7643211,35.0164699,482.73,-0.0525,0.01325,0.99925,0.14,-0.12,0.02,27440.0,-2140.0,-35190.0
32.7643211,35.0164699,482.73,-0.04625,0.007,0.99575,-0.12,0.2,-0.02,27430.0,-2100.0,-35200.0
32.7643211,35.0164699,482.73,-0.04025,-0.01225,0.9945,-0.26,-0.22,-0.04,27400.0,-2070.0,-35200.0
32.7643211,35.0164699,482.73,-0.0405,0.005,0.99675,0.22,-0.34,0.02,27370.0,-2070.0,-35200.0
32.7643211,35.0164699,482.73,-0.0475,0.021,0.998,0.08,0.4,-0.04,27370.0,-2090.0,-35200.0
32.7643211,35.0164699,482.73,-0.05225,-0.0065,0.997,-0.42,0.42,-0.02,27390.0,-2040.0,-35200.0
32.7643211,35.0164699,482.73,-0.05325,-0.01925,0.99825,-0.12,-0.36,-0.02,27360.0,-2010.0,-35220.0
32.7643211,35.0164699,482.73,-0.0515,0.01275,1.0015,0.5,-0.28,-0.04,27350.0,-2030.0,-35240.0
32.7643211,35.0164699,482.73,-0.0465,0.02625,0.99775,0.12,0.3,0.0,27350.0,-2040.0,-35250.0
32.7643211,35.0164699,482.73,-0.0425,-0.0055,0.99225,-0.42,-0.04,0.04,27340.0,-2010.0,-35230.0
32.7643211,35.0164699,482.73,-0.0415,-0.01125,0.99425,-0.02,-0.42,0.0,27350.0,-2050.0,-35230.0
32.7643211,35.0164699,482.73,-0.048,0.0155,1.00025,0.4,0.22,0.04,27400.0,-2120.0,-35220.0
32.7643211,35.0164699,482.73,-0.051,0.01375,1.001,-0.04,0.5,-0.02,27380.0,-2090.0,-35210.0
32.7643211,35.0164699,482.73,-0.0535,-0.005,0.99875,-0.24,-0.14,0.02,27380.0,-2130.0,-35210.0
32.7643211,35.0164699,482.73,-0.0515,0.0065,1.0,0.1,-0.42,0.06,27380.0,-2120.0,-35200.0
32.7643211,35.0164699,482.73,-0.04825,0.01775,0.99875,0.14,0.18,0.0,27370.0,-2110.0,-35200.0
32.7643211,35.0164699,482.73,-0.04225,-0.00375,0.99575,-0.3,0.12,0.02,27380.0,-2130.0,-35220.0
32.7643211,35.0164699,482.73,-0.04025,-0.007,0.99775,-0.02,-0.34,-0.04,27410.0,-2190.0,-35220.0
32.7643211,35.0164699,482.73,-0.048,0.02225,0.9985,0.28,0.02,0.0,27370.0,-2110.0,-35220.0
32.7643211,35.0164699,482.73,-0.05525,0.01575,0.99625,-0.12,0.52,0.0,27310.0,-2070.0,-35220.0
32.7643211,35.0164699,482.73,-0.0545,-0.01975,0.99575,-0.4,0.0,-0.04,27360.0,-2100.0,-35210.0
32.7643211,35.0164699,482.73,-0.05075,-0.00575,0.99975,0.22,-0.52,0.0,27380.0,-2150.0,-35200.0
32.7643211,35.0164699,482.73,-0.0495,0.03175,1.00475,0.4,0.12,-0.02,27420.0,-2190.0,-35210.0
32.7643211,35.0164699,482.73,-0.04475,0.01475,0.99375,-0.26,0.28,0.0,27410.0,-2200.0,-35220.0
32.7643211,35.0164699,482.73,-0.042,-0.01275,0.98925,-0.3,-0.34,0.06,27390.0,-2180.0,-35210.0
32.7643211,35.0164699,482.73,-0.04525,0.0,0.99925,0.22,-0.28,0.02,27380.0,-2160.0,-35210.0
32.7643211,35.0164699,482.73,-0.05,0.022,0.999,0.22,0.46,-0.04,27380.0,-2160.0,-35220.0
32.7643211,35.0164699,482.73,-0.05425,0.004,0.99825,-0.32,0.3,0.02,27370.0,-2160.0,-35220.0
32.7643211,35.0164699,482.73,-0.05225,-0.0055,0.99875,-0.22,-0.44,0.04,27330.0,-2110.0,-35220.0
32.7643211,35.0164699,482.73,-0.05,0.0145,1.00225,0.16,-0.18,0.0,27360.0,-2140.0,-35230.0
32.7643211,35.0164699,482.73,-0.0435,0.0105,0.994,-0.1,0.26,0.0,27390.0,-2170.0,-35230.0
32.7643211,35.0164699,482.73,-0.0395,-0.01325,0.99425,-0.34,-0.18,-0.02,27390.0,-2180.0,-35240.0
32.7643211,35.0164699,482.73,-0.0425,0.00275,0.998,0.14,-0.38,0.04,27380.0,-2180.0,-35230.0
32.7643211,35.0164699,482.73,-0.051,0.022,1.002,0.2,0.36,0.04,27370.0,-2150.0,-35220.0
32.7643211,35.0164699,482.73,-0.05425,-0.003,0.99525,-0.32,0.44,-0.02,27370.0,-2160.0,-35200.0
32.7643211,35.0164699,482.73,-0.0505,-0.023,0.9985,-0.22,-0.3,-0.02,27380.0,-2150.0,-35200.0
32.7643211,35.0164699,482.73,-0.049,0.0095,1.003,0.48,-0.24,0.04,27370.0,-2120.0,-35210.0
32.7643211,35.0164699,482.73,-0.04325,0.0275,0.9995,0.2,0.34,-0.04,27360.0,-2090.0,-35210.0
32.7643211,35.0164699,482.73,-0.04175,-0.004,0.99125,-0.5,0.04,0.04,27360.0,-2110.0,-35210.0
32.7643211,35.0164699,482.73,-0.043,-0.014,0.99425,-0.08,-0.4,-0.02,27360.0,-2140.0,-35200.0
32.7643211,35.0164699,482.73,-0.052,0.0105,0.99975,0.34,0.18,0.04,27340.0,-2080.0,-35200.0
32.7643211,35.0164699,482.73,-0.05475,0.01425,0.9995,-0.02,0.56,0.08,27370.0,-2120.0,-35210.0
32.7643211,35.0164699,482.73,-0.05475,-0.006,0.99825,-0.26,-0.1,0.0,27370.0,-2130.0,-35210.0
32.7643211,35.0164699,482.73,-0.05025,0.00375,0.99775,0.08,-0.4,0.06,27350.0,-2110.0,-35220.0
32.7643211,35.0164699,482.73,-0.0455,0.01675,0.999,0.12,0.1,0.04,27410.0,-2170.0,-35210.0
32.7643211,35.0164699,482.73,-0.04025,-0.00375,0.99375,-0.32,0.14,-0.06,27420.0,-2160.0,-35210.0
32.7643211,35.0164699,482.73,-0.0405,-0.01,0.99575,-0.06,-0.4,-0.06,27370.0,-2070.0,-35230.0
32.7643211,35.0164699,482.73,-0.04875,0.01675,0.9985,0.32,0.04,0.06,27370.0,-2060.0,-35230.0
32.7643211,35.0164699,482.73,-0.0555,0.01675,0.9975,0.02,0.62,0.0,27380.0,-2100.0,-35220.0
32.7643211,35.0164699,482.73,-0.057,-0.0155,0.995,-0.42,0.02,0.02,27390.0,-2100.0,-35210.0
32.7643211,35.0164699,482.73,-0.0515,-0.0095,1.0005,0.1,-0.58,0.0,27420.0,-2150.0,-35210.0
32.7643211,35.0164699,482.73,-0.04625,0.02575,1.00375,0.44,-0.02,0.0,27420.0,-2130.0,-35210.0
32.7643211,35.0164699,482.73,-0.04025,0.01775,0.9965,-0.24,0.24,-0.02,27410.0,-2090.0,-35200.0
32.7643211,35.0164699,482.73,-0.04,-0.0125,0.992,-0.4,-0.3,0.0,27400.0,-2100.0,-35200.0
32.7643211,35.0164699,482.73,-0.04525,0.00125,0.99625,0.24,-0.2,0.04,27390.0,-2130.0,-35200.0
32.7643211,35.0164699,482.73,-0.05225,0.02,1.00075,0.26,0.54,0.0,27410.0,-2140.0,-35200.0
32.7643211,35.0164699,482.73,-0.05525,0.005,0.999,-0.3,0.3,0.02,27400.0,-2080.0,-35220.0
32.7643211,35.0164699,482.73,-0.0535,-0.00475,1.00025,-0.14,-0.46,-0.02,27400.0,-2060.0,-35210.0
32.7643211,35.0164699,482.73,-0.0495,0.015,0.99975,0.14,-0.18,0.0,27400.0,-2040.0,-35200.0
32.7643211,35.0164699,482.73,-0.04275,0.0125,0.996,-0.06,0.26,0.02,27380.0,-2040.0,-35200.0
32.7643211,35.0164699,482.73,-0.04025,-0.01225,0.994,-0.32,-0.16,0.0,27410.0,-2080.0,-35200.0
32.7643211,35.0164699,482.73,-0.04225,0.00125,0.99775,0.18,-0.28,0.02,27400.0,-2050.0,-35210.0
32.7643211,35.0164699,482.73,-0.05125,0.0225,0.99825,0.2,0.38,-0.02,27370.0,-2040.0,-35210.0
32.7643211,35.0164699,482.73,-0.0545,0.00225,0.99525,-0.28,0.5,-0.02,27400.0,-2100.0,-35200.0
32.7643211,35.0164699,482.73,-0.0545,-0.01875,0.9995,-0.24,-0.34,0.0,27440.0,-2120.0,-35200.0
32.7643211,35.0164699,482.73,-0.0495,0.00875,1.0015,0.28,-0.36,-0.02,27420.0,-2070.0,-35200.0
32.7643211,35.0164699,482.73,-0.04575,0.02675,0.99875,0.12,0.3,-0.06,27420.0,-2030.0,-35220.0
32.7643211,35.0164699,482.73,-0.043,-0.0005,0.991,-0.38,0.08,0.06,27410.0,-2050.0,-35230.0
32.7643211,35.0164699,482.73,-0.043,-0.013,0.99425,-0.1,-0.46,0.02,27390.0,-2060.0,-35220.0
32.7643211,35.0164699,482.73,-0.04825,0.01375,0.999,0.26,0.1,-0.04,27440.0,-2080.0,-35220.0
32.7643211,35.0164699,482.73,-0.051,0.01575,1.0005,0.02,0.54,-0.02,27410.0,-2060.0,-35230.0
32.7643211,35.0164699,482.73,-0.0535,-0.00725,0.997,-0.28,-0.06,-0.04,27380.0,-2000.0,-35240.0
32.7643211,35.0164699,482.73,-0.05125,-0.00025,1.00025,0.02,-0.52,0.04,27400.0,-2030.0,-35240.0
32.7643211,35.0164699,482.73,-0.05,0.018,1.0,0.18,0.12,0.06,27450.0,-2090.0,-35240.0
32.7643211,35.0164699,482.73,-0.043,-0.001,0.99475,-0.26,0.2,-0.04,27430.0,-2070.0,-35230.0
32.7643211,35.0164699,482.73,-0.04125,-0.01275,0.99425,-0.18,-0.38,0.0,27390.0,-2040.0,-35220.0
32.7643211,35.0164699,482.73,-0.04375,0.01175,0.999,0.26,-0.16,0.02,27380.0,-2050.0,-35220.0
32.7643211,35.0164699,482.73,-0.05025,0.014,0.9985,-0.02,0.64,0.0,27380.0,-2050.0,-35210.0
32.7643211,35.0164699,482.73,-0.0535,-0.0135,0.99725,-0.32,0.18,0.0,27390.0,-2060.0,-35200.0
32.7643211,35.0164699,482.73,-0.05175,-0.01275,1.00175,0.06,-0.46,-0.04,27400.0,-2080.0,-35200.0
32.7643211,35.0164699,482.73,-0.0485,0.02375,1.00075,0.42,-0.1,0.02,27380.0,-2080.0,-35200.0
32.7643211,35.0164699,482.73,-0.043,0.0175,0.9955,-0.18,0.32,-0.02,27390.0,-2090.0,-35210.0
32.7643211,35.0164699,482.73,-0.043,-0.01425,0.991,-0.4,-0.22,0.02,27420.0,-2110.0,-35210.0
32.7643211,35.0164699,482.73,-0.04575,-0.0025,0.9965,0.24,-0.28,0.02,27420.0,-2120.0,-35210.0
32.7643211,35.0164699,482.73,-0.05325,0.0215,1.00125,0.28,0.52,0.02,27380.0,-2060.0,-35200.0
32.7643211,35.0164699,482.73,-0.05475,0.00925,0.99975,-0.2,0.36,-0.02,27390.0,-2050.0,-35200.0
32.7643211,35.0164699,482.72,-0.0525,-0.0075,0.999,-0.22,-0.46,0.02,27400.0,-2100.0,-35220.0
32.7643211,35.0164699,482.72,-0.04725,0.012,0.997,0.22,-0.3,0.0,27430.0,-2130.0,-35210.0
32.7643211,35.0164699,482.72,-0.04375,0.015,0.996,0.06,0.34,-0.04,27450.0,-2150.0,-35210.0
32.7643211,35.0164699,482.72,-0.04125,-0.008,0.995,-0.22,-0.02,0.0,27420.0,-2140.0,-35200.0
32.7643211,35.0164699,482.72,-0.04325,-0.00225,0.99775,0.04,-0.46,0.0,27390.0,-2120.0,-35200.0
32.7643211,35.0164699,482.72,-0.051,0.0215,0.9985,0.26,0.22,-0.04,27380.0,-2120.0,-35200.0
32.7643211,35.0164699,482.72,-0.05375,0.00625,0.99525,-0.2,0.54,0.06,27370.0,-2110.0,-35190.0
32.7643211,35.0164699,482.72,-0.0535,-0.01925,0.9975,-0.24,-0.2,-0.02,27330.0,-2020.0,-35200.0
32.7643211,35.0164699,482.72,-0.0475,0.0045,1.0035,0.32,-0.48,-0.04,27300.0,-2010.0,-35190.0
32.7643211,35.0164699,482.72,-0.0445,0.03175,1.002,0.26,0.16,0.04,27360.0,-2110.0,-35200.0
32.7643211,35.0164699,482.72,-0.04025,0.004,0.99325,-0.38,0.24,0.0,27390.0,-2140.0,-35210.0
32.7643211,35.0164699,482.72,-0.042,-0.016,0.994,-0.26,-0.42,-0.06,27500.0,-2240.0,-35180.0
32.7643211,35.0164699,482.72,-0.048,0.0085,0.99925,0.32,0.02,-0.02,27570.0,-2310.0,-35170.0
32.7643211,35.0164699,482.72,-0.05325,0.02125,0.99925,0.18,0.72,0.06,27600.0,-2320.0,-35160.0
32.7643211,35.0164699,482.72,-0.056,0.0005,0.9975,-0.38,0.06,0.02,27630.0,-2400.0,-35150.0
32.7643211,35.0164699,482.72,-0.0525,-0.003,1.0,-0.12,-0.5,0.08,27640.0,-2430.0,-35150.0
32.7643211,35.0164699,482.72,-0.04975,0.01725,0.9995,0.22,0.04,0.0,27620.0,-2410.0,-35150.0
32.7643211,35.0164699,482.72,-0.04225,0.0045,0.99425,-0.14,0.24,0.0,27590.0,-2370.0,-35150.0
32.7643211,35.0164699,482.72,-0.04075,-0.0115,0.9945,-0.3,-0.3,0.0,27500.0,-2280.0,-35170.0
32.7643211,35.0164699,482.72,-0.044,0.0095,0.99875,0.2,-0.24,0.02,27480.0,-2250.0,-35190.0
32.7643211,35.0164699,482.73,-0.05125,0.01975,0.9985,0.12,0.54,0.0,27450.0,-2220.0,-35210.0
32.7643211,35.0164699,482.73,-0.0555,-0.00925,0.996,-0.34,0.3,0.02,27430.0,-2200.0,-35230.0
32.7643211,35.0164699,482.73,-0.05275,-0.018,0.99925,0.06,-0.54,-0.04,27380.0,-2150.0,-35230.0
32.7643211,35.0164699,482.73,-0.05,0.01825,1.003,0.44,-0.2,-0.02,27350.0,-2120.0,-35220.0
32.7643211,35.0164699,482.73,-0.0435,0.02275,0.9965,0.02,0.34,0.06,27390.0,-2190.0,-35220.0
32.7643211,35.0164699,482.73,-0.04175,-0.011,0.99125,-0.46,-0.14,0.02,27420.0,-2220.0,-35230.0
32.7643211,35.0164699,482.73,-0.042,-0.01075,0.99575,0.08,-0.42,-0.02,27390.0,-2170.0,-35230.0
32.7643211,35.0164699,482.73,-0.04925,0.01675,1.0015,0.4,0.36,0.02,27380.0,-2150.0,-35230.0
32.7643211,35.0164699,482.73,-0.0525,0.011,1.00025,-0.16,0.52,0.02,27380.0,-2140.0,-35220.0
32.7643211,35.0164699,482.73,-0.0535,-0.00875,0.9975,-0.34,-0.3,0.0,27350.0,-2090.0,-35210.0
32.7643211,35.0164699,482.73,-0.05025,0.00725,0.999,0.18,-0.4,0.0,27370.0,-2110.0,-35220.0
32.7643211,35.0164699,482.73,-0.046,0.0155,0.99775,0.04,0.24,0.04,27380.0,-2150.0,-35210.0
32.7643211,35.0164699,482.73,-0.04125,-0.00675,0.99325,-0.26,0.02,-0.06,27350.0,-2110.0,-35210.0
32.7643211,35.0164699,482.73,-0.04025,-0.00675,0.996,0.04,-0.42,-0.04,27340.0,-2120.0,-35200.0
32.7643211,35.0164699,482.73,-0.047,0.0195,0.99925,0.26,0.1,-0.04,27360.0,-2150.0,-35200.0
32.7643211,35.0164699,482.73,-0.05225,0.01175,0.997,-0.22,0.58,0.06,27360.0,-2130.0,-35200.0
32.7643211,35.0164699,482.73,-0.054,-0.01725,0.9975,-0.34,-0.04,-0.04,27350.0,-2140.0,-35210.0
32.7643211,35.0164699,482.73,-0.05,-0.0025,1.001,0.22,-0.54,-0.06,27360.0,-2120.0,-35210.0
32.7643211,35.0164699,482.73,-0.047,0.02975,1.00225,0.34,0.12,-0.04,27360.0,-2100.0,-35210.0
32.7643211,35.0164699,482.73,-0.04275,0.01175,0.9955,-0.3,0.3,-0.02,27390.0,-2130.0,-35200.0
32.7643211,35.0164699,482.72,-0.042,-0.01675,0.99325,-0.34,-0.34,0.06,27390.0,-2110.0,-35220.0
32.7643211,35.0164699,482.72,-0.04625,0.004,0.99825,0.32,-0.12,-0.02,27370.0,-2080.0,-35210.0
32.7643211,35.0164699,482.72,-0.052,0.02025,1.002,0.24,0.6,0.08,27390.0,-2120.0,-35200.0
32.7643211,35.0164699,482.72,-0.054,0.00075,0.9975,-0.34,0.24,0.02,27410.0,-2170.0,-35200.0
32.7643211,35.0164699,482.72,-0.0535,-0.006,0.9995,-0.12,-0.44,0.02,27420.0,-2170.0,-35200.0
32.7643211,35.0164699,482.72,-0.05125,0.01425,0.9995,0.24,-0.04,0.0,27380.0,-2110.0,-35200.0
32.7643211,35.0164699,482.72,-0.04475,0.00825,0.995,-0.08,0.34,0.02,27360.0,-2090.0,-35200.0
32.7643211,35.0164699,482.72,-0.042,-0.0125,0.9935,-0.26,-0.24,-0.02,27370.0,-2110.0,-35210.0
32.7643211,35.0164699,482.72,-0.043,0.006,0.99675,0.2,-0.36,0.08,27370.0,-2130.0,-35200.0
32.7643211,35.0164699,482.72,-0.05,0.02275,0.99925,0.16,0.42,0.04,27370.0,-2080.0,-35200.0
32.7643211,35.0164699,482.72,-0.05425,-0.00325,0.9965,-0.26,0.44,0.02,27370.0,-2050.0,-35210.0
32.7643211,35.0164699,482.72,-0.05325,-0.0165,0.99925,-0.06,-0.46,0.0,27360.0,-2050.0,-35210.0
32.7643211,35.0164699,482.72,-0.049,0.01725,1.0015,0.44,-0.3,0.02,27400.0,-2110.0,-35200.0
32.7643211,35.0164699,482.72,-0.044,0.0305,0.9985,0.08,0.3,-0.04,27430.0,-2160.0,-35200.0
32.7643211,35.0164699,482.72,-0.04225,-0.00325,0.99025,-0.48,-0.04,0.06,27400.0,-2090.0,-35200.0
32.7643211,35.0164699,482.72,-0.0435,-0.0105,0.99525,-0.06,-0.44,-0.02,27380.0,-2070.0,-35210.0
32.7643211,35.0164699,482.72,-0.051,0.0165,1.00075,0.28,0.28,0.04,27400.0,-2110.0,-35220.0
32.7643211,35.0164699,482.72,-0.0525,0.015,1.00175,-0.06,0.5,-0.04,27410.0,-2150.0,-35220.0
32.7643211,35.0164699,482.72,-0.05275,-0.00475,0.998,-0.28,-0.22,0.0,27440.0,-2170.0,-35210.0
32.7643211,35.0164699,482.72,-0.0485,0.00375,0.999,-0.04,-0.48,0.06,27440.0,-2130.0,-35210.0
32.7643211,35.0164699,482.72,-0.0455,0.01325,0.997,0.1,0.2,-0.02,27410.0,-2080.0,-35230.0
32.7643211,35.0164699,482.72,-0.04075,-0.0065,0.996,-0.28,0.12,0.02,27410.0,-2050.0,-35230.0
32.7643211,35.0164699,482.72,-0.0395,-0.0105,0.99725,-0.04,-0.38,0.04,27400.0,-2070.0,-35220.0
32.7643211,35.0164699,482.72,-0.04675,0.017,0.999,0.28,0.08,-0.02,27390.0,-2050.0,-35210.0
32.7643211,35.0164699,482.72,-0.0525,0.01025,0.99675,-0.08,0.56,0.04,27370.0,-2050.0,-35210.0
32.7643211,35.0164699,482.72,-0.0545,-0.02125,0.99425,-0.38,0.0,0.02,27380.0,-2060.0,-35220.0
32.7643211,35.0164699,482.72,-0.05125,-0.00875,1.00025,0.22,-0.52,-0.06,27390.0,-2080.0,-35230.0
32.7643211,35.0164699,482.72,-0.04875,0.02775,1.00475,0.5,0.12,0.04,27400.0,-2090.0,-35240.0
32.7643211,35.0164699,482.72,-0.042,0.0135,0.9955,-0.26,0.28,-0.06,27380.0,-2070.0,-35240.0
32.7643211,35.0164699,482.72,-0.041,-0.01675,0.99,-0.3,-0.32,0.04,27370.0,-2040.0,-35240.0
32.7643211,35.0164699,482.72,-0.044,0.0005,0.997,0.26,-0.2,-0.06,27380.0,-2030.0,-35250.0
32.7643211,35.0164699,482.72,-0.0515,0.02125,1.00175,0.26,0.52,0.02,27390.0,-2070.0,-35230.0
32.7643211,35.0164699,482.72,-0.05525,0.00375,0.9975,-0.26,0.3,-0.04,27400.0,-2090.0,-35210.0
32.7643211,35.0164699,482.72,-0.05575,-0.00425,0.99925,-0.14,-0.38,0.0,27390.0,-2090.0,-35210.0
32.7643211,35.0164699,482.72,-0.0525,0.0155,1.0005,0.18,-0.2,0.0,27430.0,-2140.0,-35200.0
32.7643211,35.0164699,482.72,-0.0455,0.0085,0.996,-0.14,0.2,0.0,27460.0,-2170.0,-35210.0
32.7643211,35.0164699,482.72,-0.03975,-0.01325,0.993,-0.24,-0.22,-0.04,27430.0,-2150.0,-35210.0
32.7643211,35.0164699,482.72,-0.0405,0.005,0.9975,0.26,-0.3,0.02,27440.0,-2160.0,-35210.0
32.7643211,35.0164699,482.72,-0.04875,0.02475,1.00075,0.2,0.46,-0.02,27420.0,-2140.0,-35200.0
32.7643211,35.0164699,482.72,-0.054,-0.004,0.99625,-0.36,0.4,0.0,27390.0,-2080.0,-35200.0
32.7643211,35.0164699,482.72,-0.05375,-0.0195,0.998,-0.06,-0.4,-0.02,27390.0,-2090.0,-35220.0
32.7643211,35.0164699,482.72,-0.05025,0.01225,1.00275,0.5,-0.26,-0.06,27370.0,-2070.0,-35230.0
32.7643211,35.0164699,482.72,-0.04525,0.02625,0.99925,0.1,0.34,-0.04,27380.0,-2050.0,-35210.0
32.7643211,35.0164699,482.72,-0.0425,-0.002,0.9915,-0.42,-0.06,0.04,27380.0,-2080.0,-35210.0
32.7643211,35.0164699,482.72,-0.04225,-0.00975,0.9935,-0.04,-0.4,-0.04,27410.0,-2100.0,-35210.0
32.7643211,35.0164699,482.72,-0.04775,0.0135,1.00075,0.42,0.22,0.02,27410.0,-2110.0,-35200.0
32.7643211,35.0164699,482.72,-0.051,0.0115,1.00075,-0.02,0.52,0.04,27410.0,-2140.0,-35200.0
32.7643211,35.0164699,482.72,-0.0525,-0.0035,0.9985,-0.18,-0.22,0.04,27420.0,-2140.0,-35200.0
32.7643211,35.0164699,482.72,-0.05125,0.009,0.99925,0.08,-0.38,0.06,27380.0,-2100.0,-35200.0
32.7643211,35.0164699,482.72,-0.04825,0.01675,0.99825,0.1,0.26,0.04,27380.0,-2140.0,-35210.0
32.7643211,35.0164699,482.72,-0.042,-0.00575,0.99575,-0.38,0.08,0.0,27410.0,-2170.0,-35210.0
32.7643211,35.0164699,482.72,-0.04,-0.006,0.99575,0.04,-0.48,0.06,27420.0,-2180.0,-35200.0
32.7643211,35.0164699,482.72,-0.04675,0.0205,1.0,0.28,0.06,0.0,27410.0,-2160.0,-35200.0
32.7643211,35.0164699,482.72,-0.05375,0.01225,0.99725,-0.14,0.6,0.0,27420.0,-2130.0,-35200.0
32.7643211,35.0164699,482.72,-0.054,-0.02025,0.99425,-0.36,0.0,0.0,27410.0,-2100.0,-35200.0
32.7643211,35.0164699,482.72,-0.05025,-0.006,1.0,0.28,-0.5,0.04,27390.0,-2120.0,-35200.0
32.7643211,35.0164699,482.72,-0.049,0.031,1.0045,0.36,0.1,-0.06,27400.0,-2160.0,-35210.0
32.7643211,35.0164699,482.72,-0.045,0.011,0.99675,-0.34,0.24,0.02,27400.0,-2130.0,-35200.0
32.7643211,35.0164699,482.72,-0.042,-0.0165,0.9885,-0.3,-0.34,0.0,27360.0,-2120.0,-35200.0
32.7643211,35.0164699,482.72,-0.0435,0.00325,0.9985,0.24,-0.1,0.0,27410.0,-2200.0,-35200.0
32.7643211,35.0164699,482.72,-0.04875,0.01725,1.00125,0.12,0.52,0.0,27430.0,-2220.0,-35220.0
32.7643211,35.0164699,482.72,-0.05325,0.00125,0.998,-0.26,0.18,0.04,27410.0,-2180.0,-35210.0
32.7643211,35.0164699,482.72,-0.0555,-0.005,0.99925,-0.14,-0.42,0.02,27400.0,-2190.0,-35200.0
32.7643211,35.0164699,482.72,-0.05125,0.01575,1.00025,0.2,-0.1,-0.02,27400.0,-2180.0,-35200.0
32.7643211,35.0164699,482.72,-0.046,0.0055,0.99575,-0.18,0.26,-0.02,27380.0,-2170.0,-35200.0
32.7643211,35.0164699,482.72,-0.03975,-0.01375,0.994,-0.22,-0.26,0.04,27400.0,-2170.0,-35200.0
32.7643211,35.0164699,482.72,-0.04225,0.00575,0.99775,0.26,-0.26,0.04,27380.0,-2150.0,-35210.0
32.7643211,35.0164699,482.72,-0.04925,0.02075,0.9985,0.18,0.52,-0.02,27350.0,-2090.0,-35220.0
32.7643211,35.0164699,482.72,-0.05475,-0.0075,0.996,-0.34,0.38,0.04,27340.0,-2080.0,-35220.0
32.7643211,35.0164699,482.72,-0.0535,-0.01725,0.99725,-0.02,-0.48,-0.08,27350.0,-2100.0,-35230.0
32.7643211,35.0164699,482.72,-0.05125,0.015,1.00375,0.42,-0.18,0.02,27340.0,-2060.0,-35230.0
32.7643211,35.0164699,482.72,-0.0465,0.024,0.99875,0.02,0.34,-0.02,27340.0,-2080.0,-35220.0
32.7643211,35.0164699,482.72,-0.0415,-0.00775,0.992,-0.36,-0.12,-0.02,27350.0,-2110.0,-35210.0
32.7643211,35.0164699,482.72,-0.0415,-0.00725,0.99325,0.04,-0.36,-0.02,27370.0,-2120.0,-35200.0
32.7643211,35.0164699,482.72,-0.04725,0.01775,1.00225,0.36,0.32,0.04,27360.0,-2130.0,-35200.0
32.7643211,35.0164699,482.72,-0.05125,0.00975,0.9995,-0.14,0.46,-0.02,27370.0,-2100.0,-35210.0
32.7643211,35.0164699,482.72,-0.0525,-0.0055,0.99875,-0.14,-0.24,-0.04,27360.0,-2080.0,-35210.0
32.7643211,35.0164699,482.72,-0.051,0.00825,0.999,0.16,-0.3,0.04,27370.0,-2120.0,-35200.0
32.7643211,35.0164699,482.72,-0.0475,0.01775,0.998,0.0,0.26,0.0,27510.0,-2330.0,-35180.0
32.7643211,35.0164699,482.72,-0.04275,-0.00675,0.9935,-0.4,-0.02,0.0,27600.0,-2380.0,-35160.0
32.7643211,35.0164699,482.72,-0.04125,-0.0065,0.99525,0.02,-0.46,0.02,27590.0,-2360.0,-35180.0
32.7643211,35.0164699,482.72,-0.047,0.0195,0.99925,0.32,0.1,0.04,27580.0,-2330.0,-35190.0
32.7643211,35.0164699,482.72,-0.0525,0.01,0.997,-0.16,0.58,-0.02,27610.0,-2420.0,-35180.0
32.7643211,35.0164699,482.72,-0.0535,-0.018,0.9965,-0.28,-0.08,0.0,27650.0,-2480.0,-35160.0
32.7643211,35.0164699,482.72,-0.05125,-0.002,1.001,0.28,-0.44,0.08,27610.0,-2420.0,-35170.0
32.7643211,35.0164699,482.72,-0.048,0.028,1.00325,0.34,0.2,-0.02,27530.0,-2290.0,-35180.0
32.7643211,35.0164699,482.72,-0.043,0.00775,0.99325,-0.34,0.22,-0.02,27450.0,-2200.0,-35190.0
32.7643211,35.0164699,482.72,-0.04125,-0.0145,0.9925,-0.22,-0.4,0.04,27430.0,-2180.0,-35190.0
32.7643211,35.0164699,482.72,-0.04525,0.00725,0.99925,0.34,-0.1,0.06,27420.0,-2160.0,-35190.0
32.7643211,35.0164699,482.72,-0.05125,0.01975,1.00225,0.18,0.52,0.04,27400.0,-2110.0,-35190.0
32.7643211,35.0164699,482.72,-0.0535,-0.0025,0.99625,-0.3,0.16,0.0,27390.0,-2100.0,-35220.0
32.7643211,35.0164699,482.72,-0.05275,-0.00375,0.9975,-0.06,-0.48,-0.02,27420.0,-2160.0,-35210.0
32.7643211,35.0164699,482.72,-0.0505,0.01675,1.00125,0.22,-0.02,0.02,27410.0,-2120.0,-35210.0
32.7643211,35.0164699,482.72,-0.04475,0.00675,0.99625,-0.2,0.18,0.02,27430.0,-2160.0,-35210.0
32.7643211,35.0164699,482.72,-0.04075,-0.012,0.993,-0.3,-0.28,-0.04,27420.0,-2120.0,-35210.0
32.7643211,35.0164699,482.72,-0.0425,0.00725,0.99675,0.26,-0.24,-0.02,27400.0,-2090.0,-35210.0
32.7643211,35.0164699,482.72,-0.04875,0.01925,0.9985,0.08,0.52,0.0,27390.0,-2090.0,-35210.0
32.7643211,35.0164699,482.72,-0.05375,-0.00725,0.995,-0.32,0.34,-0.02,27400.0,-2090.0,-35220.0
32.7643211,35.0164699,482.72,-0.05475,-0.01325,0.99925,-0.08,-0.48,0.02,27380.0,-2070.0,-35210.0
32.7643211,35.0164699,482.72,-0.05225,0.01825,1.0025,0.42,-0.14,0.02,27390.0,-2050.0,-35210.0
32.7643211,35.0164699,482.72,-0.04475,0.0215,0.99775,0.0,0.3,-0.02,27400.0,-2050.0,-35230.0
32.7643211,35.0164699,482.72,-0.04125,-0.00925,0.991,-0.44,-0.12,-0.04,27420.0,-2090.0,-35220.0
32.7643211,35.0164699,482.72,-0.0415,-0.00525,0.995,0.04,-0.42,0.0,27430.0,-2130.0,-35210.0
32.7643211,35.0164699,482.72,-0.04875,0.01925,1.0015,0.3,0.34,0.02,27410.0,-2100.0,-35210.0
32.7643211,35.0164699,482.72,-0.0525,0.0085,1.00025,-0.18,0.56,-0.04,27410.0,-2090.0,-35210.0
32.7643211,35.0164699,482.72,-0.05325,-0.00875,0.99825,-0.22,-0.3,-0.02,27440.0,-2110.0,-35210.0
32.7643211,35.0164699,482.72,-0.051,0.0075,1.0,0.14,-0.32,0.0,27450.0,-2130.0,-35210.0
32.7643211,35.0164699,482.72,-0.04725,0.01475,0.998,0.06,0.2,0.06,27430.0,-2090.0,-35220.0
32.7643211,35.0164699,482.72,-0.04225,-0.00875,0.995,-0.36,0.02,0.0,27400.0,-2060.0,-35230.0
32.7643211,35.0164699,482.72,-0.04025,-0.00575,0.996,0.04,-0.5,0.02,27400.0,-2060.0,-35230.0
32.7643211,35.0164699,482.72,-0.04575,0.02,0.99825,0.32,0.14,0.0,27390.0,-2040.0,-35240.0
32.7643211,35.0164699,482.72,-0.0505,0.00675,0.99725,-0.2,0.58,0.04,27360.0,-2020.0,-35240.0
32.7643211,35.0164699,482.72,-0.05275,-0.019,0.9975,-0.16,-0.18,-0.04,27400.0,-2090.0,-35230.0
32.7643211,35.0164699,482.72,-0.05075,0.0015,1.00175,0.36,-0.46,0.0,27490.0,-2210.0,-35190.0
32.7643211,35.0164699,482.72,-0.0475,0.0305,1.0015,0.32,0.22,0.0,27530.0,-2210.0,-35170.0
32.7643211,35.0164699,482.72,-0.043,0.0085,0.994,-0.34,0.22,-0.02,27510.0,-2210.0,-35190.0
32.7643211,35.0164699,482.72,-0.04225,-0.01425,0.99175,-0.26,-0.38,0.06,27510.0,-2220.0,-35210.0
32.7643211,35.0164699,482.72,-0.0465,0.0085,0.99825,0.32,-0.08,-0.04,27470.0,-2180.0,-35210.0
32.7643211,35.0164699,482.72,-0.05125,0.01975,1.0005,0.16,0.62,0.04,27460.0,-2200.0,-35210.0
32.7643211,35.0164699,482.72,-0.05325,-0.00125,0.99825,-0.28,0.18,0.0,27450.0,-2190.0,-35210.0
32.7643211,35.01647,482.73,-0.0525,-0.003,0.999,-0.04,-0.42,0.08,27410.0,-2150.0,-35230.0
32.7643211,35.01647,482.73,-0.04975,0.0145,0.99925,0.14,0.0,0.04,27400.0,-2150.0,-35230.0
32.7643211,35.01647,482.73,-0.0435,0.003,0.99425,-0.2,0.24,0.0,27420.0,-2190.0,-35220.0
32.7643211,35.01647,482.73,-0.04025,-0.01375,0.99425,-0.22,-0.36,0.04,27400.0,-2170.0,-35210.0
32.7643211,35.01647,482.73,-0.043,0.00725,0.99775,0.26,-0.16,0.04,27400.0,-2200.0,-35210.0
32.7643211,35.01647,482.73,-0.05075,0.0185,0.99925,0.18,0.52,0.06,27410.0,-2190.0,-35210.0
32.7643211,35.01647,482.73,-0.05425,-0.01025,0.99575,-0.34,0.28,0.04,27420.0,-2190.0,-35210.0
32.7643211,35.01647,482.73,-0.0535,-0.01725,0.9985,0.04,-0.4,-0.02,27410.0,-2200.0,-35210.0
32.7643211,35.01647,482.73,-0.05075,0.01675,1.00375,0.46,-0.14,-0.02,27410.0,-2220.0,-35210.0
32.7643211,35.01647,482.73,-0.045,0.02275,0.99775,0.08,0.36,0.02,27410.0,-2200.0,-35210.0
32.7643211,35.01647,482.73,-0.04275,-0.008,0.99075,-0.4,-0.16,-0.06,27400.0,-2170.0,-35220.0
32.7643211,35.01647,482.73,-0.0445,-0.00525,0.99575,0.08,-0.34,0.02,27420.0,-2190.0,-35220.0
32.7643211,35.01647,482.73,-0.051,0.02,1.00275,0.38,0.32,0.04,27400.0,-2160.0,-35210.0
32.7643211,35.01647,482.73,-0.05375,0.01275,0.9985,-0.2,0.5,-0.04,27390.0,-2140.0,-35210.0
32.7643211,35.01647,482.73,-0.0555,-0.00225,0.99725,-0.2,-0.28,-0.02,27430.0,-2200.0,-35200.0
32.7643211,35.01647,482.73,-0.05225,0.0125,1.0005,0.16,-0.28,0.0,27440.0,-2230.0,-35210.0
32.7643211,35.01647,482.73,-0.04725,0.0185,0.9985,0.04,0.2,-0.02,27390.0,-2170.0,-35210.0
32.7643211,35.01647,482.73,-0.0415,-0.0045,0.99425,-0.32,-0.04,-0.08,27390.0,-2140.0,-35210.0
32.7643211,35.01647,482.73,-0.04075,-0.002,0.9945,0.1,-0.4,0.0,27400.0,-2190.0,-35200.0
32.7643211,35.01647,482.73,-0.0475,0.022,0.998,0.28,0.18,0.06,27400.0,-2180.0,-35200.0
32.7643211,35.0164699,482.73,-0.05225,0.00825,0.9975,-0.2,0.52,0.02,27380.0,-2160.0,-35220.0
32.7643211,35.0164699,482.73,-0.05325,-0.01675,0.99675,-0.28,-0.2,0.02,27370.0,-2140.0,-35230.0
32.7643211,35.0164699,482.73,-0.05025,0.00225,1.001,0.22,-0.48,-0.04,27340.0,-2110.0,-35220.0
32.7643211,35.0164699,482.73,-0.04525,0.0275,1.002,0.22,0.12,0.04,27370.0,-2180.0,-35220.0
32.7643211,35.0164699,482.73,-0.04,0.0045,0.995,-0.34,0.1,0.04,27410.0,-2220.0,-35210.0
32.7643211,35.0164699,482.73,-0.03925,-0.01325,0.99275,-0.22,-0.44,0.04,27390.0,-2170.0,-35220.0
32.7643211,35.0164699,482.73,-0.0445,0.01,0.99825,0.38,0.0,0.06,27370.0,-2110.0,-35230.0
32.7643211,35.0164699,482.73,-0.0485,0.01775,1.00275,0.02,0.58,0.08,27370.0,-2130.0,-35240.0
32.7643211,35.0164699,482.73,-0.052,-0.00275,0.99925,-0.32,0.02,0.06,27360.0,-2120.0,-35240.0
32.7643211,35.0164699,482.73,-0.05275,-0.00075,1.0005,-0.02,-0.4,0.04,27360.0,-2150.0,-35240.0
32.7643211,35.0164699,482.73,-0.053,0.01725,1.00025,0.16,0.2,0.06,27370.0,-2150.0,-35250.0
32.7643211,35.0164699,482.73,-0.0455,-0.0005,0.996,-0.22,0.18,0.0,27370.0,-2120.0,-35250.0
32.7643211,35.0164699,482.73,-0.038,-0.01775,0.994,-0.26,-0.34,0.0,27350.0,-2110.0,-35250.0
32.7643211,35.0164699,482.73,-0.0395,0.01025,0.9955,0.26,-0.14,0.0,27360.0,-2120.0,-35250.0
32.7643211,35.0164699,482.73,-0.0485,0.01825,0.999,-0.06,0.6,-0.04,27350.0,-2090.0,-35250.0
32.7643211,35.0164699,482.73,-0.05475,-0.015,0.99575,-0.42,0.3,0.0,27330.0,-2040.0,-35250.0
32.7643211,35.0164699,482.73,-0.055,-0.01675,0.99875,0.04,-0.52,-0.04,27340.0,-2070.0,-35250.0
32.7643211,35.0164699,482.73,-0.05325,0.0155,1.00225,0.44,-0.04,0.02,27380.0,-2110.0,-35250.0
32.7643211,35.0164699,482.73,-0.04725,0.01925,0.99575,-0.02,0.32,-0.04,27350.0,-2070.0,-35250.0
32.7643211,35.0164699,482.73,-0.0435,-0.014,0.991,-0.44,-0.22,-0.04,27310.0,-2050.0,-35250.0
32.7643211,35.0164699,482.72,-0.04075,-0.006,0.99475,0.14,-0.38,-0.04,27320.0,-2040.0,-35250.0
32.7643211,35.0164699,482.72,-0.04775,0.01625,1.0025,0.36,0.38,-0.04,27320.0,-2040.0,-35250.0
32.7643211,35.0164699,482.72,-0.0505,0.00725,1.0005,-0.18,0.5,0.0,27330.0,-2060.0,-35250.0
32.7643211,35.0164699,482.72,-0.055,-0.00825,1.0005,-0.28,-0.4,0.06,27340.0,-2070.0,-35250.0
32.7643211,35.0164699,482.72,-0.05425,0.01,0.9985,0.26,-0.3,0.0,27350.0,-2020.0,-35230.0
32.7643211,35.0164699,482.72,-0.05175,0.014,0.99925,0.14,0.32,0.04,27380.0,-2080.0,-35220.0
32.7643211,35.0164699,482.72,-0.044,-0.0095,0.99225,-0.26,-0.1,0.02,27410.0,-2140.0,-35220.0
32.7643211,35.0164699,482.72,-0.0395,-0.001,0.9965,0.22,-0.5,0.0,27400.0,-2110.0,-35230.0
32.7643211,35.0164699,482.72,-0.0465,0.02225,0.9995,0.28,0.24,0.0,27400.0,-2140.0,-35230.0
32.7643211,35.0164699,482.72,-0.04975,0.0065,0.99775,-0.28,0.48,0.0,27410.0,-2140.0,-35230.0
32.7643211,35.0164699,482.72,-0.053,-0.01775,0.99675,-0.22,-0.24,0.06,27390.0,-2120.0,-35240.0
32.7643211,35.0164699,482.72,-0.05,0.00525,1.00075,0.44,-0.42,0.0,27400.0,-2140.0,-35230.0
32.7643211,35.0164699,482.72,-0.048,0.03125,1.00075,0.26,0.26,-0.02,27410.0,-2160.0,-35210.0
32.7643211,35.0164699,482.72,-0.042,0.00575,0.993,-0.4,0.08,0.08,27410.0,-2160.0,-35210.0
32.7643211,35.0164699,482.72,-0.0405,-0.00975,0.99175,-0.16,-0.46,0.02,27420.0,-2140.0,-35210.0
32.7643211,35.0164699,482.72,-0.04575,0.01325,1.0005,0.38,0.06,0.04,27440.0,-2140.0,-35200.0
32.7643211,35.0164699,482.72,-0.0485,0.01975,1.00075,0.08,0.56,-0.02,27440.0,-2120.0,-35210.0
32.7643211,35.0164699,482.72,-0.0525,0.001,0.99725,-0.34,0.0,0.02,27430.0,-2110.0,-35230.0
32.7643211,35.0164699,482.72,-0.0505,0.0025,0.99925,0.06,-0.46,0.06,27440.0,-2110.0,-35220.0
32.7643211,35.0164699,482.72,-0.0495,0.02125,0.99975,0.14,0.1,0.02,27420.0,-2080.0,-35210.0
32.7643211,35.0164699,482.72,-0.04275,0.00275,0.99625,-0.3,0.24,-0.06,27400.0,-2070.0,-35230.0
32.7643211,35.0164699,482.72,-0.0405,-0.00925,0.994,-0.18,-0.3,0.04,27400.0,-2090.0,-35240.0
32.7643211,35.0164699,482.72,-0.044,0.01325,0.9985,0.18,-0.12,0.0,27420.0,-2100.0,-35240.0
32.7643211,35.0164699,482.72,-0.0505,0.0175,0.99875,0.0,0.56,0.0,27420.0,-2090.0,-35230.0
32.7643211,35.0164699,482.72,-0.05525,-0.0115,0.99675,-0.44,0.26,0.04,27470.0,-2160.0,-35200.0
32.7643211,35.0164699,482.72,-0.05225,-0.0145,0.9975,0.04,-0.52,0.0,27560.0,-2250.0,-35180.0
32.7643211,35.0164699,482.72,-0.0495,0.02125,1.00375,0.36,-0.04,0.0,27590.0,-2280.0,-35170.0
32.7643211,35.0164699,482.72,-0.0435,0.01425,0.99775,-0.16,0.32,0.0,27650.0,-2360.0,-35160.0
32.7643211,35.0164699,482.72,-0.0415,-0.01525,0.99025,-0.46,-0.26,0.0,27650.0,-2360.0,-35160.0
32.7643211,35.0164699,482.72,-0.04475,-0.00725,0.9945,0.14,-0.32,0.06,27630.0,-2330.0,-35150.0
32.7643211,35.0164699,482.72,-0.0505,0.0155,1.00075,0.34,0.46,0.04,27610.0,-2320.0,-35170.0
32.7643211,35.0164699,482.72,-0.05475,0.005,1.0,-0.18,0.34,-0.04,27550.0,-2300.0,-35180.0
32.7643211,35.0164699,482.72,-0.05475,-0.01025,0.998,-0.22,-0.42,0.06,27480.0,-2210.0,-35190.0
32.7643211,35.0164699,482.72,-0.0525,0.0085,0.999,0.22,-0.22,0.0,27440.0,-2170.0,-35190.0
32.7643211,35.0164699,482.72,-0.04725,0.0085,0.9975,0.02,0.24,0.02,27430.0,-2140.0,-35200.0
32.7643211,35.0164699,482.72,-0.04125,-0.01225,0.9955,-0.24,-0.14,0.06,27420.0,-2090.0,-35200.0
32.7643211,35.0164699,482.72,-0.04075,-0.00125,0.9965,0.16,-0.46,0.02,27400.0,-2110.0,-35210.0
32.7643211,35.0164699,482.72,-0.0465,0.021,0.998,0.2,0.24,0.0,27400.0,-2100.0,-35210.0
32.7643211,35.0164699,482.72,-0.05225,0.003,0.99725,-0.22,0.56,0.0,27390.0,-2080.0,-35210.0
32.7643211,35.0164699,482.72,-0.0535,-0.02125,0.99775,-0.24,-0.28,0.04,27350.0,-2070.0,-35210.0
32.7643211,35.0164699,482.72,-0.052,0.00725,1.0015,0.5,-0.4,0.06,27370.0,-2080.0,-35230.0
32.7643211,35.0164699,482.72,-0.04675,0.02975,1.0015,0.3,0.22,-0.04,27390.0,-2110.0,-35220.0
32.7643211,35.0164699,482.72,-0.0405,0.0015,0.991,-0.38,0.1,0.0,27360.0,-2090.0,-35210.0
32.7643211,35.0164699,482.72,-0.04,-0.01175,0.9925,-0.12,-0.42,0.04,27380.0,-2130.0,-35200.0
32.7643211,35.0164699,482.72,-0.04425,0.0115,0.99925,0.34,0.1,0.02,27400.0,-2180.0,-35200.0
32.7643211,35.0164699,482.72,-0.05025,0.019,1.00075,0.14,0.56,-0.02,27390.0,-2160.0,-35200.0
32.7643211,35.0164699,482.72,-0.0525,-0.00325,0.99975,-0.28,0.0,0.0,27410.0,-2160.0,-35200.0
32.7643211,35.0164699,482.72,-0.052,0.00275,0.99875,0.0,-0.46,0.02,27380.0,-2140.0,-35220.0
32.7643211,35.0164699,482.72,-0.04925,0.0185,0.9985,0.14,0.06,0.0,27370.0,-2140.0,-35230.0
32.7643211,35.0164699,482.72,-0.04175,-0.00025,0.994,-0.28,0.14,0.02,27410.0,-2190.0,-35230.0
32.7643211,35.0164699,482.72,-0.04,-0.0085,0.99575,-0.14,-0.32,0.06,27430.0,-2210.0,-35240.0
32.7643211,35.0164699,482.72,-0.04375,0.015,0.99925,0.28,-0.14,0.04,27370.0,-2120.0,-35240.0
32.7643211,35.0164699,482.72,-0.052,0.01975,0.99825,-0.06,0.62,0.02,27340.0,-2110.0,-35230.0
32.7643211,35.0164699,482.72,-0.055,-0.01275,0.99525,-0.34,0.06,0.06,27380.0,-2160.0,-35210.0
32.7643211,35.0164699,482.72,-0.053,-0.01,0.99975,0.1,-0.48,-0.02,27390.0,-2170.0,-35210.0
32.7643211,35.0164699,482.72,-0.05,0.02575,1.00425,0.42,0.02,-0.02,27420.0,-2210.0,-35220.0
32.7643211,35.0164699,482.72,-0.04375,0.01925,0.99675,-0.16,0.34,0.0,27410.0,-2200.0,-35220.0
32.7643211,35.0164699,482.72,-0.04275,-0.009,0.991,-0.36,-0.28,-0.02,27400.0,-2180.0,-35220.0
32.7643211,35.0164699,482.72,-0.0435,-0.002,0.99625,0.16,-0.32,0.04,27390.0,-2190.0,-35210.0
32.7643211,35.0164699,482.72,-0.05075,0.02125,1.00225,0.26,0.5,-0.02,27390.0,-2210.0,-35220.0
32.7643211,35.0164699,482.73,-0.05425,0.005,0.9985,-0.28,0.38,-0.06,27370.0,-2140.0,-35230.0
32.7643211,35.0164699,482.73,-0.055,-0.006,0.99825,-0.22,-0.42,0.02,27360.0,-2130.0,-35230.0
32.7643211,35.0164699,482.73,-0.05225,0.014,1.00025,0.24,-0.2,0.0,27390.0,-2200.0,-35220.0
32.7643211,35.0164699,482.73,-0.045,0.01075,0.997,-0.14,0.28,-0.02,27400.0,-2200.0,-35210.0
32.7643211,35.0164699,482.73,-0.041,-0.0115,0.994,-0.36,-0.16,0.02,27410.0,-2230.0,-35210.0
32.7643211,35.0164699,482.73,-0.04075,-0.00325,0.99575,0.08,-0.38,0.02,27410.0,-2200.0,-35210.0
32.7643211,35.0164699,482.73,-0.04875,0.0205,0.99925,0.16,0.3,-0.04,27400.0,-2170.0,-35210.0
32.7643211,35.0164699,482.73,-0.0535,-0.0005,0.9985,-0.34,0.44,-0.02,27390.0,-2160.0,-35210.0
32.7643211,35.0164699,482.73,-0.0525,-0.021,0.99775,-0.22,-0.38,-0.02,27370.0,-2180.0,-35210.0
32.7643211,35.0164699,482.73,-0.0495,0.0065,1.00125,0.34,-0.36,-0.06,27360.0,-2150.0,-35210.0
32.7643211,35.0164699,482.73,-0.0435,0.0235,0.99925,0.26,0.3,0.0,27340.0,-2120.0,-35230.0
32.7643211,35.0164699,482.73,-0.041,-0.002,0.99225,-0.34,0.04,0.0,27370.0,-2130.0,-35210.0
32.7643211,35.0164699,482.73,-0.0415,-0.01475,0.9935,-0.08,-0.38,0.02,27370.0,-2140.0,-35200.0
32.7643211,35.0164699,482.73,-0.0485,0.01225,0.99975,0.38,0.14,0.06,27370.0,-2130.0,-35200.0
32.7643211,35.0164699,482.73,-0.0525,0.01425,1.00075,0.02,0.56,-0.02,27400.0,-2150.0,-35190.0
32.7643211,35.0164699,482.73,-0.053,-0.007,0.99725,-0.28,-0.16,-0.06,27400.0,-2110.0,-35200.0
32.7643211,35.0164699,482.73,-0.05075,0.00325,0.9995,0.06,-0.44,-0.02,27390.0,-2150.0,-35210.0
32.7643211,35.0164699,482.73,-0.04625,0.01675,0.999,0.2,0.12,0.06,27430.0,-2180.0,-35210.0
32.7643211,35.0164699,482.73,-0.04225,0.0,0.996,-0.3,0.18,-0.02,27420.0,-2180.0,-35200.0
32.7643211,35.0164699,482.73,-0.03975,-0.01025,0.9955,-0.14,-0.44,0.0,27390.0,-2100.0,-35200.0
32.7643211,35.0164699,482.73,-0.04475,0.01475,0.998,0.26,-0.08,0.0,27370.0,-2070.0,-35220.0
32.7643211,35.0164699,482.73,-0.05225,0.01675,0.998,-0.08,0.58,0.1,27390.0,-2090.0,-35220.0
32.7643211,35.0164699,482.73,-0.055,-0.014,0.99475,-0.3,0.16,-0.04,27390.0,-2100.0,-35210.0
32.7643211,35.0164699,482.73,-0.05325,-0.0055,1.0005,0.14,-0.48,-0.06,27420.0,-2140.0,-35210.0
32.7643211,35.0164699,482.73,-0.049,0.02575,1.00475,0.4,0.08,-0.04,27420.0,-2110.0,-35210.0
32.7643211,35.0164699,482.73,-0.043,0.0165,0.99525,-0.14,0.3,0.0,27400.0,-2060.0,-35200.0
32.7643211,35.0164699,482.73,-0.04125,-0.01325,0.99075,-0.38,-0.34,0.08,27390.0,-2080.0,-35200.0
32.7643211,35.0164699,482.73,-0.044,0.0005,0.99525,0.22,-0.18,0.02,27450.0,-2140.0,-35200.0
32.7643211,35.0164699,482.73,-0.05125,0.02325,1.0015,0.26,0.52,0.0,27430.0,-2130.0,-35220.0
32.7643211,35.0164699,482.73,-0.0545,0.00425,0.99875,-0.22,0.26,0.02,27420.0,-2090.0,-35230.0
32.7643211,35.0164699,482.73,-0.0555,-0.0035,0.9985,-0.16,-0.4,-0.02,27400.0,-2070.0,-35240.0
32.7643211,35.0164699,482.73,-0.05175,0.01275,1.00075,0.18,-0.16,0.02,27370.0,-2010.0,-35240.0
32.7643211,35.0164699,482.73,-0.04525,0.01175,0.99625,-0.02,0.24,0.0,27370.0,-2020.0,-35240.0
32.7643211,35.0164699,482.73,-0.041,-0.00975,0.99475,-0.36,-0.14,0.02,27400.0,-2040.0,-35220.0
32.7643211,35.0164699,482.73,-0.04075,0.002,0.99575,0.12,-0.44,0.0,27400.0,-2050.0,-35210.0
32.7643211,35.0164699,482.73,-0.0495,0.02275,0.99975,0.2,0.38,0.04,27400.0,-2070.0,-35210.0
32.7643211,35.0164699,482.73,-0.05175,-0.0035,0.9965,-0.32,0.46,0.0,27420.0,-2090.0,-35220.0
32.7643211,35.0164699,482.73,-0.053,-0.0175,0.9975,-0.18,-0.38,0.0,27440.0,-2120.0,-35220.0
32.7643211,35.0164699,482.73,-0.04975,0.01125,1.0035,0.38,-0.32,0.0,27430.0,-2120.0,-35210.0
32.7643211,35.0164699,482.73,-0.0445,0.02625,0.9995,0.14,0.3,0.06,27440.0,-2130.0,-35210.0
32.7643211,35.0164699,482.73,-0.04175,-0.0045,0.9915,-0.44,0.0,0.0,27450.0,-2140.0,-35230.0
32.7643211,35.0164699,482.73,-0.04075,-0.013,0.99225,-0.04,-0.44,-0.02,27450.0,-2140.0,-35230.0
32.7643211,35.0164699,482.73,-0.04725,0.016,1.00175,0.42,0.16,0.0,27460.0,-2170.0,-35220.0
32.7643211,35.0164699,482.73,-0.05025,0.01225,1.0005,-0.06,0.56,0.0,27470.0,-2180.0,-35210.0
32.7643211,35.0164699,482.73,-0.05325,-0.00625,0.99725,-0.34,-0.12,0.02,27470.0,-2170.0,-35210.0
32.7643211,35.0164699,482.73,-0.0515,0.00325,1.0,0.12,-0.36,0.0,27450.0,-2170.0,-35210.0
32.7643211,35.0164699,482.73,-0.0475,0.0155,0.9995,0.14,0.16,0.0,27460.0,-2170.0,-35210.0
32.7643211,35.0164699,482.73,-0.04225,-0.00475,0.9955,-0.3,0.1,0.02,27440.0,-2140.0,-35210.0
32.7643211,35.0164699,482.73,-0.039,-0.01,0.99425,-0.02,-0.4,0.02,27450.0,-2160.0,-35210.0
32.7643211,35.0164699,482.73,-0.04525,0.018,0.9985,0.34,0.02,-0.02,27460.0,-2150.0,-35210.0
32.7643211,35.0164699,482.73,-0.051,0.0095,0.99775,-0.12,0.56,-0.04,27420.0,-2080.0,-35220.0
32.7643211,35.0164699,482.73,-0.055,-0.01725,0.99575,-0.32,0.0,0.04,27410.0,-2080.0,-35220.0
32.7643211,35.0164699,482.73,-0.0545,-0.0045,1.00075,0.28,-0.48,0.02,27420.0,-2090.0,-35210.0
32.7643211,35.0164699,482.73,-0.04975,0.02575,1.00225,0.36,0.06,0.04,27400.0,-2050.0,-35210.0
32.7643211,35.0164699,482.73,-0.0445,0.012,0.99525,-0.28,0.18,0.02,27390.0,-2040.0,-35200.0
32.7643211,35.0164699,482.73,-0.04,-0.015,0.99075,-0.28,-0.34,0.06,27390.0,-2030.0,-35210.0
32.7643211,35.0164699,482.73,-0.043,0.0055,0.99825,0.3,-0.14,0.04,27380.0,-2020.0,-35210.0
32.7643211,35.0164699,482.73,-0.04825,0.02,1.00275,0.2,0.58,-0.04,27360.0,-1970.0,-35220.0
32.7643211,35.0164699,482.73,-0.0535,0.00175,0.9995,-0.24,0.26,-0.02,27350.0,-2020.0,-35210.0
32.7643211,35.0164699,482.73,-0.05775,0.00025,0.999,0.0,-0.42,0.02,27380.0,-2080.0,-35210.0
32.7643211,35.0164699,482.73,-0.0545,0.01525,1.00025,0.16,-0.06,-0.02,27390.0,-2080.0,-35230.0
32.7643211,35.0164699,482.73,-0.04525,0.00425,0.9965,-0.12,0.22,0.0,27400.0,-2110.0,-35240.0
32.7643211,35.0164699,482.73,-0.03775,-0.0105,0.99425,-0.24,-0.38,-0.06,27390.0,-2110.0,-35250.0
32.7643211,35.0164699,482.73,-0.04125,0.012,0.99925,0.22,-0.36,0.02,27400.0,-2100.0,-35230.0
32.7643211,35.0164699,482.73,-0.048,0.02,0.99875,0.04,0.42,0.04,27400.0,-2120.0,-35220.0
32.7643211,35.0164699,482.73,-0.052,-0.00675,0.99525,-0.36,0.36,0.02,27420.0,-2150.0,-35210.0
32.7643211,35.0164699,482.73,-0.05275,-0.0155,0.99875,-0.02,-0.5,-0.08,27380.0,-2080.0,-35210.0
32.7643211,35.0164699,482.73,-0.051,0.02,1.0025,0.44,-0.18,-0.04,27390.0,-2110.0,-35200.0
32.7643211,35.0164699,482.73,-0.0475,0.02475,0.99875,0.0,0.32,-0.06,27420.0,-2180.0,-35210.0
32.7643211,35.0164699,482.73,-0.04125,-0.01,0.99025,-0.46,-0.14,0.02,27420.0,-2150.0,-35210.0
32.7643211,35.0164699,482.73,-0.0415,-0.00575,0.9935,0.1,-0.42,0.04,27410.0,-2170.0,-35230.0
32.7643211,35.0164699,482.73,-0.045,0.0185,1.00175,0.32,0.26,0.04,27480.0,-2230.0,-35220.0
32.7643211,35.0164699,482.73,-0.049,0.00875,1.00025,-0.2,0.48,0.02,27520.0,-2280.0,-35200.0
32.7643211,35.0164699,482.73,-0.053,-0.00525,0.997,-0.32,-0.24,0.04,27580.0,-2320.0,-35200.0
32.7643211,35.0164699,482.73,-0.053,0.00725,1.00075,0.18,-0.24,-0.04,27610.0,-2370.0,-35190.0
32.7643211,35.0164699,482.73,-0.04925,0.015,0.99725,0.08,0.24,0.04,27630.0,-2360.0,-35170.0
32.7643211,35.0164699,482.73,-0.042,-0.01075,0.9945,-0.4,-0.06,-0.04,27620.0,-2370.0,-35160.0
32.7643211,35.0164699,482.73,-0.041,-0.00325,0.995,0.08,-0.42,-0.02,27620.0,-2400.0,-35170.0
32.7643211,35.0164699,482.73,-0.0455,0.019,1.001,0.2,0.18,0.02,27540.0,-2330.0,-35190.0
32.7643211,35.0164699,482.73,-0.0505,0.002,0.997,-0.22,0.62,0.04,27500.0,-2310.0,-35200.0
32.7643211,35.0164699,482.73,-0.05275,-0.0195,0.9975,-0.28,-0.18,0.04,27460.0,-2220.0,-35220.0
32.7643211,35.0164699,482.73,-0.05175,0.00075,1.0005,0.4,-0.36,0.04,27420.0,-2170.0,-35210.0
32.7643211,35.0164699,482.73,-0.04825,0.02825,1.0015,0.26,0.22,-0.04,27420.0,-2170.0,-35210.0
32.7643211,35.0164699,482.73,-0.04375,0.00025,0.99225,-0.42,0.08,0.02,27420.0,-2190.0,-35210.0
32.7643211,35.0164699,482.73,-0.0435,-0.014,0.9915,-0.2,-0.42,0.06,27410.0,-2150.0,-35200.0
32.7643211,35.0164699,482.73,-0.04825,0.00925,0.99925,0.34,0.06,-0.02,27410.0,-2130.0,-35200.0
32.7643211,35.0164699,482.73,-0.05075,0.0145,1.00125,0.04,0.6,0.02,27420.0,-2120.0,-35200.0
32.7643211,35.0164699,482.73,-0.05375,-0.0025,0.9975,-0.28,-0.06,-0.02,27400.0,-2130.0,-35210.0
32.7643211,35.0164699,482.73,-0.0525,0.00025,0.998,0.0,-0.42,0.04,27380.0,-2110.0,-35200.0
32.7643211,35.0164699,482.73,-0.04975,0.01675,1.00025,0.16,0.06,0.04,27390.0,-2130.0,-35210.0
32.7643211,35.0164699,482.73,-0.0435,-0.002,0.99675,-0.26,0.18,0.0,27390.0,-2100.0,-35210.0
32.7643211,35.0164699,482.73,-0.03875,-0.011,0.99525,-0.16,-0.38,0.04,27370.0,-2090.0,-35210.0
32.7643211,35.0164699,482.73,-0.04325,0.015,0.9985,0.36,-0.06,0.08,27410.0,-2150.0,-35200.0
32.7643211,35.0164699,482.73,-0.0485,0.01475,0.99775,-0.04,0.56,0.02,27440.0,-2180.0,-35210.0
32.7643211,35.0164699,482.73,-0.0535,-0.01425,0.99525,-0.38,0.1,-0.02,27430.0,-2160.0,-35210.0
32.7643211,35.0164699,482.73,-0.05225,-0.01,1.0005,0.2,-0.54,0.02,27410.0,-2120.0,-35220.0
32.7643211,35.0164699,482.73,-0.04975,0.02525,1.00375,0.48,0.02,-0.04,27400.0,-2100.0,-35220.0
32.7643211,35.0164699,482.73,-0.043,0.0165,0.997,-0.12,0.24,-0.04,27380.0,-2040.0,-35210.0
32.7643211,35.0164699,482.73,-0.039,-0.01225,0.98975,-0.32,-0.32,0.02,27400.0,-2090.0,-35210.0
32.7643211,35.0164699,482.73,-0.04175,0.00225,0.99425,0.28,-0.26,0.0,27420.0,-2100.0,-35210.0
32.7643211,35.0164699,482.73,-0.0475,0.01925,1.0,0.28,0.5,-0.08,27390.0,-2030.0,-35220.0
32.7643211,35.0164699,482.73,-0.0535,0.006,0.9995,-0.22,0.34,0.04,27400.0,-2080.0,-35230.0
32.7643211,35.0164699,482.73,-0.055,-0.00225,0.998,-0.16,-0.4,0.0,27420.0,-2120.0,-35220.0
32.7643211,35.0164699,482.73,-0.05275,0.01675,1.00025,0.22,-0.16,0.04,27430.0,-2130.0,-35210.0
32.7643211,35.0164699,482.73,-0.0465,0.01075,0.99675,-0.1,0.26,-0.04,27430.0,-2130.0,-35210.0
32.7643211,35.0164699,482.73,-0.04,-0.012,0.993,-0.24,-0.22,0.04,27450.0,-2140.0,-35210.0
32.7643211,35.0164699,482.73,-0.041,0.0065,0.9975,0.2,-0.32,0.02,27450.0,-2130.0,-35200.0
32.7643211,35.0164699,482.73,-0.0475,0.0215,1.00025,0.24,0.36,0.0,27430.0,-2110.0,-35200.0
32.7643211,35.0164699,482.73,-0.05275,-0.0025,0.99625,-0.32,0.48,0.0,27440.0,-2090.0,-35200.0
32.7643211,35.0164699,482.73,-0.054,-0.01825,0.9985,-0.1,-0.42,0.04,27430.0,-2090.0,-35210.0
32.7643211,35.0164699,482.73,-0.05175,0.01225,1.0035,0.48,-0.2,-0.04,27440.0,-2090.0,-35230.0
32.7643211,35.0164699,482.73,-0.047,0.02475,1.00025,0.02,0.26,-0.1,27460.0,-2090.0,-35240.0
32.7643211,35.0164699,482.73,-0.04225,-0.0065,0.9905,-0.44,-0.08,0.02,27460.0,-2110.0,-35240.0
32.7643211,35.0164699,482.73,-0.043,-0.00725,0.9935,-0.02,-0.46,0.06,27400.0,-2020.0,-35240.0
32.7643211,35.0164699,482.73,-0.04725,0.0145,1.0015,0.24,0.22,-0.02,27400.0,-2040.0,-35240.0
32.7643211,35.0164699,482.73,-0.05125,0.00875,1.00125,-0.18,0.5,-0.04,27440.0,-2100.0,-35230.0
32.7643211,35.0164699,482.73,-0.0535,-0.00725,0.99825,-0.26,-0.22,0.04,27430.0,-2070.0,-35230.0
32.7643211,35.0164699,482.73,-0.05125,0.00775,0.99875,0.22,-0.3,0.04,27430.0,-2070.0,-35220.0
32.7643211,35.0164699,482.73,-0.048,0.01725,0.99925,0.0,0.2,0.0,27420.0,-2050.0,-35210.0
32.7643211,35.0164699,482.73,-0.0415,-0.00875,0.99475,-0.36,-0.02,-0.08,27410.0,-1990.0,-35200.0
32.7643211,35.0164699,482.73,-0.04075,-0.00625,0.995,-0.02,-0.48,-0.04,27430.0,-2050.0,-35220.0
32.7643211,35.0164699,482.73,-0.0465,0.017,0.998,0.28,0.18,-0.02,27470.0,-2100.0,-35230.0
32.7643211,35.0164699,482.73,-0.05175,0.00825,0.9985,-0.12,0.58,-0.06,27440.0,-2060.0,-35230.0
32.7643211,35.0164699,482.73,-0.054,-0.01675,0.99625,-0.3,-0.12,-0.02,27420.0,-2050.0,-35220.0
32.7643211,35.0164699,482.73,-0.05075,-0.001,1.001,0.28,-0.46,-0.02,27420.0,-2070.0,-35210.0
32.7643211,35.0164699,482.73,-0.048,0.0265,1.002,0.32,0.22,0.02,27440.0,-2110.0,-35210.0
32.7643211,35.0164699,482.73,-0.04125,0.0035,0.994,-0.34,0.22,-0.1,27480.0,-2130.0,-35200.0
32.7643211,35.0164699,482.73,-0.0405,-0.013,0.992,-0.2,-0.46,-0.02,27450.0,-2130.0,-35210.0
32.7643211,35.0164699,482.73,-0.044,0.0095,0.997,0.34,0.0,-0.02,27440.0,-2110.0,-35200.0
32.7643211,35.0164699,482.73,-0.04975,0.01675,1.001,0.1,0.56,0.0,27420.0,-2100.0,-35200.0
32.7643211,35.0164699,482.73,-0.054,-0.0035,0.997,-0.3,0.1,-0.02,27420.0,-2090.0,-35210.0
32.7643211,35.0164699,482.73,-0.05325,-0.001,0.9985,0.02,-0.42,0.02,27410.0,-2040.0,-35200.0
32.7643211,35.0164699,482.73,-0.0515,0.019,1.0005,0.24,0.06,-0.02,27410.0,-2070.0,-35200.0
32.7643211,35.0164699,482.73,-0.04375,0.0045,0.997,-0.2,0.2,0.02,27450.0,-2140.0,-35200.0
32.7643211,35.0164699,482.73,-0.03975,-0.01175,0.99475,-0.16,-0.4,-0.02,27470.0,-2160.0,-35200.0
32.7643211,35.0164699,482.73,-0.04175,0.01025,0.99625,0.3,-0.14,-0.02,27420.0,-2140.0,-35210.0
32.7643211,35.0164699,482.73,-0.04975,0.0185,0.99875,0.04,0.54,0.0,27440.0,-2140.0,-35210.0
32.7643211,35.0164699,482.73,-0.05425,-0.0095,0.99625,-0.44,0.26,0.0,27420.0,-2120.0,-35210.0
32.7643211,35.0164699,482.73,-0.054,-0.01125,1.00025,0.1,-0.48,-0.04,27380.0,-2080.0,-35200.0
32.7643211,35.0164699,482.73,-0.05225,0.02225,1.0045,0.42,-0.04,0.02,27390.0,-2100.0,-35200.0
32.7643211,35.0164699,482.73,-0.04575,0.019,0.99775,-0.08,0.3,0.02,27420.0,-2120.0,-35220.0
32.7643211,35.0164699,482.73,-0.0425,-0.01125,0.99025,-0.5,-0.26,0.0,27390.0,-2090.0,-35210.0
32.7643211,35.0164699,482.73,-0.04225,-0.002,0.9955,0.16,-0.32,0.06,27400.0,-2110.0,-35200.0
32.7643211,35.0164699,482.73,-0.04825,0.02125,1.00125,0.3,0.38,0.04,27410.0,-2120.0,-35200.0
32.7643211,35.0164699,482.73,-0.0525,0.0075,1.00075,-0.18,0.46,-0.06,27400.0,-2090.0,-35200.0
32.7643211,35.0164699,482.73,-0.0535,-0.0075,0.998,-0.26,-0.4,0.06,27400.0,-2100.0,-35200.0
32.7643211,35.0164699,482.73,-0.05175,0.0105,1.0005,0.16,-0.18,0.06,27400.0,-2120.0,-35200.0
32.7643211,35.0164699,482.73,-0.0475,0.0145,0.9975,-0.04,0.3,0.02,27390.0,-2110.0,-35200.0
32.7643211,35.0164699,482.73,-0.042,-0.009,0.9935,-0.36,-0.12,-0.02,27420.0,-2200.0,-35200.0
32.7643211,35.0164699,482.73,-0.04075,-0.002,0.9955,0.04,-0.5,-0.02,27430.0,-2180.0,-35200.0
32.7643211,35.0164699,482.73,-0.04725,0.02025,0.9995,0.2,0.28,0.02,27390.0,-2100.0,-35210.0
32.7643211,35.0164699,482.73,-0.051,0.0005,0.99575,-0.26,0.54,0.04,27370.0,-2080.0,-35210.0
32.7643211,35.0164699,482.73,-0.052,-0.02025,0.99775,-0.22,-0.34,-0.04,27380.0,-2110.0,-35210.0
32.7643211,35.0164699,482.73,-0.04975,0.00625,1.002,0.4,-0.34,-0.06,27380.0,-2120.0,-35220.0
32.7643211,35.0164699,482.73,-0.046,0.0275,1.00025,0.22,0.24,-0.02,27410.0,-2170.0,-35230.0
32.7643211,35.0164699,482.73,-0.0425,-0.00075,0.992,-0.44,0.18,0.06,27410.0,-2150.0,-35230.0
32.7643211,35.0164699,482.73,-0.0415,-0.0145,0.99225,-0.08,-0.44,0.02,27390.0,-2090.0,-35230.0
32.7643211,35.0164699,482.73,-0.0465,0.0125,0.9995,0.44,0.1,0.06,27390.0,-2090.0,-35220.0
32.7643211,35.0164699,482.73,-0.05075,0.01675,1.0015,0.04,0.58,0.0,27420.0,-2160.0,-35210.0
32.7643211,35.0164699,482.73,-0.0535,-0.005,0.9975,-0.32,-0.1,-0.02,27440.0,-2190.0,-35210.0
32.7643211,35.0164699,482.73,-0.052,-0.00025,0.9985,-0.02,-0.42,0.02,27400.0,-2150.0,-35230.0
32.7643211,35.0164699,482.73,-0.049,0.0165,0.99975,0.12,0.08,-0.04,27390.0,-2110.0,-35240.0
32.7643211,35.0164699,482.73,-0.043,-0.00075,0.99575,-0.26,0.2,0.0,27370.0,-2090.0,-35250.0
32.7643211,35.0164699,482.73,-0.04,-0.01075,0.99475,-0.1,-0.44,0.0,27350.0,-2080.0,-35250.0
32.7643211,35.0164699,482.73,-0.044,0.0135,0.99875,0.26,-0.1,-0.02,27370.0,-2130.0,-35230.0
32.7643211,35.0164699,482.73,-0.05125,0.01425,0.998,-0.1,0.62,-0.02,27390.0,-2110.0,-35220.0
32.7643211,35.0164699,482.73,-0.05475,-0.01525,0.99725,-0.34,0.14,0.0,27370.0,-2060.0,-35210.0
32.7643211,35.0164699,482.73,-0.053,-0.01025,1.00025,0.2,-0.48,-0.06,27380.0,-2110.0,-35200.0
32.7643211,35.0164699,482.73,-0.04975,0.02475,1.00375,0.42,-0.06,0.0,27400.0,-2140.0,-35200.0
32.7643211,35.0164699,482.73,-0.044,0.018,0.9975,-0.16,0.32,0.04,27390.0,-2110.0,-35200.0
32.7643211,35.0164699,482.73,-0.041,-0.01325,0.99075,-0.3,-0.28,0.0,27390.0,-2080.0,-35220.0
32.7643211,35.0164699,482.73,-0.04275,-0.00125,0.99575,0.22,-0.28,0.02,27410.0,-2100.0,-35210.0
32.7643211,35.0164699,482.73,-0.04975,0.02175,1.002,0.3,0.48,0.04,27390.0,-2100.0,-35210.0
32.7643211,35.0164699,482.73,-0.05375,0.00775,0.9995,-0.16,0.42,0.0,27420.0,-2140.0,-35210.0
32.7643211,35.0164699,482.73,-0.05475,-0.0045,0.9975,-0.28,-0.4,0.02,27420.0,-2130.0,-35200.0
32.7643211,35.0164699,482.73,-0.0515,0.0135,0.9995,0.22,-0.2,0.02,27410.0,-2060.0,-35200.0
32.7643211,35.0164699,482.73,-0.046,0.013,0.99625,-0.02,0.28,0.0,27360.0,-2030.0,-35200.0
32.7643211,35.0164699,482.73,-0.0405,-0.00875,0.9935,-0.26,-0.18,0.02,27420.0,-2120.0,-35210.0
32.7643211,35.0164699,482.73,-0.0405,0.00275,0.99575,0.14,-0.4,0.0,27510.0,-2250.0,-35200.0
32.7643211,35.0164699,482.73,-0.048,0.02375,0.9985,0.16,0.36,0.02,27560.0,-2280.0,-35170.0
32.764321,35.0164699,482.73,-0.05275,0.00125,0.99675,-0.32,0.5,-0.02,27590.0,-2330.0,-35180.0
32.764321,35.0164699,482.73,-0.053,-0.01925,0.99775,-0.16,-0.24,0.0,27620.0,-2360.0,-35170.0
32.764321,35.0164699,482.73,-0.04975,0.009,1.00225,0.42,-0.36,-0.08,27610.0,-2360.0,-35160.0
32.764321,35.0164699,482.73,-0.04525,0.0295,1.0005,0.14,0.26,0.02,27640.0,-2370.0,-35150.0
32.764321,35.0164699,482.73,-0.0415,-0.00075,0.99175,-0.48,0.06,0.0,27590.0,-2280.0,-35160.0
32.764321,35.0164699,482.73,-0.041,-0.0145,0.9925,-0.12,-0.46,0.08,27530.0,-2220.0,-35180.0
32.764321,35.0164699,482.73,-0.047,0.01225,1.0,0.38,0.16,-0.04,27530.0,-2200.0,-35190.0
32.764321,35.0164699,482.73,-0.05125,0.01675,1.002,0.0,0.56,0.0,27500.0,-2180.0,-35200.0
32.764321,35.0164699,482.73,-0.05425,-0.0035,0.99775,-0.34,-0.02,-0.02,27420.0,-2070.0,-35200.0
32.764321,35.0164699,482.73,-0.052,0.001,1.00025,-0.02,-0.4,0.06,27380.0,-2030.0,-35210.0
32.764321,35.0164699,482.73,-0.04825,0.01675,0.99975,0.16,0.08,-0.02,27430.0,-2100.0,-35210.0
32.764321,35.0164699,482.73,-0.0425,-0.00125,0.99625,-0.3,0.2,0.06,27430.0,-2130.0,-35210.0
32.764321,35.0164699,482.73,-0.039,-0.0095,0.996,-0.12,-0.4,-0.02,27450.0,-2150.0,-35200.0
32.764321,35.0164699,482.73,-0.04375,0.016,1.0,0.3,-0.12,-0.02,27440.0,-2110.0,-35210.0
32.764321,35.0164699,482.73,-0.05125,0.017,0.998,-0.04,0.64,0.02,27420.0,-2080.0,-35230.0
32.764321,35.0164699,482.73,-0.0555,-0.016,0.997,-0.36,0.14,0.02,27410.0,-2040.0,-35240.0
32.764321,35.0164699,482.73,-0.0535,-0.01125,1.00025,0.08,-0.46,0.02,27410.0,-2000.0,-35240.0
32.764321,35.0164699,482.73,-0.051,0.02475,1.004,0.46,-0.02,-0.06,27380.0,-1960.0,-35240.0
32.764321,35.0164699,482.73,-0.044,0.01775,0.9955,-0.2,0.34,0.0,27370.0,-1980.0,-35240.0
32.764321,35.0164699,482.73,-0.04125,-0.0145,0.9905,-0.44,-0.3,0.0,27400.0,-2040.0,-35230.0
32.7643211,35.0164699,482.73,-0.0425,-0.003,0.99575,0.22,-0.24,0.08,27420.0,-2060.0,-35240.0
32.7643211,35.0164699,482.73,-0.04875,0.018,1.00225,0.32,0.5,-0.02,27450.0,-2100.0,-35240.0
32.7643211,35.0164699,482.73,-0.05325,0.00425,0.9985,-0.26,0.38,-0.02,27430.0,-2080.0,-35220.0
32.7643211,35.0164699,482.73,-0.05375,-0.00775,0.9985,-0.18,-0.4,0.0,27410.0,-2050.0,-35220.0
32.7643211,35.0164699,482.73,-0.05075,0.01125,0.999,0.22,-0.2,0.0,27420.0,-2070.0,-35210.0
32.7643211,35.0164699,482.73,-0.046,0.0105,0.9965,-0.04,0.28,0.02,27400.0,-2080.0,-35210.0
32.7643211,35.0164699,482.73,-0.041,-0.01325,0.99375,-0.28,-0.06,0.02,27400.0,-2050.0,-35210.0
32.7643211,35.0164699,482.73,-0.0415,-0.00125,0.99675,0.18,-0.36,0.02,27390.0,-2040.0,-35210.0
32.7643211,35.0164699,482.73,-0.048,0.02175,0.99825,0.22,0.38,0.0,27380.0,-2060.0,-35210.0
32.7643211,35.0164699,482.73,-0.052,0.001,0.9965,-0.3,0.46,-0.02,27390.0,-2060.0,-35210.0
32.7643211,35.0164699,482.73,-0.05325,-0.0195,0.99725,-0.18,-0.28,0.08,27410.0,-2050.0,-35230.0
32.7643211,35.0164699,482.73,-0.0505,0.008,1.0025,0.4,-0.34,0.04,27400.0,-2070.0,-35230.0
32.7643211,35.0164699,482.73,-0.04625,0.02825,1.0015,0.18,0.32,-0.02,27410.0,-2070.0,-35210.0
32.7643211,35.0164699,482.73,-0.04275,0.00125,0.99325,-0.34,0.08,0.02,27400.0,-2080.0,-35210.0
32.7643211,35.0164699,482.73,-0.0425,-0.01125,0.99375,-0.1,-0.44,0.08,27430.0,-2130.0,-35200.0
32.7643211,35.0164699,482.73,-0.04725,0.014,0.9995,0.36,0.06,0.06,27430.0,-2100.0,-35200.0
32.7643211,35.0164699,482.73,-0.05075,0.01625,1.00125,0.0,0.56,0.0,27380.0,-2060.0,-35210.0
32.7643211,35.0164699,482.73,-0.0525,-0.0035,0.99825,-0.32,-0.08,0.08,27390.0,-2070.0,-35210.0
32.7643211,35.0164699,482.73,-0.051,0.00375,1.0005,0.1,-0.42,0.0,27410.0,-2130.0,-35200.0
32.7643211,35.0164699,482.73,-0.04875,0.019,0.99925,0.1,0.16,-0.02,27430.0,-2140.0,-35210.0
32.7643211,35.0164699,482.73,-0.04325,-0.0015,0.996,-0.3,0.14,-0.02,27440.0,-2130.0,-35220.0
32.7643211,35.0164699,482.73,-0.04075,-0.01125,0.99425,-0.08,-0.5,0.0,27410.0,-2120.0,-35230.0
32.7643211,35.0164699,482.73,-0.04425,0.01475,0.99775,0.34,-0.14,0.08,27400.0,-2110.0,-35210.0
32.7643211,35.0164699,482.73,-0.05125,0.017,0.99775,-0.08,0.58,-0.02,27430.0,-2160.0,-35210.0
32.7643211,35.0164699,482.73,-0.05375,-0.01525,0.99775,-0.4,0.1,-0.06,27430.0,-2180.0,-35210.0
32.7643211,35.0164699,482.73,-0.05125,-0.01075,0.9985,0.12,-0.46,-0.04,27420.0,-2160.0,-35210.0
32.7643211,35.0164699,482.73,-0.04775,0.0235,1.002,0.4,0.02,-0.04,27430.0,-2150.0,-35200.0
32.7643211,35.0164699,482.73,-0.0425,0.0175,0.995,-0.2,0.32,-0.04,27410.0,-2130.0,-35200.0
32.7643211,35.0164699,482.73,-0.041,-0.01225,0.991,-0.44,-0.24,0.0,27380.0,-2100.0,-35200.0
32.7643211,35.0164699,482.73,-0.044,-0.00025,0.99625,0.24,-0.22,0.0,27380.0,-2140.0,-35200.0
32.7643211,35.0164699,482.73,-0.0505,0.0215,1.003,0.24,0.44,-0.02,27410.0,-2160.0,-35210.0
32.7643211,35.0164699,482.73,-0.05375,0.006,1.0,-0.28,0.38,0.02,27390.0,-2130.0,-35200.0
32.7643211,35.0164699,482.73,-0.0525,-0.005,0.99975,-0.24,-0.44,-0.02,27370.0,-2130.0,-35200.0
32.7643211,35.0164699,482.73,-0.05025,0.01325,0.99925,0.14,-0.24,-0.02,27430.0,-2200.0,-35200.0
32.7643211,35.0164699,482.73,-0.045,0.012,0.9955,-0.12,0.26,0.06,27430.0,-2200.0,-35210.0
32.7643211,35.0164699,482.73,-0.042,-0.012,0.9955,-0.3,-0.14,-0.08,27410.0,-2140.0,-35220.0
32.7643211,35.0164699,482.73,-0.0415,-0.00025,0.997,0.1,-0.44,0.02,27390.0,-2140.0,-35230.0
32.7643211,35.0164699,482.73,-0.05,0.0205,1.0,0.1,0.38,-0.04,27390.0,-2140.0,-35240.0
32.7643211,35.0164699,482.73,-0.054,-0.001,0.99525,-0.3,0.52,0.06,27390.0,-2130.0,-35240.0
32.7643211,35.0164699,482.73,-0.0545,-0.02125,0.99825,-0.2,-0.34,0.0,27400.0,-2150.0,-35240.0
32.764321,35.01647,482.73,-0.04975,0.007,1.0,0.46,-0.46,-0.04,27410.0,-2110.0,-35240.0
32.764321,35.01647,482.73,-0.04325,0.0285,1.0005,0.22,0.24,-0.02,27390.0,-2130.0,-35230.0
32.764321,35.01647,482.73,-0.04125,-0.00075,0.99075,-0.38,0.04,0.0,27430.0,-2190.0,-35210.0
32.764321,35.01647,482.73,-0.042,-0.01325,0.9935,-0.12,-0.48,0.04,27420.0,-2190.0,-35210.0
32.764321,35.01647,482.73,-0.05075,0.01275,0.9995,0.38,0.22,0.0,27380.0,-2140.0,-35200.0
32.764321,35.01647,482.73,-0.05375,0.0155,1.00175,0.04,0.58,0.04,27390.0,-2130.0,-35200.0
32.764321,35.01647,482.73,-0.05475,-0.003,0.99825,-0.28,-0.1,-0.04,27400.0,-2150.0,-35190.0
32.764321,35.01647,482.73,-0.04875,0.0035,0.999,0.02,-0.48,0.04,27380.0,-2100.0,-35200.0
32.764321,35.01647,482.73,-0.044,0.01625,0.9985,0.14,0.1,-0.06,27380.0,-2130.0,-35200.0
32.764321,35.01647,482.73,-0.03925,-0.00175,0.995,-0.26,0.2,0.02,27390.0,-2140.0,-35210.0
32.764321,35.01647,482.73,-0.0395,-0.01175,0.99575,-0.22,-0.34,0.06,27370.0,-2070.0,-35220.0
32.764321,35.01647,482.73,-0.04675,0.01425,0.999,0.36,-0.06,0.04,27350.0,-2060.0,-35210.0
32.764321,35.01647,482.73,-0.05325,0.01625,0.99625,-0.06,0.54,0.0,27390.0,-2100.0,-35200.0
32.764321,35.01647,482.73,-0.05575,-0.0145,0.99525,-0.34,0.1,0.02,27380.0,-2060.0,-35200.0
32.764321,35.01647,482.73,-0.051,-0.01175,0.999,0.18,-0.56,0.02,27360.0,-2090.0,-35200.0
32.764321,35.01647,482.73,-0.047,0.0235,1.0045,0.42,0.02,-0.02,27380.0,-2090.0,-35200.0
32.764321,35.01647,482.73,-0.041,0.0175,0.997,-0.08,0.34,0.06,27400.0,-2120.0,-35200.0
32.764321,35.01647,482.73,-0.03975,-0.01275,0.992,-0.36,-0.26,0.04,27410.0,-2150.0,-35210.0
32.764321,35.01647,482.73,-0.04325,0.0005,0.99475,0.28,-0.22,0.02,27410.0,-2120.0,-35210.0
32.764321,35.01647,482.73,-0.0505,0.0195,1.001,0.32,0.54,0.04,27400.0,-2090.0,-35210.0
32.764321,35.01647,482.73,-0.05475,0.00425,0.998,-0.24,0.36,0.04,27370.0,-2030.0,-35220.0
32.764321,35.01647,482.73,-0.0555,-0.0045,1.0,-0.1,-0.38,0.0,27390.0,-2030.0,-35240.0
32.764321,35.01647,482.73,-0.053,0.015,1.0015,0.14,-0.14,0.02,27400.0,-2060.0,-35250.0
32.764321,35.01647,482.73,-0.04525,0.01225,0.99625,-0.06,0.28,0.04,27380.0,-2030.0,-35230.0
32.764321,35.01647,482.73,-0.041,-0.0125,0.99375,-0.36,-0.2,0.04,27400.0,-2080.0,-35220.0
32.764321,35.01647,482.73,-0.04,0.00025,0.995,0.2,-0.46,-0.04,27450.0,-2120.0,-35210.0
32.764321,35.01647,482.73,-0.048,0.0225,1.001,0.26,0.38,0.04,27460.0,-2130.0,-35210.0
32.764321,35.01647,482.73,-0.053,-0.00025,0.99725,-0.32,0.48,-0.04,27450.0,-2140.0,-35200.0
32.764321,35.01647,482.73,-0.054,-0.0185,0.99825,-0.2,-0.36,-0.04,27430.0,-2110.0,-35200.0
32.764321,35.01647,482.73,-0.0515,0.00925,1.002,0.42,-0.4,0.02,27410.0,-2070.0,-35200.0
32.764321,35.01647,482.73,-0.04575,0.026,0.9995,0.14,0.28,0.04,27410.0,-2070.0,-35220.0
32.764321,35.01647,482.73,-0.04325,-0.002,0.991,-0.44,0.06,0.0,27430.0,-2090.0,-35220.0
32.764321,35.01647,482.73,-0.04175,-0.012,0.99325,-0.02,-0.48,0.0,27390.0,-2050.0,-35210.0
32.764321,35.01647,482.73,-0.048,0.01575,1.001,0.28,0.22,0.1,27410.0,-2050.0,-35210.0
32.764321,35.01647,482.73,-0.05025,0.01425,1.00075,-0.02,0.56,0.0,27430.0,-2090.0,-35210.0
32.764321,35.01647,482.73,-0.0525,-0.00725,0.99725,-0.3,-0.08,-0.02,27440.0,-2090.0,-35220.0
32.764321,35.01647,482.73,-0.0515,0.0045,0.999,0.1,-0.4,0.02,27460.0,-2100.0,-35230.0
32.764321,35.01647,482.73,-0.049,0.01725,0.9995,0.14,0.16,0.04,27430.0,-2070.0,-35240.0
32.764321,35.01647,482.73,-0.04375,-0.002,0.9955,-0.32,0.12,0.02,27410.0,-2030.0,-35240.0
32.764321,35.01647,482.73,-0.03975,-0.00975,0.99525,-0.1,-0.5,0.04,27420.0,-2070.0,-35250.0
32.764321,35.01647,482.73,-0.0435,0.01575,0.99775,0.36,-0.02,0.04,27440.0,-2050.0,-35250.0
32.764321,35.01647,482.73,-0.04925,0.0125,0.99725,-0.04,0.68,0.02,27430.0,-2060.0,-35240.0
32.764321,35.01647,482.73,-0.05375,-0.0175,0.996,-0.26,0.04,0.02,27450.0,-2070.0,-35220.0
32.764321,35.01647,482.73,-0.05225,-0.00525,1.0,0.22,-0.5,0.0,27430.0,-2080.0,-35220.0
32.764321,35.01647,482.73,-0.04925,0.0265,1.0045,0.34,0.02,0.0,27500.0,-2150.0,-35200.0
32.764321,35.01647,482.73,-0.04325,0.01325,0.996,-0.2,0.32,-0.02,27580.0,-2270.0,-35180.0
32.764321,35.01647,482.73,-0.04075,-0.01525,0.99,-0.28,-0.34,0.02,27620.0,-2330.0,-35160.0
32.764321,35.01647,482.73,-0.043,0.0025,0.99625,0.28,-0.22,-0.08,27650.0,-2340.0,-35160.0
32.764321,35.01647,482.73,-0.04875,0.021,1.00225,0.26,0.5,0.02,27660.0,-2350.0,-35160.0
32.764321,35.01647,482.73,-0.05325,0.0035,0.99875,-0.32,0.34,-0.04,27670.0,-2390.0,-35160.0
32.764321,35.01647,482.73,-0.054,-0.004,0.99925,-0.14,-0.36,0.0,27670.0,-2380.0,-35170.0
32.764321,35.01647,482.73,-0.05225,0.01325,0.99875,0.18,-0.06,-0.02,27590.0,-2280.0,-35180.0
32.764321,35.01647,482.73,-0.046,0.00775,0.9965,-0.16,0.26,0.04,27520.0,-2240.0,-35190.0
32.764321,35.01647,482.73,-0.0415,-0.012,0.99425,-0.24,-0.28,0.0,27480.0,-2180.0,-35200.0
32.764321,35.01647,482.73,-0.041,0.0055,0.99725,0.24,-0.36,-0.02,27460.0,-2150.0,-35200.0
32.764321,35.01647,482.73,-0.049,0.0205,1.0,0.16,0.46,0.04,27460.0,-2110.0,-35210.0
32.764321,35.01647,482.73,-0.052,-0.005,0.9955,-0.36,0.42,-0.06,27440.0,-2110.0,-35210.0
32.764321,35.01647,482.73,-0.0525,-0.01825,0.9985,-0.12,-0.4,0.04,27410.0,-2080.0,-35220.0
32.764321,35.01647,482.73,-0.05025,0.0165,1.00225,0.44,-0.22,0.0,27410.0,-2120.0,-35220.0
32.764321,35.01647,482.73,-0.04675,0.027,1.00025,0.08,0.38,-0.02,27420.0,-2130.0,-35210.0
32.764321,35.01647,482.73,-0.04325,-0.00525,0.99,-0.42,-0.12,-0.02,27390.0,-2080.0,-35230.0
32.764321,35.01647,482.73,-0.04225,-0.00925,0.9945,0.02,-0.46,0.02,27380.0,-2080.0,-35230.0
32.764321,35.01647,482.73,-0.04775,0.0175,1.0005,0.4,0.3,-0.04,27400.0,-2160.0,-35220.0
32.764321,35.01647,482.73,-0.05075,0.0135,1.001,-0.08,0.56,0.02,27430.0,-2220.0,-35220.0
32.764321,35.01647,482.73,-0.054,-0.00575,0.99725,-0.3,-0.24,0.02,27460.0,-2250.0,-35210.0
32.764321,35.01647,482.73,-0.0505,0.00725,0.999,0.12,-0.38,0.04,27460.0,-2250.0,-35210.0
32.764321,35.01647,482.73,-0.048,0.0155,0.9985,0.16,0.24,0.06,27480.0,-2240.0,-35200.0
32.764321,35.01647,482.73,-0.0415,-0.0065,0.99475,-0.26,0.0,0.0,27440.0,-2230.0,-35210.0
32.764321,35.01647,482.73,-0.0395,-0.008,0.99525,0.02,-0.48,0.04,27440.0,-2250.0,-35210.0
32.764321,35.01647,482.73,-0.04475,0.01875,0.99875,0.28,0.08,0.02,27430.0,-2260.0,-35210.0
32.764321,35.01647,482.73,-0.0515,0.00975,0.99775,-0.16,0.6,0.06,27430.0,-2250.0,-35230.0
32.764321,35.01647,482.73,-0.05375,-0.01875,0.99625,-0.32,-0.06,0.02,27430.0,-2220.0,-35220.0
32.764321,35.01647,482.73,-0.05125,-0.004,1.001,0.24,-0.5,0.0,27410.0,-2200.0,-35210.0
32.764321,35.01647,482.73,-0.04775,0.028,1.00275,0.36,0.16,0.0,27400.0,-2170.0,-35210.0
32.764321,35.01647,482.73,-0.04175,0.00825,0.99525,-0.26,0.2,0.02,27410.0,-2180.0,-35200.0
32.764321,35.01647,482.73,-0.04025,-0.01475,0.9915,-0.36,-0.34,0.04,27420.0,-2170.0,-35200.0
32.764321,35.01647,482.73,-0.04325,0.005,0.99825,0.32,-0.1,0.0,27380.0,-2120.0,-35210.0
32.764321,35.01647,482.73,-0.0505,0.01925,1.00225,0.14,0.6,-0.04,27390.0,-2130.0,-35220.0
32.764321,35.01647,482.73,-0.05425,0.0005,0.99875,-0.3,0.16,0.0,27400.0,-2170.0,-35230.0
32.764321,35.01647,482.73,-0.055,-0.00325,0.9985,-0.04,-0.42,0.04,27380.0,-2150.0,-35230.0
32.764321,35.0164699,482.73,-0.05175,0.01625,1.00025,0.16,0.02,-0.02,27410.0,-2170.0,-35240.0
32.764321,35.0164699,482.73,-0.0445,0.0045,0.99575,-0.12,0.3,0.0,27400.0,-2150.0,-35240.0
32.764321,35.0164699,482.73,-0.03975,-0.0115,0.994,-0.16,-0.34,0.04,27380.0,-2150.0,-35240.0
32.764321,35.0164699,482.73,-0.043,0.008,0.998,0.24,-0.26,0.06,27400.0,-2200.0,-35230.0
32.764321,35.0164699,482.73,-0.05075,0.0195,0.99875,0.08,0.56,0.02,27400.0,-2200.0,-35220.0
32.764321,35.0164699,482.73,-0.05475,-0.0095,0.9965,-0.38,0.34,0.02,27370.0,-2160.0,-35210.0
32.764321,35.0164699,482.73,-0.05375,-0.01475,0.99825,0.0,-0.5,0.02,27380.0,-2180.0,-35200.0
32.764321,35.0164699,482.73,-0.04975,0.01875,1.00475,0.42,-0.2,0.02,27390.0,-2140.0,-35200.0
32.764321,35.0164699,482.73,-0.044,0.0225,0.998,-0.08,0.38,0.0,27370.0,-2120.0,-35200.0
32.764321,35.0164699,482.73,-0.042,-0.0095,0.9905,-0.38,-0.12,0.04,27410.0,-2110.0,-35200.0
32.764321,35.0164699,482.73,-0.04325,-0.006,0.99425,0.12,-0.4,0.0,27400.0,-2120.0,-35210.0
32.764321,35.0164699,482.73,-0.0495,0.019,1.00275,0.34,0.4,0.0,27400.0,-2090.0,-35210.0
32.764321,35.0164699,482.73,-0.05225,0.00875,1.00025,-0.16,0.46,0.04,27370.0,-2090.0,-35200.0
32.764321,35.0164699,482.73,-0.05325,-0.00575,0.99675,-0.24,-0.3,-0.02,27420.0,-2160.0,-35200.0
32.764321,35.0164699,482.73,-0.05075,0.00975,0.9995,0.18,-0.3,0.0,27440.0,-2180.0,-35200.0
32.764321,35.0164699,482.73,-0.04625,0.01275,0.99875,0.02,0.3,0.0,27430.0,-2150.0,-35200.0
32.764321,35.0164699,482.73,-0.0405,-0.0085,0.994,-0.36,-0.08,0.0,27420.0,-2090.0,-35210.0
32.764321,35.0164699,482.73,-0.04025,-0.00175,0.99575,0.12,-0.42,0.06,27400.0,-2080.0,-35210.0
32.764321,35.0164699,482.73,-0.04575,0.0215,0.99875,0.24,0.2,-0.02,27350.0,-2050.0,-35200.0
32.764321,35.0164699,482.73,-0.05175,0.0025,0.99725,-0.22,0.64,0.02,27390.0,-2070.0,-35200.0
32.764321,35.0164699,482.73,-0.05375,-0.01975,0.9965,-0.2,-0.22,0.0,27390.0,-2050.0,-35220.0
32.764321,35.0164699,482.73,-0.05125,0.00525,1.0015,0.38,-0.38,-0.02,27400.0,-2060.0,-35220.0
32.764321,35.0164699,482.73,-0.04625,0.02875,1.002,0.24,0.22,-0.04,27430.0,-2090.0,-35210.0
32.764321,35.0164699,482.73,-0.04175,0.00175,0.9935,-0.4,0.1,0.0,27420.0,-2100.0,-35200.0
32.764321,35.0164699,482.73,-0.0415,-0.013,0.99025,-0.1,-0.44,0.0,27430.0,-2080.0,-35200.0
32.764321,35.0164699,482.73,-0.04725,0.01025,0.99925,0.42,0.14,-0.08,27430.0,-2090.0,-35210.0
32.764321,35.0164699,482.73,-0.052,0.015,1.00225,0.0,0.54,0.0,27440.0,-2120.0,-35200.0
32.764321,35.0164699,482.73,-0.0545,-0.0035,0.99925,-0.24,0.02,-0.06,27440.0,-2110.0,-35200.0
32.764321,35.0164699,482.73,-0.0525,0.00325,0.99725,0.0,-0.42,0.06,27430.0,-2100.0,-35200.0
32.764321,35.0164699,482.73,-0.04825,0.016,0.9985,0.06,0.14,-0.04,27430.0,-2090.0,-35200.0
32.764321,35.0164699,482.73,-0.042,-0.0025,0.995,-0.22,0.14,0.02,27410.0,-2030.0,-35210.0
32.764321,35.0164699,482.73,-0.04,-0.0105,0.99525,-0.1,-0.4,-0.04,27410.0,-2050.0,-35210.0
32.764321,35.0164699,482.73,-0.04575,0.015,0.999,0.28,-0.12,0.06,27430.0,-2060.0,-35200.0
32.764321,35.0164699,482.73,-0.0525,0.01475,0.998,-0.12,0.62,-0.02,27400.0,-2000.0,-35200.0
32.764321,35.0164699,482.73,-0.0545,-0.0165,0.99575,-0.34,0.08,-0.08,27360.0,-1960.0,-35200.0
32.764321,35.0164699,482.73,-0.051,-0.0095,0.999,0.22,-0.52,0.1,27370.0,-1990.0,-35200.0
32.764321,35.0164699,482.73,-0.0465,0.0245,1.00425,0.46,0.0,0.0,27390.0,-2010.0,-35210.0
32.764321,35.0164699,482.73,-0.041,0.01425,0.997,-0.14,0.32,0.0,27390.0,-2010.0,-35220.0
32.764321,35.0164699,482.73,-0.0405,-0.01325,0.991,-0.34,-0.38,0.02,27380.0,-1990.0,-35230.0
32.764321,35.0164699,482.73,-0.0445,0.0005,0.996,0.24,-0.22,0.04,27390.0,-1980.0,-35230.0
32.764321,35.0164699,482.73,-0.05075,0.019,1.0005,0.22,0.56,-0.02,27380.0,-2020.0,-35240.0
32.764321,35.01647,482.73,-0.05475,0.003,0.999,-0.24,0.3,-0.02,27420.0,-2050.0,-35250.0
32.764321,35.01647,482.73,-0.054,-0.003,0.99825,-0.08,-0.36,0.04,27440.0,-2090.0,-35250.0
32.764321,35.01647,482.73,-0.051,0.01525,1.00025,0.2,-0.14,0.0,27400.0,-2040.0,-35250.0
32.764321,35.01647,482.73,-0.04425,0.009,0.99725,-0.1,0.26,-0.02,27400.0,-2020.0,-35250.0
32.764321,35.01647,482.73,-0.03925,-0.01175,0.99425,-0.28,-0.28,-0.02,27410.0,-2030.0,-35250.0
32.764321,35.01647,482.73,-0.03975,0.0045,0.99575,0.2,-0.34,0.02,27410.0,-2060.0,-35240.0
32.764321,35.01647,482.73,-0.04875,0.02225,0.9985,0.2,0.52,-0.02,27460.0,-2110.0,-35220.0
32.764321,35.01647,482.73,-0.05425,-0.00425,0.99625,-0.3,0.44,0.02,27440.0,-2130.0,-35210.0
32.764321,35.01647,482.73,-0.05475,-0.0175,0.99825,-0.14,-0.46,0.0,27420.0,-2120.0,-35210.0
32.764321,35.01647,482.73,-0.05075,0.01425,1.00375,0.38,-0.3,-0.06,27430.0,-2090.0,-35220.0
32.764321,35.01647,482.73,-0.04525,0.02525,0.9995,0.08,0.32,0.04,27430.0,-2100.0,-35210.0
32.764321,35.01647,482.73,-0.0415,-0.00625,0.99,-0.42,-0.1,0.0,27400.0,-2040.0,-35210.0
32.764321,35.01647,482.73,-0.04125,-0.00875,0.99325,0.04,-0.48,-0.02,27390.0,-2080.0,-35210.0
32.764321,35.01647,482.73,-0.04725,0.0175,1.00075,0.34,0.32,0.06,27410.0,-2120.0,-35210.0
32.764321,35.01647,482.73,-0.052,0.0115,1.0015,-0.18,0.56,-0.02,27410.0,-2110.0,-35210.0
32.764321,35.01647,482.73,-0.05425,-0.00675,0.9985,-0.22,-0.26,-0.02,27380.0,-2070.0,-35210.0
32.764321,35.01647,482.73,-0.05275,0.007,0.998,0.12,-0.34,0.06,27340.0,-2070.0,-35220.0
32.764321,35.01647,482.73,-0.04925,0.0165,0.99825,0.04,0.3,-0.02,27350.0,-2060.0,-35210.0
32.764321,35.01647,482.73,-0.04275,-0.0065,0.9955,-0.32,-0.08,-0.04,27370.0,-2090.0,-35210.0
32.764321,35.0164699,482.73,-0.039,-0.006,0.99575,0.04,-0.54,0.0,27390.0,-2100.0,-35230.0
32.764321,35.0164699,482.73,-0.044,0.01925,0.99925,0.26,0.12,0.02,27390.0,-2120.0,-35220.0
32.764321,35.0164699,482.73,-0.05075,0.0075,0.99675,-0.2,0.62,-0.02,27380.0,-2110.0,-35210.0
32.764321,35.0164699,482.73,-0.05375,-0.0195,0.99675,-0.28,-0.1,0.0,27400.0,-2150.0,-35210.0
32.764321,35.0164699,482.73,-0.05175,-0.0015,1.00075,0.36,-0.52,0.04,27410.0,-2200.0,-35210.0
32.764321,35.0164699,482.73,-0.0485,0.02825,1.003,0.32,0.18,-0.02,27400.0,-2180.0,-35210.0
32.764321,35.0164699,482.73,-0.0435,0.00825,0.99425,-0.32,0.24,0.02,27400.0,-2190.0,-35200.0
32.764321,35.0164699,482.73,-0.041,-0.01525,0.99125,-0.24,-0.4,0.0,27390.0,-2210.0,-35210.0
32.764321,35.0164699,482.73,-0.04425,0.006,0.99725,0.34,-0.1,0.02,27410.0,-2250.0,-35210.0
32.764321,35.0164699,482.73,-0.0505,0.0195,1.003,0.14,0.6,-0.04,27420.0,-2240.0,-35210.0
32.764321,35.0164699,482.73,-0.05375,-0.00025,0.999,-0.28,0.2,-0.06,27420.0,-2210.0,-35210.0
32.764321,35.0164699,482.73,-0.053,-0.00225,0.99875,-0.06,-0.46,-0.08,27480.0,-2260.0,-35190.0
32.764321,35.0164699,482.73,-0.04975,0.0165,0.9985,0.16,0.02,0.06,27570.0,-2390.0,-35170.0
32.764321,35.0164699,482.73,-0.04375,0.00525,0.9955,-0.18,0.3,-0.02,27630.0,-2440.0,-35150.0
32.764321,35.0164699,482.73,-0.03975,-0.0125,0.9955,-0.24,-0.36,0.04,27630.0,-2430.0,-35150.0
32.764321,35.0164699,482.73,-0.04225,0.00775,0.99675,0.18,-0.3,0.02,27660.0,-2460.0,-35160.0
32.764321,35.0164699,482.73,-0.05075,0.02025,0.99775,0.12,0.56,0.02,27660.0,-2450.0,-35160.0
32.764321,35.0164699,482.73,-0.0545,-0.008,0.99525,-0.42,0.38,-0.02,27610.0,-2400.0,-35160.0
32.764321,35.0164699,482.73,-0.0525,-0.01625,0.99875,-0.04,-0.48,-0.04,27520.0,-2330.0,-35190.0
32.764321,35.0164699,482.73,-0.0495,0.0175,1.00325,0.42,-0.2,-0.06,27490.0,-2290.0,-35210.0
32.764321,35.01647,482.73,-0.0445,0.02375,0.998,-0.02,0.34,0.0,27430.0,-2220.0,-35230.0
32.764321,35.01647,482.73,-0.0415,-0.00875,0.9905,-0.44,-0.1,0.06,27400.0,-2190.0,-35240.0
32.764321,35.01647,482.73,-0.0415,-0.00825,0.995,0.02,-0.5,0.06,27380.0,-2150.0,-35240.0
32.764321,35.01647,482.73,-0.04825,0.01925,1.002,0.42,0.34,-0.02,27340.0,-2100.0,-35240.0
32.764321,35.01647,482.73,-0.0525,0.011,0.99975,-0.1,0.5,0.02,27350.0,-2110.0,-35230.0
32.764321,35.01647,482.73,-0.05475,-0.00775,0.99825,-0.28,-0.28,-0.02,27380.0,-2140.0,-35220.0
32.764321,35.01647,482.73,-0.0515,0.00775,1.0005,0.18,-0.34,0.04,27380.0,-2140.0,-35210.0
32.764321,35.01647,482.73,-0.04775,0.01725,0.99875,0.06,0.26,-0.02,27400.0,-2170.0,-35210.0
32.764321,35.01647,482.73,-0.042,-0.00625,0.99375,-0.3,0.0,0.02,27440.0,-2210.0,-35210.0
32.764321,35.01647,482.73,-0.0395,-0.00675,0.99625,0.0,-0.48,0.02,27440.0,-2210.0,-35210.0
32.764321,35.01647,482.73,-0.04625,0.0195,0.99875,0.34,0.14,0.12,27400.0,-2140.0,-35230.0
32.764321,35.01647,482.73,-0.052,0.0085,0.9975,-0.16,0.62,0.0,27420.0,-2130.0,-35220.0
32.764321,35.01647,482.73,-0.054,-0.019,0.99775,-0.28,-0.08,-0.02,27410.0,-2130.0,-35210.0
32.764321,35.01647,482.73,-0.05075,-0.00025,1.001,0.3,-0.5,-0.02,27370.0,-2060.0,-35220.0
32.764321,35.01647,482.73,-0.04725,0.0285,1.0025,0.28,0.22,0.0,27370.0,-2080.0,-35210.0
32.764321,35.01647,482.73,-0.04275,0.007,0.9925,-0.32,0.26,0.0,27390.0,-2070.0,-35210.0
32.764321,35.01647,482.73,-0.0425,-0.01475,0.9925,-0.22,-0.4,0.02,27350.0,-2020.0,-35220.0
32.764321,35.01647,482.73,-0.0455,0.0075,0.99925,0.3,-0.06,-0.08,27360.0,-2050.0,-35220.0
32.764321,35.01647,482.73,-0.0505,0.0195,1.00175,0.1,0.56,0.02,27380.0,-2070.0,-35210.0
32.764321,35.01647,482.73,-0.053,-0.00125,0.9975,-0.28,0.1,-0.06,27370.0,-2020.0,-35210.0
32.764321,35.01647,482.73,-0.052,-0.003,0.99725,-0.06,-0.48,0.02,27380.0,-2010.0,-35230.0
32.764321,35.01647,482.73,-0.04925,0.01675,1.00075,0.22,0.02,0.04,27410.0,-2080.0,-35230.0
32.764321,35.01647,482.73,-0.04425,0.0055,0.99675,-0.18,0.26,0.0,27420.0,-2060.0,-35220.0
32.764321,35.01647,482.73,-0.0405,-0.012,0.99425,-0.24,-0.3,0.08,27400.0,-2080.0,-35220.0
32.764321,35.01647,482.73,-0.0425,0.00825,0.99675,0.22,-0.24,0.02,27410.0,-2080.0,-35210.0
32.764321,35.01647,482.73,-0.0495,0.01975,0.99775,0.1,0.58,0.04,27390.0,-2050.0,-35210.0
32.764321,35.01647,482.73,-0.05375,-0.009,0.99625,-0.38,0.32,0.0,27420.0,-2100.0,-35200.0
32.764321,35.01647,482.73,-0.0525,-0.01525,0.99925,0.02,-0.56,0.04,27450.0,-2150.0,-35210.0
32.764321,35.01647,482.73,-0.05,0.01875,1.0035,0.48,-0.08,0.02,27440.0,-2090.0,-35200.0
32.764321,35.01647,482.73,-0.045,0.023,0.9985,-0.06,0.36,0.02,27390.0,-1990.0,-35210.0
32.764321,35.01647,482.73,-0.04175,-0.0095,0.99125,-0.42,-0.12,0.06,27400.0,-2020.0,-35210.0
32.764321,35.01647,482.73,-0.04225,-0.0075,0.9935,0.12,-0.4,0.02,27440.0,-2050.0,-35210.0
32.764321,35.01647,482.73,-0.0495,0.01975,1.00225,0.42,0.36,0.04,27460.0,-2100.0,-35200.0
32.764321,35.01647,482.73,-0.0535,0.01075,1.00125,-0.14,0.54,-0.02,27460.0,-2100.0,-35200.0
32.764321,35.01647,482.73,-0.054,-0.00775,0.99925,-0.3,-0.32,0.02,27440.0,-2070.0,-35200.0
32.764321,35.01647,482.73,-0.05,0.007,0.999,0.12,-0.34,0.08,27420.0,-2050.0,-35200.0
32.764321,35.01647,482.73,-0.04525,0.01525,0.99675,0.1,0.22,0.0,27430.0,-2050.0,-35210.0
32.764321,35.01647,482.73,-0.04125,-0.0065,0.99375,-0.32,-0.04,0.0,27420.0,-2060.0,-35220.0
32.764321,35.01647,482.73,-0.04125,-0.0055,0.99575,0.0,-0.48,0.08,27390.0,-2030.0,-35210.0
32.764321,35.01647,482.73,-0.049,0.02025,0.9995,0.24,0.14,0.08,27410.0,-2040.0,-35210.0
32.764321,35.01647,482.73,-0.05375,0.00725,0.9975,-0.14,0.64,-0.04,27420.0,-2090.0,-35230.0
32.764321,35.01647,482.73,-0.053,-0.019,0.9975,-0.3,-0.18,-0.04,27410.0,-2080.0,-35230.0
32.764321,35.01647,482.73,-0.0475,0.0,1.001,0.3,-0.56,0.06,27420.0,-2110.0,-35230.0
32.764321,35.01647,482.73,-0.044,0.02975,1.001,0.3,0.24,0.0,27420.0,-2090.0,-35240.0
32.764321,35.01647,482.73,-0.04125,0.0085,0.99325,-0.3,0.3,-0.02,27420.0,-2080.0,-35240.0
32.764321,35.01647,482.73,-0.0425,-0.01575,0.9925,-0.24,-0.4,0.08,27410.0,-2080.0,-35230.0
32.764321,35.01647,482.73,-0.04875,0.0075,0.9995,0.34,-0.1,-0.04,27430.0,-2080.0,-35210.0
32.764321,35.01647,482.73,-0.0535,0.02075,1.00075,0.2,0.66,0.04,27390.0,-2060.0,-35210.0
32.764321,35.01647,482.73,-0.05525,-0.0005,0.99625,-0.26,0.06,0.04,27400.0,-2100.0,-35200.0
32.764321,35.01647,482.73,-0.05125,-0.0035,0.9985,-0.1,-0.52,-0.04,27410.0,-2120.0,-35210.0
32.764321,35.01647,482.73,-0.04775,0.01625,1.00025,0.22,-0.02,0.06,27380.0,-2060.0,-35220.0
32.764321,35.01647,482.73,-0.04175,0.00625,0.9975,-0.2,0.3,-0.04,27380.0,-2110.0,-35210.0
32.764321,35.01647,482.73,-0.03875,-0.0115,0.9945,-0.2,-0.32,0.04,27390.0,-2120.0,-35200.0
32.764321,35.01647,482.73,-0.04175,0.0085,0.99725,0.22,-0.24,0.04,27380.0,-2060.0,-35200.0
32.764321,35.01647,482.73,-0.05025,0.01975,0.998,0.04,0.52,0.06,27380.0,-2130.0,-35200.0
32.764321,35.01647,482.73,-0.0555,-0.008,0.995,-0.28,0.36,-0.04,27420.0,-2150.0,-35200.0
32.764321,35.01647,482.73,-0.0545,-0.01525,0.99975,-0.02,-0.4,-0.04,27410.0,-2110.0,-35200.0
32.764321,35.01647,482.73,-0.05075,0.019,1.0045,0.4,-0.2,-0.08,27380.0,-2080.0,-35210.0
32.764321,35.01647,482.73,-0.0435,0.0245,0.9995,0.0,0.28,0.02,27370.0,-2090.0,-35210.0
32.764321,35.01647,482.73,-0.04,-0.01025,0.99025,-0.46,-0.18,0.02,27390.0,-2110.0,-35210.0
32.764321,35.01647,482.73,-0.04075,-0.0075,0.99475,0.12,-0.4,-0.02,27380.0,-2120.0,-35230.0
32.764321,35.01647,482.73,-0.04875,0.0185,1.0025,0.38,0.46,0.08,27380.0,-2130.0,-35240.0
32.764321,35.01647,482.73,-0.05325,0.01025,1.00025,-0.14,0.52,-0.02,27360.0,-2120.0,-35240.0
32.764321,35.01647,482.73,-0.05475,-0.006,0.99825,-0.28,-0.3,-0.02,27340.0,-2110.0,-35220.0
32.764321,35.01647,482.73,-0.05125,0.008,0.99925,0.14,-0.36,-0.04,27390.0,-2190.0,-35210.0
32.764321,35.01647,482.73,-0.0475,0.014,0.998,-0.02,0.24,-0.02,27420.0,-2240.0,-35210.0
32.764321,35.01647,482.73,-0.042,-0.00825,0.99425,-0.36,-0.04,-0.04,27410.0,-2190.0,-35220.0
32.764321,35.01647,482.73,-0.0415,-0.003,0.996,0.02,-0.44,0.04,27390.0,-2190.0,-35210.0
32.764321,35.01647,482.73,-0.04775,0.02125,1.00025,0.32,0.24,-0.02,27390.0,-2170.0,-35210.0
32.764321,35.01647,482.73,-0.052,0.005,0.9975,-0.26,0.58,0.0,27360.0,-2120.0,-35210.0
32.764321,35.01647,482.73,-0.05275,-0.01975,0.99575,-0.26,-0.26,0.04,27390.0,-2170.0,-35220.0
32.764321,35.01647,482.73,-0.05025,0.00225,1.002,0.38,-0.42,-0.02,27390.0,-2160.0,-35220.0
32.764321,35.01647,482.73,-0.04675,0.02825,1.00325,0.32,0.28,-0.04,27360.0,-2130.0,-35210.0
32.764321,35.01647,482.73,-0.043,0.004,0.99325,-0.34,0.1,-0.02,27390.0,-2200.0,-35210.0
32.764321,35.01647,482.73,-0.04325,-0.01325,0.991,-0.24,-0.46,0.04,27420.0,-2230.0,-35210.0
32.764321,35.01647,482.73,-0.047,0.009,0.999,0.36,0.08,0.08,27410.0,-2200.0,-35210.0
32.764321,35.01647,482.73,-0.051,0.0155,1.002,0.06,0.54,0.0,27400.0,-2180.0,-35200.0
32.764321,35.01647,482.73,-0.053,-0.00325,0.9975,-0.24,0.04,-0.02,27400.0,-2170.0,-35210.0
32.764321,35.01647,482.73,-0.05175,0.001,0.99825,0.04,-0.46,-0.02,27370.0,-2160.0,-35210.0
32.764321,35.01647,482.73,-0.04875,0.01675,1.0005,0.12,0.14,0.0,27410.0,-2200.0,-35220.0
32.764321,35.01647,482.73,-0.04275,-0.00075,0.9955,-0.26,0.18,-0.02,27420.0,-2170.0,-35230.0
32.764321,35.01647,482.73,-0.04025,-0.01175,0.9935,-0.18,-0.38,-0.04,27390.0,-2120.0,-35230.0
32.764321,35.01647,482.73,-0.04425,0.01275,0.998,0.34,-0.12,0.06,27390.0,-2110.0,-35240.0
32.764321,35.01647,482.73,-0.05125,0.0165,0.99975,0.06,0.52,0.0,27400.0,-2170.0,-35240.0
32.764321,35.01647,482.73,-0.05375,-0.013,0.99725,-0.28,0.16,-0.06,27400.0,-2140.0,-35240.0
32.764321,35.01647,482.73,-0.0515,-0.00975,0.99925,0.18,-0.46,-0.02,27390.0,-2150.0,-35240.0
32.764321,35.01647,482.73,-0.04725,0.02325,1.00375,0.4,-0.02,0.04,27400.0,-2150.0,-35220.0
32.764321,35.01647,482.73,-0.0415,0.0155,0.99775,-0.18,0.3,0.0,27400.0,-2120.0,-35210.0
32.764321,35.01647,482.73,-0.04,-0.012,0.99175,-0.32,-0.24,-0.04,27390.0,-2120.0,-35210.0
32.764321,35.01647,482.73,-0.0435,0.0005,0.99525,0.22,-0.2,0.0,27410.0,-2110.0,-35210.0
32.764321,35.01647,482.73,-0.05,0.02,1.002,0.2,0.54,0.04,27390.0,-2100.0,-35220.0
32.764321,35.01647,482.73,-0.054,0.004,0.99875,-0.28,0.3,0.0,27360.0,-2010.0,-35210.0
32.764321,35.01647,482.73,-0.05575,-0.0045,0.9975,-0.2,-0.44,-0.08,27330.0,-2000.0,-35210.0
32.764321,35.01647,482.73,-0.053,0.0145,0.99975,0.26,-0.16,-0.02,27360.0,-2080.0,-35210.0
32.764321,35.01647,482.73,-0.04675,0.00875,0.9985,-0.08,0.26,0.04,27390.0,-2080.0,-35210.0
32.764321,35.01647,482.73,-0.03925,-0.01125,0.99575,-0.26,-0.22,0.04,27420.0,-2100.0,-35220.0
32.764321,35.01647,482.73,-0.039,0.00425,0.99625,0.26,-0.38,-0.06,27410.0,-2100.0,-35210.0
32.764321,35.01647,482.73,-0.04625,0.0215,0.9975,0.18,0.4,0.04,27420.0,-2120.0,-35210.0
32.764321,35.01647,482.73,-0.05275,-0.0035,0.99625,-0.36,0.42,-0.02,27540.0,-2280.0,-35180.0
32.764321,35.01647,482.73,-0.0565,-0.0175,0.99875,-0.12,-0.34,0.02,27600.0,-2340.0,-35170.0
32.764321,35.01647,482.73,-0.05475,0.013,1.003,0.44,-0.3,-0.04,27610.0,-2340.0,-35180.0
32.764321,35.01647,482.73,-0.048,0.02525,1.0,0.08,0.26,0.02,27610.0,-2350.0,-35180.0
32.764321,35.01647,482.73,-0.04125,-0.00575,0.99125,-0.44,-0.08,0.06,27640.0,-2370.0,-35170.0
32.764321,35.01647,482.73,-0.0385,-0.009,0.992,-0.04,-0.54,0.06,27650.0,-2380.0,-35160.0
32.764321,35.01647,482.73,-0.044,0.01625,1.00075,0.36,0.24,0.02,27630.0,-2370.0,-35170.0
32.764321,35.01647,482.73,-0.04925,0.012,1.002,-0.08,0.5,0.02,27550.0,-2260.0,-35190.0
32.764321,35.01647,482.73,-0.05325,-0.00525,0.999,-0.28,-0.16,0.04,27500.0,-2120.0,-35190.0
32.764321,35.01647,482.73,-0.05325,0.00675,1.0,0.16,-0.34,-0.02,27440.0,-2090.0,-35200.0
32.764321,35.01647,482.73,-0.05,0.01475,0.998,0.1,0.26,-0.02,27460.0,-2140.0,-35200.0
32.764321,35.01647,482.73,-0.04275,-0.007,0.994,-0.36,0.02,0.06,27480.0,-2120.0,-35210.0
32.764321,35.01647,482.73,-0.03875,-0.00575,0.996,0.14,-0.5,0.02,27440.0,-2080.0,-35230.0
32.764321,35.01647,482.73,-0.043,0.02,1.00075,0.3,0.1,0.04,27420.0,-2070.0,-35220.0
32.764321,35.01647,482.73,-0.048,0.0095,0.9985,-0.14,0.58,0.0,27420.0,-2050.0,-35210.0
32.764321,35.01647,482.73,-0.052,-0.019,0.99575,-0.32,0.0,0.0,27370.0,-2000.0,-35210.0
32.764321,35.01647,482.73,-0.05225,-0.002,1.00125,0.26,-0.44,0.0,27390.0,-2060.0,-35200.0
32.764321,35.01647,482.73,-0.0505,0.02725,1.00375,0.32,0.24,0.02,27400.0,-2050.0,-35210.0
32.764321,35.01647,482.73,-0.045,0.008,0.994,-0.26,0.14,-0.02,27400.0,-2060.0,-35210.0
32.764321,35.01647,482.73,-0.0425,-0.013,0.991,-0.28,-0.4,0.04,27410.0,-2090.0,-35210.0
32.764321,35.01647,482.73,-0.0445,0.00775,0.998,0.28,-0.08,0.04,27440.0,-2140.0,-35200.0
32.764321,35.01647,482.73,-0.049,0.01725,1.00225,0.1,0.54,0.06,27440.0,-2090.0,-35200.0
32.764321,35.0164699,482.73,-0.0535,-0.00225,0.99825,-0.32,0.1,0.04,27420.0,-2080.0,-35220.0
32.764321,35.0164699,482.73,-0.05475,0.00025,0.99825,0.0,-0.36,0.02,27410.0,-2060.0,-35240.0
32.764321,35.0164699,482.73,-0.0525,0.0175,1.00075,0.14,0.06,0.0,27390.0,-2050.0,-35240.0
32.764321,35.0164699,482.73,-0.045,0.00175,0.99475,-0.26,0.14,-0.02,27400.0,-2070.0,-35240.0
32.764321,35.0164699,482.73,-0.03975,-0.013,0.99425,-0.22,-0.4,-0.06,27410.0,-2080.0,-35240.0
32.764321,35.0164699,482.73,-0.04225,0.0105,0.99775,0.24,-0.18,0.06,27390.0,-2080.0,-35240.0
32.764321,35.0164699,482.73,-0.0495,0.01775,0.99975,0.12,0.54,-0.02,27420.0,-2150.0,-35240.0
32.764321,35.0164699,482.73,-0.05375,-0.0125,0.99625,-0.36,0.26,-0.08,27460.0,-2200.0,-35230.0
32.764321,35.0164699,482.73,-0.05275,-0.01175,0.9975,0.1,-0.48,0.02,27430.0,-2180.0,-35210.0
32.764321,35.0164699,482.73,-0.04875,0.021,1.0035,0.46,-0.04,0.02,27400.0,-2120.0,-35210.0
32.764321,35.0164699,482.73,-0.04275,0.016,0.9965,-0.12,0.3,-0.02,27400.0,-2130.0,-35220.0
32.764321,35.0164699,482.73,-0.041,-0.012,0.99025,-0.36,-0.24,0.04,27420.0,-2130.0,-35210.0
32.764321,35.0164699,482.73,-0.04425,-0.00075,0.99525,0.16,-0.3,0.08,27400.0,-2140.0,-35210.0
32.764321,35.0164699,482.73,-0.05,0.01975,1.002,0.32,0.44,-0.02,27400.0,-2130.0,-35200.0
32.764321,35.0164699,482.73,-0.053,0.00475,0.999,-0.3,0.26,-0.02,27390.0,-2120.0,-35200.0
32.764321,35.0164699,482.73,-0.053,-0.005,0.99575,-0.18,-0.38,0.02,27370.0,-2100.0,-35210.0
32.764321,35.0164699,482.73,-0.04975,0.01325,1.00025,0.16,-0.16,0.06,27410.0,-2140.0,-35210.0
32.764321,35.0164699,482.73,-0.044,0.01025,0.99875,-0.08,0.28,0.04,27420.0,-2170.0,-35220.0
32.764321,35.0164699,482.73,-0.0395,-0.011,0.995,-0.3,-0.26,-0.04,27390.0,-2150.0,-35210.0
32.764321,35.0164699,482.73,-0.04075,0.00275,0.99625,0.14,-0.38,0.02,27380.0,-2130.0,-35210.0
32.764321,35.01647,482.73,-0.04825,0.02025,0.99875,0.16,0.36,-0.02,27410.0,-2150.0,-35220.0
32.764321,35.01647,482.73,-0.05325,-0.0035,0.99575,-0.32,0.44,0.0,27420.0,-2190.0,-35220.0
32.764321,35.01647,482.73,-0.055,-0.0175,0.997,-0.1,-0.32,-0.14,27440.0,-2220.0,-35210.0
32.764321,35.01647,482.73,-0.05175,0.01175,1.00425,0.5,-0.24,-0.04,27420.0,-2210.0,-35210.0
32.764321,35.01647,482.73,-0.04525,0.0235,1.00175,0.06,0.3,-0.02,27420.0,-2200.0,-35200.0
32.764321,35.01647,482.73,-0.04075,-0.00675,0.99075,-0.42,-0.08,0.0,27420.0,-2180.0,-35200.0
32.764321,35.01647,482.73,-0.041,-0.00925,0.99075,0.08,-0.48,0.02,27400.0,-2160.0,-35200.0
32.764321,35.01647,482.73,-0.047,0.016,1.00025,0.4,0.3,0.06,27370.0,-2060.0,-35200.0
32.764321,35.01647,482.73,-0.05175,0.0115,1.00175,-0.08,0.48,-0.02,27330.0,-2060.0,-35200.0
32.764321,35.01647,482.73,-0.05525,-0.00575,0.998,-0.24,-0.2,-0.02,27390.0,-2130.0,-35200.0
32.764321,35.01647,482.73,-0.05475,0.00675,0.99875,0.1,-0.28,0.0,27410.0,-2120.0,-35210.0
32.764321,35.01647,482.73,-0.049,0.0145,0.9985,0.02,0.06,0.02,27410.0,-2190.0,-35210.0
32.764321,35.01647,482.73,-0.0415,-0.007,0.994,-0.3,-0.02,0.0,27390.0,-2180.0,-35210.0
32.764321,35.01647,482.73,-0.03875,-0.004,0.995,0.14,-0.44,-0.04,27380.0,-2140.0,-35200.0
32.764321,35.01647,482.73,-0.0455,0.02025,0.99925,0.24,0.16,0.02,27400.0,-2150.0,-35200.0
