Lat_GNSS,Long_GNSS,Height_GNSS,Acc_X,Acc_Y,Acc_Z,Gyro_X,Gyro_Y,Gyro_Z,Magn_X,Magn_Y,Magn_Z
32.7588757,35.0228402,478.99,-0.0555,0.026,1.0055,-0.06,-0.46,0.0,22270.0,17640.0,-34420.0
32.7588757,35.0228402,478.99,-0.05375,0.0545,1.00975,0.58,-0.16,0.06,22280.0,17620.0,-34420.0
32.7588757,35.0228402,478.99,-0.054,0.07175,0.98825,0.12,0.44,0.06,22270.0,17640.0,-34420.0
32.7588757,35.0228402,478.99,-0.0495,0.0465,0.98625,-0.36,-0.16,-0.04,22270.0,17590.0,-34420.0
32.7588757,35.0228402,478.99,-0.04375,0.0355,1.0015,-0.02,-0.46,0.0,22290.0,17580.0,-34420.0
32.7588757,35.0228402,478.99,-0.051,0.0585,0.995,0.32,0.28,0.06,22270.0,17630.0,-34420.0
32.7588757,35.0228402,478.99,-0.0575,0.05975,0.98725,-0.04,0.44,-0.04,22370.0,17690.0,-34390.0
32.7588757,35.0228402,478.99,-0.056,0.0405,0.9995,-0.24,-0.34,-0.04,22410.0,17600.0,-34390.0
32.7588757,35.0228402,478.99,-0.053,0.047,1.0045,0.02,-0.36,0.0,22440.0,17590.0,-34390.0
32.7588757,35.0228402,478.99,-0.056,0.05975,0.98825,0.12,0.3,0.04,22550.0,17660.0,-34370.0
32.7588757,35.0228402,478.99,-0.0505,0.043,0.985,-0.34,-0.04,0.04,22480.0,17660.0,-34380.0
32.7588757,35.0228402,478.99,-0.042,0.03325,1.00075,-0.08,-0.6,0.02,22340.0,17620.0,-34400.0
32.7588757,35.0228402,478.99,-0.04625,0.0555,1.001,0.24,-0.02,0.0,22280.0,17590.0,-34410.0
32.7588757,35.0228402,478.99,-0.056,0.05825,0.986,-0.06,0.58,0.04,22290.0,17550.0,-34410.0
32.7588757,35.0228402,478.99,-0.05675,0.02775,0.99325,-0.44,-0.12,0.0,22260.0,17530.0,-34420.0
32.7588757,35.0228402,478.99,-0.052,0.02925,1.01175,0.06,-0.52,-0.04,22270.0,17500.0,-34420.0
32.7588757,35.0228402,478.99,-0.0525,0.062,1.0015,0.36,0.12,0.08,22320.0,17480.0,-34420.0
32.7588757,35.0228402,478.99,-0.04875,0.056,0.9845,-0.24,0.2,0.02,22330.0,17480.0,-34410.0
32.7588757,35.0228402,478.99,-0.04275,0.02525,0.9985,-0.38,-0.44,0.0,22330.0,17520.0,-34410.0
32.7588757,35.0228402,478.99,-0.04475,0.03625,1.00825,0.1,-0.12,0.04,22350.0,17570.0,-34400.0
32.7588757,35.0228402,478.99,-0.05525,0.05725,0.99275,0.22,0.58,0.0,22290.0,17520.0,-34410.0
32.7588757,35.0228402,478.99,-0.057,0.04025,0.99025,-0.3,0.08,0.0,22310.0,17510.0,-34410.0
32.7588757,35.0228402,478.99,-0.0535,0.0295,1.00925,-0.1,-0.5,-0.02,22320.0,17500.0,-34410.0
32.7588757,35.0228402,478.99,-0.0545,0.0505,1.0035,0.26,0.06,0.08,22340.0,17520.0,-34400.0
32.7588757,35.0228402,478.99,-0.05375,0.04875,0.984,-0.12,0.34,0.0,22290.0,17540.0,-34410.0
32.7588757,35.0228402,478.99,-0.04475,0.02525,0.994,-0.3,-0.46,-0.02,22290.0,17530.0,-34410.0
32.7588757,35.0228402,478.99,-0.04125,0.0375,1.00775,0.26,-0.36,0.0,22290.0,17510.0,-34410.0
32.7588757,35.0228402,478.99,-0.0515,0.0605,0.9935,0.2,0.58,0.0,22360.0,17600.0,-34400.0
32.7588758,35.0228402,478.98,-0.05825,0.03825,0.9845,-0.36,0.34,0.04,22420.0,17650.0,-34380.0
32.7588758,35.0228402,478.98,-0.05475,0.019,1.005,-0.06,-0.52,0.0,22480.0,17700.0,-34370.0
32.7588758,35.0228402,478.98,-0.05175,0.0475,1.00775,0.48,-0.14,0.0,22480.0,17700.0,-34370.0
32.7588758,35.0228402,478.98,-0.052,0.066,0.98775,0.12,0.36,-0.02,22480.0,17690.0,-34370.0
32.7588758,35.0228402,478.98,-0.046,0.0375,0.987,-0.44,-0.2,0.0,22370.0,17600.0,-34390.0
32.7588758,35.0228402,478.98,-0.042,0.0265,1.0025,-0.02,-0.52,0.02,22270.0,17630.0,-34410.0
32.7588758,35.0228402,478.98,-0.0505,0.05325,0.99775,0.34,0.36,0.02,22210.0,17640.0,-34410.0
32.7588758,35.0228402,478.98,-0.057,0.05525,0.98675,-0.02,0.48,0.02,22230.0,17600.0,-34420.0
32.7588758,35.0228402,478.98,-0.0545,0.0345,0.99975,-0.26,-0.42,0.0,22190.0,17600.0,-34420.0
32.7588758,35.0228402,478.98,-0.0505,0.04325,1.00775,0.18,-0.28,0.02,22170.0,17580.0,-34420.0
32.7588758,35.0228402,478.98,-0.05275,0.05975,0.99025,0.16,0.36,0.08,22230.0,17600.0,-34420.0
32.7588758,35.0228402,478.98,-0.0485,0.04125,0.98625,-0.3,0.0,0.0,22330.0,17710.0,-34400.0
32.7588758,35.0228402,478.98,-0.0415,0.03125,1.004,-0.08,-0.54,0.02,22290.0,17620.0,-34410.0
32.7588758,35.0228402,478.98,-0.04675,0.05875,1.0025,0.36,0.16,0.06,22260.0,17560.0,-34420.0
32.7588758,35.0228402,478.98,-0.0585,0.061,0.98625,-0.12,0.68,0.0,22250.0,17560.0,-34420.0
32.7588758,35.0228402,478.98,-0.0585,0.02875,0.995,-0.4,-0.16,0.04,22250.0,17620.0,-34420.0
32.7588758,35.0228402,478.98,-0.05225,0.03325,1.01225,0.22,-0.44,-0.02,22280.0,17670.0,-34410.0
32.7588758,35.0228402,478.98,-0.0535,0.06775,0.99875,0.44,0.32,0.02,22310.0,17680.0,-34410.0
32.7588758,35.0228402,478.98,-0.05125,0.0575,0.983,-0.32,0.28,-0.02,22300.0,17640.0,-34410.0
32.7588758,35.0228402,478.98,-0.045,0.027,0.9985,-0.38,-0.52,-0.02,22320.0,17640.0,-34410.0
32.7588757,35.0228402,478.98,-0.0465,0.0425,1.00475,0.3,-0.06,0.04,22350.0,17700.0,-34400.0
32.7588757,35.0228402,478.98,-0.058,0.06275,0.98875,0.14,0.68,-0.04,22400.0,17720.0,-34390.0
32.7588757,35.0228402,478.98,-0.0605,0.0425,0.99075,-0.38,0.02,-0.04,22420.0,17610.0,-34390.0
32.7588757,35.0228402,478.98,-0.05475,0.03125,1.00875,-0.1,-0.62,0.04,22390.0,17570.0,-34400.0
32.7588757,35.0228402,478.98,-0.055,0.0525,0.99925,0.24,0.08,0.02,22310.0,17600.0,-34410.0
32.7588757,35.0228402,478.98,-0.05425,0.0515,0.98275,-0.18,0.32,0.02,22290.0,17630.0,-34420.0
32.7588757,35.0228402,478.98,-0.044,0.0285,0.99525,-0.32,-0.6,0.02,22290.0,17620.0,-34420.0
32.7588757,35.0228402,478.98,-0.0395,0.04,1.00775,0.14,-0.52,0.02,22240.0,17650.0,-34420.0
32.7588757,35.0228402,478.98,-0.05075,0.06025,0.99225,0.12,0.54,-0.04,22270.0,17670.0,-34420.0
32.7588757,35.0228402,478.98,-0.057,0.038,0.98375,-0.36,0.34,-0.02,22290.0,17640.0,-34420.0
32.7588757,35.0228402,478.98,-0.0535,0.01925,1.00675,-0.12,-0.58,0.0,22300.0,17730.0,-34410.0
32.7588757,35.0228402,478.98,-0.0505,0.0485,1.0115,0.34,-0.22,0.02,22340.0,17710.0,-34400.0
32.7588757,35.0228402,478.98,-0.05075,0.06575,0.988,0.1,0.38,-0.02,22330.0,17650.0,-34400.0
32.7588757,35.0228402,478.98,-0.046,0.03575,0.9855,-0.46,-0.14,0.0,22330.0,17620.0,-34410.0
32.7588757,35.0228402,478.98,-0.04175,0.023,1.0065,-0.06,-0.52,0.0,22350.0,17570.0,-34410.0
32.7588757,35.0228402,478.98,-0.04975,0.05175,1.001,0.34,0.24,0.08,22390.0,17550.0,-34400.0
32.7588757,35.0228402,478.98,-0.0565,0.05525,0.9855,-0.02,0.6,-0.04,22400.0,17560.0,-34400.0
32.7588757,35.0228402,478.98,-0.056,0.031,0.999,-0.36,-0.28,-0.04,22400.0,17560.0,-34400.0
32.7588757,35.0228402,478.98,-0.05275,0.03725,1.0105,0.18,-0.36,0.04,22420.0,17540.0,-34400.0
32.7588757,35.0228402,478.98,-0.05425,0.0565,0.9895,0.18,0.26,0.04,22390.0,17560.0,-34410.0
32.7588757,35.0228402,478.98,-0.049,0.04075,0.9815,-0.22,0.08,0.0,22460.0,17650.0,-34390.0
32.7588757,35.0228402,478.98,-0.0435,0.029,1.00275,-0.06,-0.52,-0.04,22580.0,17710.0,-34360.0
32.7588757,35.0228402,478.98,-0.05025,0.0545,1.003,0.42,0.12,0.06,22580.0,17760.0,-34360.0
32.7588757,35.0228402,478.98,-0.0605,0.0575,0.98425,-0.02,0.66,0.1,22560.0,17790.0,-34360.0
32.7588757,35.0228402,478.98,-0.05975,0.028,0.99225,-0.34,-0.14,0.0,22560.0,17800.0,-34360.0
32.7588757,35.0228402,478.98,-0.05125,0.032,1.0105,0.28,-0.62,-0.02,22500.0,17720.0,-34370.0
32.7588757,35.0228402,478.98,-0.04975,0.066,0.999,0.42,0.16,0.02,22440.0,17600.0,-34390.0
32.7588757,35.0228402,478.98,-0.0485,0.0585,0.9825,-0.24,0.16,0.0,22410.0,17580.0,-34400.0
32.7588757,35.0228402,478.98,-0.044,0.02625,0.99725,-0.3,-0.44,-0.02,22380.0,17570.0,-34400.0
32.7588757,35.0228402,478.98,-0.0465,0.04,1.0065,0.3,-0.14,0.0,22360.0,17570.0,-34410.0
32.7588757,35.0228402,478.98,-0.05775,0.0645,0.99175,0.28,0.6,0.06,22400.0,17500.0,-34410.0
32.7588757,35.0228402,478.98,-0.05925,0.04775,0.99125,-0.34,0.12,0.0,22410.0,17330.0,-34420.0
32.7588757,35.0228402,478.98,-0.05275,0.03175,1.00875,-0.1,-0.6,0.0,22370.0,17270.0,-34440.0
32.7588757,35.0228402,478.98,-0.05025,0.05125,1.002,0.26,0.02,-0.02,22380.0,17190.0,-34440.0
32.7588757,35.0228402,478.98,-0.04975,0.0555,0.985,-0.06,0.34,0.0,22420.0,17120.0,-34450.0
32.7588757,35.0228402,478.98,-0.04175,0.033,0.9965,-0.36,-0.34,0.06,22370.0,17120.0,-34450.0
32.7588757,35.0228402,478.98,-0.0395,0.04025,1.00775,0.14,-0.44,-0.06,22420.0,17150.0,-34440.0
32.7588757,35.0228402,478.98,-0.0515,0.0635,0.99375,0.22,0.6,0.04,22450.0,17280.0,-34420.0
32.7588757,35.0228402,478.98,-0.05975,0.04375,0.98625,-0.38,0.42,-0.02,22400.0,17390.0,-34410.0
32.7588757,35.0228402,478.98,-0.05475,0.02,1.0055,-0.26,-0.5,-0.04,22350.0,17410.0,-34420.0
32.7588757,35.0228402,478.98,-0.05025,0.0465,1.0095,0.44,-0.22,0.1,22370.0,17480.0,-34410.0
32.7588757,35.0228402,478.99,-0.05125,0.07075,0.9875,0.14,0.44,0.0,22450.0,17650.0,-34380.0
32.7588757,35.0228402,478.99,-0.0465,0.0425,0.98675,-0.56,-0.08,0.0,22510.0,17770.0,-34360.0
32.7588757,35.0228402,478.99,-0.04175,0.0235,1.00475,-0.18,-0.46,0.02,22490.0,17750.0,-34370.0
32.7588757,35.0228402,478.99,-0.05075,0.052,0.9995,0.38,0.34,0.04,22420.0,17700.0,-34380.0
32.7588757,35.0228402,478.99,-0.06,0.05925,0.98625,-0.02,0.62,0.0,22350.0,17670.0,-34390.0
32.7588757,35.0228402,478.99,-0.05825,0.03525,0.99975,-0.36,-0.34,0.04,22310.0,17630.0,-34400.0
32.7588757,35.0228402,478.99,-0.05225,0.03775,1.012,0.08,-0.44,0.04,22270.0,17600.0,-34410.0
32.7588757,35.0228402,478.99,-0.05425,0.05625,0.99125,0.14,0.34,0.02,22340.0,17540.0,-34400.0
32.7588757,35.0228402,478.99,-0.04975,0.04075,0.98275,-0.3,0.06,0.06,22350.0,17490.0,-34400.0
32.7588757,35.0228402,478.99,-0.04075,0.02625,1.00425,-0.1,-0.7,0.02,22340.0,17560.0,-34400.0
32.7588757,35.0228402,478.99,-0.0455,0.052,1.005,0.3,0.0,0.06,22280.0,17620.0,-34400.0
32.7588757,35.0228402,478.99,-0.0575,0.0585,0.9845,-0.04,0.78,0.0,22280.0,17580.0,-34410.0
32.7588757,35.0228402,478.99,-0.05825,0.02725,0.99225,-0.54,-0.1,0.0,22330.0,17600.0,-34400.0
32.7588757,35.0228402,478.99,-0.05225,0.02875,1.01175,0.08,-0.68,-0.08,22320.0,17550.0,-34400.0
32.7588757,35.0228402,478.99,-0.052,0.06175,1.0025,0.4,0.24,0.0,22380.0,17520.0,-34390.0
32.7588757,35.0228402,478.99,-0.0495,0.059,0.9775,-0.18,0.36,0.06,22360.0,17530.0,-34400.0
32.7588757,35.0228402,478.99,-0.04225,0.02725,0.99675,-0.48,-0.54,-0.02,22340.0,17600.0,-34400.0
32.7588757,35.0228402,478.99,-0.04275,0.036,1.00325,0.24,-0.2,0.0,22420.0,17580.0,-34390.0
32.7588757,35.0228402,478.99,-0.05325,0.06225,0.991,0.2,0.64,0.06,22480.0,17540.0,-34380.0
32.7588757,35.0228402,479.0,-0.05775,0.045,0.9855,-0.32,0.24,-0.02,22470.0,17610.0,-34380.0
32.7588757,35.0228402,479.0,-0.05275,0.03375,1.0085,-0.12,-0.54,0.02,22520.0,17680.0,-34360.0
32.7588757,35.0228402,479.0,-0.05275,0.049,0.99975,0.22,0.02,0.04,22550.0,17710.0,-34360.0
32.7588757,35.0228402,479.0,-0.053,0.05475,0.986,-0.12,0.36,0.02,22520.0,17780.0,-34360.0
32.7588757,35.0228402,479.0,-0.04525,0.0335,0.9895,-0.24,-0.26,-0.04,22560.0,17770.0,-34350.0
32.7588757,35.0228402,479.0,-0.0395,0.0395,1.00875,0.1,-0.46,-0.04,22560.0,17750.0,-34350.0
32.7588757,35.0228402,479.0,-0.0505,0.065,0.993,0.2,0.48,0.04,22460.0,17720.0,-34370.0
32.7588757,35.0228402,479.0,-0.05675,0.0455,0.9885,-0.34,0.52,0.04,22430.0,17620.0,-34380.0
32.7588757,35.0228402,479.0,-0.0565,0.02425,1.00325,-0.24,-0.3,-0.02,22480.0,17580.0,-34380.0
32.7588757,35.0228402,479.0,-0.0525,0.04575,1.01175,0.28,-0.28,0.04,22470.0,17580.0,-34390.0
32.7588757,35.0228402,479.0,-0.0535,0.07025,0.99325,0.1,0.4,0.02,22460.0,17630.0,-34380.0
32.7588757,35.0228402,479.0,-0.04725,0.04325,0.98675,-0.48,0.04,-0.02,22450.0,17650.0,-34380.0
32.7588757,35.0228402,479.0,-0.044,0.02475,1.004,-0.24,-0.52,0.02,22410.0,17620.0,-34390.0
32.7588757,35.0228402,479.0,-0.051,0.048,1.00275,0.32,0.18,-0.02,22440.0,17580.0,-34390.0
32.7588757,35.0228402,479.0,-0.057,0.05775,0.9905,-0.06,0.58,0.02,22450.0,17590.0,-34390.0
32.7588757,35.0228402,479.0,-0.05625,0.03575,1.003,-0.38,-0.22,-0.06,22440.0,17640.0,-34390.0
32.7588757,35.0228402,479.0,-0.0555,0.038,1.0085,-0.02,-0.34,0.02,22440.0,17690.0,-34380.0
32.7588757,35.0228402,479.0,-0.05675,0.05625,0.98975,0.2,0.36,-0.02,22430.0,17670.0,-34380.0
32.7588757,35.0228402,479.0,-0.047,0.03775,0.98575,-0.5,0.14,0.02,22390.0,17630.0,-34390.0
32.7588757,35.0228402,479.0,-0.04275,0.0265,1.007,-0.24,-0.26,-0.04,22340.0,17660.0,-34400.0
32.7588757,35.0228402,478.99,-0.0505,0.05125,0.9985,0.36,0.16,-0.04,22400.0,17700.0,-34390.0
32.7588757,35.0228402,478.99,-0.05675,0.056,0.98225,-0.04,0.3,-0.02,22520.0,17740.0,-34370.0
32.7588757,35.0228402,478.99,-0.05425,0.025,1.0005,-0.52,-0.18,-0.02,22430.0,17710.0,-34380.0
32.7588757,35.0228402,478.99,-0.052,0.02875,1.01225,0.22,-0.28,0.02,22440.0,17710.0,-34380.0
32.7588757,35.0228402,478.99,-0.054,0.06125,0.99175,0.4,0.22,0.04,22440.0,17700.0,-34380.0
32.7588757,35.0228402,478.99,-0.04775,0.0565,0.98525,-0.36,0.04,0.04,22380.0,17700.0,-34390.0
32.7588757,35.0228402,478.99,-0.04025,0.02775,1.005,-0.32,-0.42,-0.02,22440.0,17650.0,-34390.0
32.7588757,35.0228402,478.99,-0.0445,0.0345,0.99825,0.16,0.02,-0.02,22500.0,17640.0,-34380.0
32.7588757,35.0228402,478.99,-0.05575,0.0515,0.97825,0.06,0.66,0.02,22430.0,17690.0,-34390.0
32.7588757,35.0228402,478.99,-0.05375,0.03675,0.98975,-0.34,0.0,0.02,22340.0,17680.0,-34400.0
32.7588757,35.0228402,478.99,-0.051,0.031,1.005,-0.02,-0.46,0.0,22400.0,17740.0,-34390.0
32.7588757,35.0228402,478.99,-0.0545,0.048,0.9885,0.26,0.14,-0.04,22500.0,17780.0,-34370.0
32.7588757,35.0228402,478.99,-0.05375,0.04925,0.97725,-0.04,0.28,0.04,22510.0,17670.0,-34380.0
32.7588757,35.0228402,478.99,-0.0435,0.03275,1.00525,-0.08,-0.46,-0.02,22480.0,17620.0,-34390.0
32.7588757,35.0228402,478.99,-0.04,0.0435,1.01025,0.22,-0.24,-0.06,22480.0,17600.0,-34390.0
32.7588757,35.0228402,478.99,-0.0505,0.0635,0.98875,0.12,0.54,0.02,22490.0,17610.0,-34380.0
32.7588757,35.0228402,478.99,-0.057,0.045,0.99575,-0.36,0.3,0.0,22450.0,17650.0,-34390.0
32.7588757,35.0228402,478.99,-0.05625,0.026,1.0185,-0.12,-0.38,-0.02,22380.0,17740.0,-34400.0
32.7588757,35.0228402,478.99,-0.055,0.0485,1.01225,0.26,-0.08,-0.02,22310.0,17790.0,-34400.0
32.7588757,35.0228402,478.99,-0.057,0.071,0.99575,0.02,0.3,0.0,22350.0,17770.0,-34400.0
32.7588757,35.0228402,478.99,-0.05025,0.0445,1.0015,-0.48,-0.06,0.02,22410.0,17760.0,-34390.0
32.7588757,35.0228402,478.99,-0.0455,0.02725,1.01025,-0.28,-0.36,0.0,22480.0,17850.0,-34370.0
32.7588757,35.0228402,478.99,-0.052,0.0525,0.99575,0.32,0.24,-0.02,22440.0,17900.0,-34370.0
32.7588757,35.0228402,478.99,-0.057,0.0605,0.987,0.0,0.46,-0.02,22410.0,17930.0,-34370.0
32.7588757,35.0228402,478.99,-0.05625,0.0375,1.00225,-0.4,-0.24,-0.02,22410.0,17930.0,-34370.0
32.7588757,35.0228402,478.99,-0.058,0.03925,1.00575,-0.04,-0.26,0.02,22440.0,17940.0,-34360.0
32.7588757,35.0228402,478.99,-0.06225,0.0575,0.97975,0.16,0.34,-0.04,22400.0,17840.0,-34380.0
32.7588757,35.0228402,478.99,-0.0525,0.04475,0.98225,-0.26,-0.08,0.02,22340.0,17790.0,-34390.0
32.7588757,35.0228402,478.99,-0.04175,0.038,1.008,-0.18,-0.7,0.0,22380.0,17710.0,-34390.0
32.7588757,35.0228402,478.99,-0.0455,0.06425,0.99725,0.2,-0.02,0.02,22400.0,17670.0,-34390.0
32.7588757,35.0228402,478.99,-0.05325,0.06475,0.97775,-0.3,0.64,0.0,22380.0,17700.0,-34390.0
32.7588757,35.0228402,478.99,-0.053,0.03475,0.99525,-0.62,-0.2,0.0,22420.0,17730.0,-34380.0
32.7588757,35.0228402,478.99,-0.05075,0.0385,1.01625,0.0,-0.5,0.02,22340.0,17760.0,-34390.0
32.7588757,35.0228402,478.99,-0.05425,0.0685,0.99575,0.04,0.18,-0.02,22290.0,17780.0,-34400.0
32.7588757,35.0228402,478.99,-0.0485,0.061,0.98475,-0.58,0.12,-0.02,22250.0,17750.0,-34410.0
32.7588757,35.0228402,478.99,-0.0425,0.0335,1.0075,-0.66,-0.54,0.04,22290.0,17720.0,-34400.0
32.7588757,35.0228402,478.99,-0.04425,0.04125,1.00975,-0.14,-0.1,-0.04,22320.0,17780.0,-34390.0
32.7588757,35.0228402,478.99,-0.05275,0.05775,0.99125,-0.2,0.64,0.02,22340.0,17770.0,-34390.0
32.7588757,35.0228402,478.99,-0.0515,0.04625,1.0005,-0.62,0.0,-0.1,22340.0,17710.0,-34390.0
32.7588757,35.0228402,478.99,-0.04925,0.036,1.01725,-0.44,-0.44,0.0,22280.0,17690.0,-34400.0
32.7588757,35.0228402,478.99,-0.05325,0.05025,0.999,-0.1,0.22,-0.02,22370.0,17690.0,-34390.0
32.7588757,35.0228402,478.99,-0.054,0.04725,0.98125,-0.38,0.36,0.0,22470.0,17770.0,-34370.0
32.7588757,35.0228402,478.99,-0.04475,0.025,1.0025,-0.54,-0.44,-0.16,22420.0,17760.0,-34380.0
32.7588757,35.0228402,478.99,-0.04325,0.03475,1.00925,-0.08,-0.26,-0.08,22340.0,17700.0,-34390.0
32.7588757,35.0228402,478.99,-0.056,0.05475,0.9795,-0.02,0.62,-0.02,22390.0,17690.0,-34380.0
32.7588757,35.0228402,478.99,-0.06,0.03325,0.9775,-0.56,0.34,-0.02,22450.0,17670.0,-34380.0
32.7588757,35.0228402,478.99,-0.057,0.012,1.0045,-0.38,-0.56,0.0,22400.0,17630.0,-34390.0
32.7588757,35.0228402,478.99,-0.05475,0.037,0.99775,0.3,-0.14,-0.04,22360.0,17620.0,-34400.0
32.7588757,35.0228402,478.99,-0.0545,0.0545,0.97275,-0.04,0.38,-0.02,22350.0,17620.0,-34400.0
32.7588757,35.0228402,478.99,-0.04475,0.0315,0.991,-0.48,-0.36,0.02,22280.0,17640.0,-34410.0
32.7588757,35.0228402,478.99,-0.041,0.02275,1.01025,-0.12,-0.52,0.02,22300.0,17660.0,-34400.0
32.7588757,35.0228402,478.99,-0.051,0.046,0.9865,0.14,0.44,0.08,22330.0,17700.0,-34400.0
32.7588757,35.0228402,478.99,-0.057,0.04875,0.98075,-0.24,0.42,0.08,22320.0,17670.0,-34400.0
32.7588757,35.0228402,478.99,-0.0535,0.032,1.01075,-0.38,-0.46,-0.02,22370.0,17610.0,-34400.0
32.7588757,35.0228402,478.99,-0.0525,0.0395,1.01225,0.02,-0.26,0.04,22430.0,17570.0,-34390.0
32.7588757,35.0228402,478.99,-0.05625,0.05275,0.98375,-0.04,0.48,0.04,22380.0,17600.0,-34400.0
32.7588757,35.0228402,478.99,-0.047,0.0375,0.99325,-0.38,-0.08,0.02,22380.0,17630.0,-34390.0
32.7588757,35.0228402,478.99,-0.0365,0.0305,1.02225,-0.22,-0.7,-0.1,22390.0,17590.0,-34400.0
32.7588757,35.0228402,478.99,-0.042,0.05525,1.0065,0.12,0.2,0.06,22360.0,17460.0,-34410.0
32.7588757,35.0228402,478.99,-0.05325,0.06225,0.98375,-0.24,0.68,0.0,22370.0,17340.0,-34430.0
32.7588757,35.0228402,478.99,-0.055,0.0355,1.01025,-0.62,-0.16,-0.04,22420.0,17320.0,-34420.0
32.7588757,35.0228402,478.98,-0.052,0.0365,1.031,-0.12,-0.4,0.0,22500.0,17460.0,-34400.0
32.7588757,35.0228402,478.98,-0.05525,0.071,1.0015,0.04,0.36,-0.02,22580.0,17450.0,-34390.0
32.7588757,35.0228402,478.98,-0.05075,0.0695,0.99,-0.5,0.22,-0.04,22610.0,17440.0,-34380.0
32.7588757,35.0228402,478.98,-0.0425,0.045,1.023,-0.84,-0.48,-0.04,22470.0,17500.0,-34400.0
32.7588757,35.0228402,478.98,-0.04375,0.05525,1.025,-0.32,-0.12,-0.14,22450.0,17670.0,-34380.0
32.7588757,35.0228402,478.98,-0.05825,0.0765,0.99275,-0.44,0.66,-0.02,22490.0,17780.0,-34360.0
32.7588757,35.0228402,478.98,-0.0585,0.064,1.007,-0.92,0.04,-0.12,22480.0,17870.0,-34360.0
32.7588757,35.0228402,478.98,-0.05575,0.0565,1.03525,-0.74,-0.58,-0.06,22540.0,17860.0,-34350.0
32.7588757,35.0228402,478.98,-0.05825,0.06975,1.012,-0.66,0.08,-0.04,22580.0,17830.0,-34350.0
32.7588757,35.0228402,478.98,-0.06075,0.0625,0.9895,-1.16,0.38,-0.02,22560.0,17750.0,-34350.0
32.7588757,35.0228402,478.98,-0.05175,0.04325,1.0115,-1.22,-0.34,-0.04,22500.0,17800.0,-34360.0
32.7588757,35.0228402,478.98,-0.047,0.05175,1.01825,-0.74,-0.48,0.0,22430.0,17740.0,-34370.0
32.7588757,35.0228402,478.98,-0.05475,0.06325,0.98875,-0.94,0.34,0.02,22400.0,17770.0,-34370.0
32.7588757,35.0228402,478.98,-0.06225,0.0405,0.98975,-1.24,0.34,0.06,22310.0,17780.0,-34390.0
32.7588757,35.0228402,478.98,-0.061,0.02475,1.01225,-1.02,-0.44,0.04,22270.0,17770.0,-34390.0
32.7588757,35.0228402,478.98,-0.059,0.0435,0.99825,-0.58,-0.3,0.0,22280.0,17770.0,-34390.0
32.7588757,35.0228402,478.98,-0.05775,0.05375,0.97925,-0.7,0.04,0.08,22300.0,17830.0,-34380.0
32.7588757,35.0228402,478.98,-0.05175,0.0355,0.99275,-1.06,-0.3,0.14,22340.0,17880.0,-34370.0
32.7588757,35.0228402,478.98,-0.049,0.027,1.0,-0.84,-0.48,0.16,22290.0,17850.0,-34380.0
32.7588757,35.0228402,478.98,-0.05525,0.04,0.97675,-0.48,-0.08,0.1,22290.0,17890.0,-34370.0
32.7588757,35.0228402,478.98,-0.05875,0.03925,0.982,-0.66,0.02,0.12,22390.0,17960.0,-34350.0
32.7588757,35.0228402,478.98,-0.0575,0.0315,1.00325,-0.88,-0.42,0.12,22440.0,17980.0,-34340.0
32.7588757,35.0228402,478.98,-0.05675,0.0365,0.988,-0.68,-0.38,0.18,22340.0,17960.0,-34360.0
32.7588757,35.0228402,478.98,-0.0575,0.03625,0.968,-0.68,-0.18,0.16,22280.0,17940.0,-34370.0
32.7588757,35.0228402,478.98,-0.0485,0.024,0.98725,-0.82,-0.38,0.1,22280.0,17890.0,-34380.0
32.7588757,35.0228402,478.98,-0.0415,0.0235,0.99925,-0.68,-0.68,0.04,22250.0,17870.0,-34380.0
32.7588757,35.0228402,478.98,-0.045,0.035,0.9715,-0.54,-0.26,0.08,22280.0,17810.0,-34380.0
32.7588757,35.0228402,478.98,-0.05175,0.028,0.9685,-0.7,0.04,-0.04,22310.0,17830.0,-34370.0
32.7588757,35.0228402,478.98,-0.0495,0.00525,0.99825,-0.92,-0.38,0.02,22280.0,17820.0,-34380.0
32.7588757,35.0228402,478.98,-0.0465,0.00775,0.9955,-0.5,-0.48,-0.1,22270.0,17850.0,-34370.0
32.7588757,35.0228402,478.98,-0.0475,0.0315,0.9695,-0.14,-0.14,-0.1,22310.0,17870.0,-34370.0
32.7588757,35.0228402,478.98,-0.03975,0.023,0.9835,-0.58,-0.3,-0.12,22280.0,17840.0,-34380.0
32.7588757,35.0228402,478.98,-0.0345,-0.00175,1.00175,-0.56,-0.48,-0.12,22260.0,17840.0,-34380.0
32.7588757,35.0228402,478.98,-0.03825,0.004,0.983,-0.14,-0.06,-0.12,22280.0,17810.0,-34370.0
32.7588757,35.0228402,478.98,-0.04775,0.019,0.964,0.1,0.16,-0.1,22390.0,17780.0,-34360.0
32.7588757,35.0228402,478.98,-0.04275,0.0145,1.00225,-0.08,-0.16,-0.16,22420.0,17760.0,-34360.0
32.7588757,35.0228402,478.98,-0.044,0.0055,1.01075,0.02,-0.28,-0.06,22440.0,17750.0,-34350.0
32.7588757,35.0228402,478.98,-0.046,0.0215,0.97675,0.48,0.16,-0.02,22460.0,17770.0,-34350.0
32.7588757,35.0228402,478.98,-0.04525,0.02425,0.97175,0.22,0.06,-0.02,22460.0,17740.0,-34350.0
32.7588756,35.0228402,478.99,-0.03375,0.01525,1.014,0.18,-0.4,0.02,22530.0,17740.0,-34340.0
32.7588756,35.0228402,478.99,-0.03325,0.02625,1.0045,0.48,-0.08,0.02,22580.0,17840.0,-34330.0
32.7588756,35.0228402,478.99,-0.0435,0.05125,0.97275,0.54,0.4,0.08,22530.0,17820.0,-34340.0
32.7588756,35.0228402,478.99,-0.0505,0.04075,0.989,0.12,0.28,0.1,22490.0,17760.0,-34350.0
32.7588756,35.0228402,478.99,-0.0475,0.023,1.02325,0.12,-0.24,0.08,22490.0,17730.0,-34350.0
32.7588756,35.0228402,478.99,-0.051,0.04725,1.0,0.64,0.12,0.08,22460.0,17710.0,-34360.0
32.7588756,35.0228402,478.99,-0.05425,0.07,0.977,0.38,0.36,0.04,22570.0,17740.0,-34340.0
32.7588756,35.0228402,478.99,-0.04575,0.052,1.001,-0.08,-0.16,0.04,22620.0,17820.0,-34320.0
32.7588756,35.0228402,478.99,-0.04175,0.0355,1.01575,0.08,-0.22,0.12,22600.0,17930.0,-34320.0
32.7588756,35.0228402,478.99,-0.052,0.0545,0.988,0.46,0.44,0.04,22670.0,17920.0,-34310.0
32.7588756,35.0228402,478.99,-0.0595,0.0615,0.981,0.18,0.4,0.1,22750.0,17870.0,-34300.0
32.7588756,35.0228402,478.99,-0.05575,0.04575,1.01425,-0.06,-0.28,-0.04,22710.0,17880.0,-34310.0
32.7588756,35.0228402,478.99,-0.05725,0.0475,1.01575,0.24,-0.1,0.06,22570.0,17770.0,-34340.0
32.7588756,35.0228402,478.99,-0.06275,0.0605,0.98075,0.3,0.46,0.04,22480.0,17700.0,-34360.0
32.7588756,35.0228402,478.99,-0.05575,0.04875,0.9875,-0.12,-0.12,0.0,22400.0,17700.0,-34370.0
32.7588756,35.0228402,478.99,-0.04275,0.041,1.0195,-0.1,-0.54,-0.06,22370.0,17690.0,-34370.0
32.7588756,35.0228402,478.99,-0.04575,0.059,1.00325,0.32,0.1,0.04,22430.0,17710.0,-34360.0
32.7588756,35.0228402,478.99,-0.05825,0.06125,0.97675,-0.04,0.58,-0.04,22410.0,17700.0,-34360.0
32.7588756,35.0228402,478.99,-0.0595,0.03475,1.00175,-0.44,-0.16,-0.04,22410.0,17660.0,-34370.0
32.7588756,35.0228402,478.99,-0.054,0.034,1.02175,0.04,-0.42,0.0,22450.0,17630.0,-34360.0
32.7588757,35.0228402,478.98,-0.05575,0.06025,0.992,0.22,0.2,-0.02,22530.0,17690.0,-34350.0
32.7588757,35.0228402,478.98,-0.0535,0.05675,0.9815,-0.38,0.2,0.0,22550.0,17780.0,-34340.0
32.7588757,35.0228402,478.98,-0.045,0.02925,1.006,-0.52,-0.44,0.0,22470.0,17710.0,-34350.0
32.7588757,35.0228402,478.98,-0.0425,0.03025,1.004,-0.04,-0.16,0.08,22410.0,17650.0,-34370.0
32.7588757,35.0228402,478.98,-0.055,0.04875,0.98275,0.04,0.58,0.04,22340.0,17640.0,-34380.0
32.7588757,35.0228402,478.98,-0.055,0.0385,0.992,-0.3,0.08,0.06,22360.0,17580.0,-34380.0
32.7588757,35.0228402,478.98,-0.04975,0.0265,1.01275,-0.22,-0.52,-0.04,22340.0,17600.0,-34380.0
32.7588757,35.0228402,478.98,-0.05025,0.03925,0.99825,0.02,0.02,0.02,22290.0,17650.0,-34390.0
32.7588757,35.0228402,478.98,-0.05125,0.0425,0.97825,-0.06,0.36,0.02,22340.0,17640.0,-34370.0
32.7588757,35.0228402,478.98,-0.0415,0.02025,0.99575,-0.22,-0.42,0.0,22360.0,17600.0,-34380.0
32.7588757,35.0228402,478.98,-0.03625,0.02925,1.01025,0.14,-0.4,0.0,22350.0,17670.0,-34370.0
32.7588757,35.0228402,478.98,-0.0465,0.0535,0.993,0.14,0.5,0.08,22410.0,17670.0,-34360.0
32.7588757,35.0228402,478.98,-0.0555,0.03675,0.98025,-0.4,0.48,-0.06,22450.0,17650.0,-34360.0
32.7588757,35.0228402,478.98,-0.05,0.00825,1.00575,-0.3,-0.4,-0.02,22390.0,17630.0,-34370.0
32.7588757,35.0228402,478.98,-0.04725,0.02625,1.007,0.26,-0.22,-0.06,22350.0,17580.0,-34370.0
32.7588757,35.0228402,478.98,-0.04875,0.05825,0.98825,0.28,0.34,0.02,22340.0,17580.0,-34380.0
32.7588757,35.0228402,478.98,-0.04675,0.03375,0.98625,-0.44,-0.06,-0.02,22340.0,17610.0,-34370.0
32.7588757,35.0228402,478.98,-0.03975,0.014,1.008,-0.2,-0.5,0.0,22440.0,17610.0,-34360.0
32.7588757,35.0228402,478.98,-0.04675,0.033,0.995,0.3,0.24,0.0,22480.0,17590.0,-34360.0
32.7588757,35.0228402,478.98,-0.05575,0.048,0.98425,0.14,0.6,0.02,22420.0,17580.0,-34370.0
32.7588756,35.0228402,478.98,-0.056,0.02675,1.002,-0.2,-0.18,-0.08,22400.0,17610.0,-34370.0
32.7588756,35.0228402,478.98,-0.05125,0.0265,1.01175,0.14,-0.38,0.06,22520.0,17680.0,-34340.0
32.7588756,35.0228402,478.98,-0.05625,0.04725,0.98875,0.2,0.32,0.04,22510.0,17630.0,-34350.0
32.7588756,35.0228402,478.98,-0.05275,0.039,0.987,-0.02,0.22,-0.04,22520.0,17590.0,-34350.0
32.7588756,35.0228402,478.98,-0.0425,0.0245,1.00425,-0.04,-0.6,-0.06,22500.0,17570.0,-34360.0
32.7588756,35.0228402,478.98,-0.043,0.04475,1.006,0.32,-0.1,0.02,22470.0,17600.0,-34360.0
32.7588756,35.0228402,478.98,-0.05675,0.059,0.98775,0.18,0.7,0.08,22450.0,17610.0,-34360.0
32.7588756,35.0228402,478.98,-0.0605,0.0305,0.99025,-0.26,0.14,0.02,22510.0,17680.0,-34350.0
32.7588756,35.0228402,478.98,-0.05525,0.02425,1.014,0.22,-0.6,0.02,22550.0,17730.0,-34340.0
32.7588756,35.0228402,478.98,-0.053,0.05825,1.0035,0.5,0.06,-0.04,22500.0,17810.0,-34340.0
32.7588756,35.0228402,478.98,-0.051,0.0655,0.9845,0.06,0.42,0.0,22540.0,17800.0,-34330.0
32.7588756,35.0228402,478.98,-0.04575,0.03425,0.9945,-0.42,-0.36,0.04,22610.0,17800.0,-34320.0
32.7588756,35.0228402,478.98,-0.04325,0.033,1.0065,0.08,-0.36,0.0,22530.0,17730.0,-34340.0
32.7588756,35.0228402,478.98,-0.0545,0.05775,0.99225,0.32,0.52,0.04,22470.0,17670.0,-34360.0
32.7588756,35.0228402,478.98,-0.05875,0.0545,0.99,-0.16,0.3,0.0,22410.0,17640.0,-34370.0
32.7588756,35.0228402,478.98,-0.054,0.03725,1.00725,-0.18,-0.5,0.06,22390.0,17610.0,-34370.0
32.7588756,35.0228402,478.98,-0.04875,0.046,1.0035,0.18,-0.16,0.02,22400.0,17620.0,-34370.0
32.7588756,35.0228402,478.98,-0.0515,0.0525,0.9845,-0.04,0.38,0.02,22490.0,17700.0,-34350.0
32.7588756,35.0228402,478.98,-0.04525,0.03475,0.99225,-0.3,-0.18,-0.02,22460.0,17750.0,-34350.0
32.7588756,35.0228402,478.98,-0.03675,0.03525,1.00625,0.02,-0.56,-0.06,22450.0,17670.0,-34360.0
32.7588756,35.0228402,478.98,-0.04525,0.05775,0.99675,0.2,0.34,0.04,22530.0,17650.0,-34350.0
32.7588757,35.0228402,478.98,-0.0565,0.04825,0.985,-0.38,0.68,0.06,22600.0,17790.0,-34330.0
32.7588757,35.0228402,478.98,-0.0555,0.019,0.9975,-0.34,-0.32,0.02,22670.0,17840.0,-34310.0
32.7588757,35.0228402,478.98,-0.0495,0.02975,1.0085,0.2,-0.5,0.04,22740.0,17870.0,-34300.0
32.7588757,35.0228402,478.98,-0.051,0.05975,0.99525,0.22,0.32,-0.02,22720.0,17730.0,-34320.0
32.7588757,35.0228402,478.98,-0.04625,0.045,0.98725,-0.44,0.22,0.04,22640.0,17540.0,-34350.0
32.7588757,35.0228402,478.98,-0.041,0.019,1.0005,-0.36,-0.52,0.02,22550.0,17390.0,-34370.0
32.7588757,35.0228402,478.98,-0.04375,0.03425,1.00175,0.18,0.04,0.02,22550.0,17320.0,-34380.0
32.7588757,35.0228402,478.98,-0.054,0.04775,0.9885,0.14,0.66,0.12,22540.0,17250.0,-34390.0
32.7588757,35.0228402,478.98,-0.056,0.0285,0.99625,-0.38,-0.02,-0.02,22540.0,17240.0,-34390.0
32.7588757,35.0228402,478.98,-0.05275,0.025,1.01025,-0.06,-0.46,-0.02,22550.0,17280.0,-34390.0
32.7588757,35.0228402,478.98,-0.055,0.04525,0.996,0.2,0.28,-0.02,22500.0,17490.0,-34380.0
32.7588757,35.0228402,478.98,-0.0535,0.038,0.9835,-0.22,0.26,0.04,22460.0,17570.0,-34370.0
32.7588757,35.0228402,478.98,-0.04475,0.01775,1.0,-0.22,-0.56,0.0,22500.0,17630.0,-34360.0
32.7588757,35.0228402,478.98,-0.043,0.035,1.0045,0.3,-0.3,-0.02,22480.0,17640.0,-34360.0
32.7588757,35.0228402,478.98,-0.055,0.053,0.98875,0.16,0.68,0.04,22490.0,17650.0,-34360.0
32.7588757,35.0228402,478.98,-0.05975,0.0285,0.99175,-0.34,0.24,0.0,22490.0,17620.0,-34360.0
32.7588757,35.0228402,478.98,-0.0535,0.01475,1.0105,0.0,-0.52,0.02,22490.0,17680.0,-34360.0
32.7588757,35.0228402,478.98,-0.0495,0.046,1.00175,0.54,-0.12,0.04,22540.0,17720.0,-34350.0
32.7588757,35.0228402,478.98,-0.04975,0.059,0.9845,0.1,0.42,-0.02,22500.0,17700.0,-34350.0
32.7588756,35.0228402,478.98,-0.046,0.02825,0.99325,-0.42,-0.26,0.02,22550.0,17780.0,-34340.0
32.7588756,35.0228402,478.98,-0.045,0.022,1.00475,0.12,-0.4,-0.04,22590.0,17820.0,-34330.0
32.7588756,35.0228402,478.98,-0.055,0.051,0.994,0.36,0.42,0.04,22620.0,17800.0,-34330.0
32.7588756,35.0228402,478.98,-0.05825,0.0505,0.9885,-0.06,0.36,-0.04,22560.0,17760.0,-34340.0
32.7588756,35.0228402,478.98,-0.052,0.02925,1.00625,-0.26,-0.44,-0.06,22530.0,17690.0,-34340.0
32.7588756,35.0228402,478.98,-0.0465,0.0385,1.0055,0.2,-0.24,0.02,22520.0,17630.0,-34350.0
32.7588756,35.0228402,478.98,-0.04975,0.0515,0.9855,0.18,0.5,-0.02,22500.0,17630.0,-34350.0
32.7588756,35.0228402,478.98,-0.04525,0.0335,0.9895,-0.26,-0.06,-0.04,22510.0,17650.0,-34350.0
32.7588756,35.0228402,478.98,-0.0385,0.031,1.0095,0.1,-0.64,-0.04,22580.0,17690.0,-34340.0
32.7588756,35.0228402,478.98,-0.04625,0.05875,1.0005,0.3,0.28,0.0,22650.0,17760.0,-34320.0
32.7588756,35.0228402,478.98,-0.058,0.05375,0.98175,-0.14,0.68,0.06,22690.0,17780.0,-34310.0
32.7588756,35.0228402,478.98,-0.05725,0.02025,0.99525,-0.36,-0.24,0.02,22720.0,17810.0,-34310.0
32.7588756,35.0228402,478.98,-0.04925,0.0305,1.0115,0.28,-0.54,0.04,22620.0,17780.0,-34320.0
32.7588756,35.0228402,478.98,-0.04875,0.067,0.9975,0.46,0.34,0.02,22570.0,17750.0,-34340.0
32.7588756,35.0228402,478.98,-0.04575,0.055,0.9845,-0.28,0.26,0.06,22510.0,17680.0,-34350.0
32.7588756,35.0228402,478.98,-0.0415,0.0245,0.99975,-0.4,-0.56,-0.06,22520.0,17710.0,-34350.0
32.7588756,35.0228402,478.98,-0.04525,0.0385,1.0045,0.28,-0.04,0.06,22520.0,17770.0,-34340.0
32.7588756,35.0228402,478.98,-0.05725,0.05625,0.98825,0.1,0.74,0.02,22540.0,17760.0,-34340.0
32.7588756,35.0228402,478.98,-0.05925,0.04,0.99375,-0.4,0.02,0.02,22550.0,17710.0,-34340.0
32.7588756,35.0228402,478.98,-0.0545,0.03325,1.01225,-0.06,-0.6,-0.02,22450.0,17720.0,-34350.0
32.7588757,35.0228402,478.98,-0.054,0.0505,1.00125,0.14,0.2,-0.02,22470.0,17720.0,-34350.0
32.7588757,35.0228402,478.98,-0.052,0.043,0.983,-0.26,0.32,0.04,22510.0,17800.0,-34340.0
32.7588757,35.0228402,478.98,-0.04275,0.02125,0.9965,-0.2,-0.54,0.0,22410.0,17810.0,-34350.0
32.7588757,35.0228402,478.98,-0.04075,0.038,1.00725,0.26,-0.36,-0.02,22400.0,17790.0,-34350.0
32.7588757,35.0228402,478.98,-0.05375,0.05675,0.9925,0.1,0.74,-0.04,22440.0,17710.0,-34350.0
32.7588757,35.0228402,478.98,-0.061,0.03,0.9875,-0.5,0.36,0.0,22390.0,17680.0,-34360.0
32.7588757,35.0228402,478.98,-0.0565,0.01325,1.00625,-0.14,-0.6,-0.04,22420.0,17660.0,-34360.0
32.7588757,35.0228402,478.98,-0.0515,0.04275,1.007,0.32,-0.18,-0.02,22450.0,17610.0,-34360.0
32.7588757,35.0228402,478.98,-0.0495,0.0565,0.986,-0.02,0.44,-0.04,22460.0,17590.0,-34360.0
32.7588757,35.0228402,478.98,-0.0445,0.0265,0.9885,-0.42,-0.3,-0.02,22500.0,17550.0,-34360.0
32.7588757,35.0228402,478.98,-0.0415,0.02,1.0025,0.02,-0.44,-0.04,22520.0,17610.0,-34350.0
32.7588757,35.0228402,478.98,-0.05075,0.0465,0.99525,0.36,0.48,0.02,22520.0,17670.0,-34340.0
32.7588757,35.0228402,478.98,-0.05525,0.04375,0.99025,-0.16,0.42,-0.02,22460.0,17620.0,-34360.0
32.7588757,35.0228402,478.98,-0.05275,0.02475,1.00275,-0.2,-0.48,-0.04,22430.0,17580.0,-34360.0
32.7588757,35.0228402,478.98,-0.04925,0.03625,1.00375,0.26,-0.18,0.02,22400.0,17620.0,-34370.0
32.7588757,35.0228402,478.98,-0.052,0.04875,0.987,0.1,0.44,0.02,22370.0,17590.0,-34370.0
32.7588757,35.0228402,478.98,-0.04575,0.02775,0.99,-0.3,-0.16,0.0,22440.0,17580.0,-34370.0
32.7588757,35.0228402,478.98,-0.03825,0.0265,1.0075,0.06,-0.64,0.0,22470.0,17590.0,-34360.0
32.7588757,35.0228402,478.98,-0.0445,0.05425,0.99925,0.32,0.28,0.08,22450.0,17570.0,-34360.0
32.7588757,35.0228402,478.98,-0.055,0.04725,0.98575,-0.2,0.68,0.06,22450.0,17560.0,-34360.0
32.7588757,35.0228402,478.98,-0.056,0.0175,0.99825,-0.28,-0.2,0.0,22480.0,17650.0,-34350.0
32.7588756,35.0228402,478.98,-0.0505,0.031,1.009,0.44,-0.44,0.02,22520.0,17730.0,-34340.0
32.7588756,35.0228402,478.98,-0.05125,0.06325,0.9955,0.36,0.34,0.06,22480.0,17660.0,-34350.0
32.7588756,35.0228402,478.98,-0.0485,0.04875,0.98775,-0.26,0.16,-0.02,22450.0,17620.0,-34360.0
32.7588756,35.0228402,478.98,-0.04275,0.02275,1.00125,-0.18,-0.48,-0.04,22410.0,17660.0,-34360.0
32.7588756,35.0228402,478.98,-0.046,0.041,1.00025,0.32,0.04,0.0,22420.0,17640.0,-34370.0
32.7588756,35.0228402,478.98,-0.05525,0.057,0.98875,0.18,0.72,-0.02,22440.0,17590.0,-34360.0
32.7588756,35.0228402,478.98,-0.05725,0.03825,0.99575,-0.26,-0.04,-0.02,22430.0,17570.0,-34370.0
32.7588756,35.0228402,478.98,-0.0535,0.033,1.00975,-0.02,-0.56,-0.04,22420.0,17610.0,-34360.0
32.7588756,35.0228402,478.98,-0.05525,0.05275,0.99675,0.14,0.32,0.06,22420.0,17710.0,-34360.0
32.7588756,35.0228402,478.98,-0.05275,0.044,0.985,-0.14,0.26,0.04,22490.0,17770.0,-34340.0
32.7588756,35.0228402,478.98,-0.04375,0.02475,0.9995,-0.22,-0.54,-0.04,22590.0,17790.0,-34330.0
32.7588756,35.0228402,478.98,-0.04175,0.04275,1.00475,0.28,-0.24,0.02,22620.0,17820.0,-34320.0
32.7588756,35.0228402,478.98,-0.05375,0.05875,0.98925,0.12,0.72,0.04,22620.0,17840.0,-34320.0
32.7588756,35.0228402,478.98,-0.05975,0.0315,0.9885,-0.48,0.2,-0.04,22560.0,17790.0,-34330.0
32.7588756,35.0228402,478.98,-0.055,0.01825,1.00725,-0.04,-0.62,0.02,22530.0,17760.0,-34340.0
32.7588756,35.0228402,478.98,-0.0525,0.051,1.0055,0.44,-0.08,-0.06,22470.0,17800.0,-34350.0
32.7588756,35.0228402,478.98,-0.0505,0.0605,0.986,-0.06,0.38,0.04,22460.0,17760.0,-34350.0
32.7588756,35.0228402,478.98,-0.04475,0.029,0.9905,-0.44,-0.32,0.0,22460.0,17760.0,-34360.0
32.7588756,35.0228402,478.98,-0.04125,0.02625,1.00375,0.06,-0.5,0.0,22390.0,17750.0,-34370.0
32.7588756,35.0228402,478.98,-0.05,0.052,0.996,0.26,0.54,0.02,22410.0,17780.0,-34360.0
32.7588757,35.0228402,478.99,-0.05425,0.04625,0.99,-0.22,0.46,0.06,22580.0,17830.0,-34330.0
32.7588757,35.0228402,478.99,-0.0515,0.02725,1.00575,-0.16,-0.5,0.02,22580.0,17810.0,-34340.0
32.7588757,35.0228402,478.99,-0.04875,0.04125,1.0065,0.22,-0.14,0.02,22510.0,17790.0,-34350.0
32.7588757,35.0228402,478.99,-0.05125,0.04925,0.98775,0.08,0.46,-0.04,22470.0,17770.0,-34360.0
32.7588757,35.0228402,478.99,-0.04575,0.02575,0.98925,-0.28,-0.16,-0.06,22450.0,17780.0,-34360.0
32.7588757,35.0228402,478.99,-0.03925,0.02625,1.00675,0.04,-0.64,-0.04,22420.0,17760.0,-34360.0
32.7588757,35.0228402,478.99,-0.0475,0.053,1.00075,0.22,0.32,-0.04,22440.0,17730.0,-34360.0
32.7588757,35.0228402,478.99,-0.05675,0.0435,0.98625,-0.3,0.64,0.08,22460.0,17770.0,-34360.0
32.7588757,35.0228402,478.99,-0.054,0.01475,0.9975,-0.32,-0.48,0.04,22430.0,17790.0,-34360.0
32.7588757,35.0228402,478.99,-0.048,0.03275,1.00875,0.38,-0.4,-0.04,22490.0,17820.0,-34350.0
32.7588757,35.0228402,478.99,-0.04825,0.06275,0.99375,0.36,0.46,0.0,22570.0,17810.0,-34340.0
32.7588757,35.0228402,478.99,-0.04675,0.0425,0.98425,-0.44,0.1,0.02,22460.0,17770.0,-34360.0
32.7588757,35.0228402,478.99,-0.0445,0.019,1.00175,-0.24,-0.44,-0.08,22440.0,17740.0,-34360.0
32.7588757,35.0228402,478.99,-0.05,0.03875,1.0035,0.38,0.18,0.0,22420.0,17700.0,-34370.0
32.7588757,35.0228402,478.99,-0.05875,0.05,0.99,0.06,0.7,0.0,22390.0,17700.0,-34370.0
32.7588757,35.0228402,478.99,-0.0585,0.029,0.9965,-0.36,-0.2,-0.1,22510.0,17710.0,-34360.0
32.7588757,35.0228402,478.99,-0.05275,0.0305,1.008,0.14,-0.46,-0.04,22530.0,17760.0,-34350.0
32.7588757,35.0228402,478.99,-0.0535,0.051,0.99625,0.28,0.26,0.06,22470.0,17770.0,-34360.0
32.7588757,35.0228402,478.99,-0.0515,0.0385,0.98525,-0.22,0.22,0.04,22480.0,17690.0,-34360.0
32.7588757,35.0228402,478.99,-0.0435,0.0225,0.99975,-0.08,-0.62,-0.02,22590.0,17700.0,-34350.0
32.7588756,35.0228402,478.99,-0.04525,0.047,1.00525,0.34,-0.1,0.06,22670.0,17840.0,-34320.0
32.7588756,35.0228402,478.99,-0.056,0.06,0.98825,0.04,0.66,0.02,22690.0,17890.0,-34310.0
32.7588756,35.0228402,478.99,-0.05925,0.02925,0.989,-0.34,0.04,0.0,22700.0,17830.0,-34310.0
32.7588756,35.0228402,478.99,-0.05125,0.02275,1.00725,0.16,-0.56,-0.04,22660.0,17780.0,-34320.0
32.7588756,35.0228402,478.99,-0.04775,0.058,1.00275,0.42,0.02,0.06,22610.0,17710.0,-34340.0
32.7588756,35.0228402,478.99,-0.04675,0.05875,0.98775,-0.08,0.36,-0.02,22590.0,17680.0,-34340.0
32.7588756,35.0228402,478.99,-0.043,0.02725,0.99525,-0.4,-0.38,0.0,22560.0,17690.0,-34340.0
32.7588756,35.0228402,478.99,-0.0435,0.03175,1.00475,0.22,-0.34,0.04,22490.0,17670.0,-34350.0
32.7588756,35.0228402,478.99,-0.055,0.056,0.99275,0.28,0.66,-0.02,22470.0,17680.0,-34350.0
32.7588756,35.0228402,478.99,-0.05875,0.04425,0.9905,-0.36,0.28,0.0,22530.0,17780.0,-34340.0
32.7588756,35.0228402,478.99,-0.05325,0.02825,1.0075,-0.16,-0.5,-0.02,22580.0,17740.0,-34340.0
32.7588756,35.0228402,478.99,-0.05,0.046,1.003,0.24,-0.04,0.0,22650.0,17590.0,-34350.0
32.7588756,35.0228402,478.99,-0.05025,0.05025,0.985,-0.12,0.48,0.02,22690.0,17520.0,-34350.0
32.7588756,35.0228402,478.99,-0.04375,0.027,0.9925,-0.36,-0.3,0.0,22640.0,17490.0,-34360.0
32.7588756,35.0228402,478.99,-0.039,0.0315,1.00575,0.12,-0.44,0.04,22550.0,17360.0,-34380.0
32.7588756,35.0228402,478.99,-0.04875,0.05625,0.995,0.24,0.46,0.0,22530.0,17270.0,-34390.0
32.7588756,35.0228402,478.99,-0.05825,0.041,0.985,-0.34,0.54,0.0,22490.0,17350.0,-34390.0
32.7588756,35.0228402,478.99,-0.055,0.01425,1.0015,-0.3,-0.42,0.04,22500.0,17480.0,-34370.0
32.7588756,35.0228402,478.99,-0.04875,0.035,1.00975,0.4,-0.3,-0.02,22450.0,17520.0,-34370.0
32.7588757,35.0228402,478.98,-0.04925,0.05825,0.9905,0.24,0.48,0.02,22420.0,17640.0,-34360.0
32.7588757,35.0228402,478.98,-0.046,0.03625,0.98475,-0.44,0.0,0.0,22510.0,17750.0,-34340.0
32.7588757,35.0228402,478.98,-0.04225,0.0165,1.00475,-0.1,-0.58,0.02,22510.0,17750.0,-34340.0
32.7588757,35.0228402,478.98,-0.04675,0.04275,1.00025,0.42,0.22,0.06,22460.0,17780.0,-34350.0
32.7588757,35.0228402,478.98,-0.05425,0.054,0.9805,0.08,0.58,0.06,22370.0,17750.0,-34360.0
32.7588757,35.0228402,478.98,-0.05325,0.02925,1.0015,-0.32,-0.3,0.0,22350.0,17690.0,-34370.0
32.7588757,35.0228402,478.98,-0.04825,0.03475,1.006,0.24,-0.34,-0.04,22380.0,17660.0,-34360.0
32.7588757,35.0228402,478.98,-0.0535,0.054,0.99575,0.08,0.32,-0.02,22420.0,17630.0,-34360.0
32.7588757,35.0228402,478.98,-0.052,0.03675,0.98425,-0.3,0.2,-0.06,22430.0,17620.0,-34360.0
32.7588757,35.0228402,478.98,-0.04375,0.02225,1.007,-0.08,-0.6,0.02,22430.0,17590.0,-34360.0
32.7588757,35.0228402,478.98,-0.04375,0.041,1.00625,0.24,-0.04,-0.06,22470.0,17620.0,-34350.0
32.7588757,35.0228402,478.98,-0.0565,0.05325,0.98725,0.06,0.7,-0.04,22490.0,17630.0,-34350.0
32.7588757,35.0228402,478.98,-0.0625,0.02175,0.99325,-0.38,0.06,-0.02,22440.0,17630.0,-34360.0
32.7588757,35.0228402,478.98,-0.056,0.0215,1.01325,0.22,-0.6,-0.02,22450.0,17640.0,-34360.0
32.7588757,35.0228402,478.98,-0.05275,0.05575,1.00275,0.46,0.08,0.02,22450.0,17610.0,-34360.0
32.7588757,35.0228402,478.98,-0.05175,0.06025,0.9825,-0.08,0.34,0.0,22420.0,17630.0,-34360.0
32.7588757,35.0228402,478.98,-0.0445,0.02575,0.99725,-0.38,-0.4,0.0,22400.0,17610.0,-34370.0
32.7588757,35.0228402,478.98,-0.044,0.0325,1.002,0.26,-0.32,0.04,22430.0,17610.0,-34360.0
32.7588757,35.0228402,478.98,-0.0535,0.05675,0.9925,0.24,0.54,-0.02,22430.0,17620.0,-34360.0
32.7588757,35.0228402,478.98,-0.05875,0.0465,0.98925,-0.3,0.18,0.0,22440.0,17630.0,-34360.0
32.7588757,35.0228402,478.98,-0.051,0.03075,1.00725,-0.16,-0.62,0.04,22510.0,17660.0,-34350.0
32.7588756,35.0228402,478.98,-0.05,0.04625,1.003,0.14,-0.1,0.02,22600.0,17710.0,-34330.0
32.7588756,35.0228402,478.98,-0.05025,0.05125,0.9865,-0.08,0.42,0.02,22570.0,17640.0,-34340.0
32.7588756,35.0228402,478.98,-0.04475,0.02875,0.99125,-0.36,-0.28,0.04,22510.0,17610.0,-34350.0
32.7588756,35.0228402,478.98,-0.03775,0.03325,1.0085,0.06,-0.54,-0.04,22470.0,17630.0,-34360.0
32.7588756,35.0228402,478.98,-0.04775,0.05775,0.994,0.26,0.52,-0.02,22420.0,17640.0,-34360.0
32.7588756,35.0228402,478.98,-0.05675,0.04275,0.98475,-0.32,0.62,0.02,22460.0,17590.0,-34360.0
32.7588756,35.0228402,478.98,-0.05325,0.015,1.00125,-0.2,-0.42,0.02,22540.0,17620.0,-34350.0
32.7588756,35.0228402,478.98,-0.04675,0.0365,1.01025,0.4,-0.34,-0.04,22520.0,17660.0,-34350.0
32.7588756,35.0228402,478.98,-0.0485,0.0635,0.9895,0.24,0.48,0.04,22530.0,17710.0,-34340.0
32.7588756,35.0228402,478.98,-0.046,0.04075,0.986,-0.44,0.08,0.04,22530.0,17750.0,-34340.0
32.7588756,35.0228402,478.98,-0.041,0.018,1.00375,-0.22,-0.52,-0.02,22520.0,17850.0,-34340.0
32.7588756,35.0228402,478.98,-0.04725,0.0415,0.99975,0.34,0.22,-0.04,22560.0,17850.0,-34330.0
32.7588756,35.0228402,478.98,-0.05725,0.05325,0.98475,0.0,0.72,0.02,22580.0,17830.0,-34330.0
32.7588756,35.0228402,478.98,-0.05675,0.0305,0.998,-0.34,-0.2,0.0,22610.0,17870.0,-34320.0
32.7588756,35.0228402,478.98,-0.05175,0.02975,1.0125,0.04,-0.46,-0.06,22650.0,17840.0,-34320.0
32.7588756,35.0228402,478.98,-0.05475,0.04875,0.99375,0.24,0.38,0.04,22690.0,17780.0,-34320.0
32.7588756,35.0228402,478.98,-0.0525,0.03775,0.98375,-0.22,0.2,0.0,22690.0,17780.0,-34320.0
32.7588756,35.0228402,478.98,-0.043,0.01975,1.00525,-0.16,-0.74,0.0,22600.0,17750.0,-34340.0
32.7588756,35.0228402,478.98,-0.04225,0.04225,1.00725,0.34,-0.08,0.02,22600.0,17750.0,-34340.0
32.7588756,35.0228402,478.99,-0.05575,0.053,0.98675,0.02,0.78,0.04,22580.0,17740.0,-34340.0
32.7588756,35.0228402,478.99,-0.05975,0.024,0.98975,-0.4,0.08,0.02,22640.0,17810.0,-34320.0
32.7588756,35.0228402,478.99,-0.05375,0.01475,1.0125,0.1,-0.68,-0.02,22600.0,17760.0,-34340.0
32.7588756,35.0228402,478.99,-0.05275,0.05175,1.00525,0.44,0.12,0.0,22590.0,17750.0,-34340.0
32.7588756,35.0228402,478.99,-0.0525,0.05875,0.982,-0.02,0.42,0.04,22550.0,17710.0,-34350.0
32.7588756,35.0228402,478.99,-0.0465,0.0265,0.9915,-0.44,-0.38,-0.02,22520.0,17660.0,-34360.0
32.7588756,35.0228402,478.99,-0.042,0.02575,1.0065,0.18,-0.44,-0.02,22520.0,17630.0,-34360.0
32.7588756,35.0228402,478.99,-0.05025,0.0535,0.9935,0.4,0.64,0.0,22410.0,17700.0,-34370.0
32.7588756,35.0228402,478.99,-0.055,0.04125,0.98325,-0.22,0.38,-0.04,22370.0,17770.0,-34370.0
32.7588756,35.0228402,478.99,-0.0475,0.023,0.997,-0.14,-0.62,0.0,22410.0,17730.0,-34370.0
32.7588756,35.0228402,478.99,-0.049,0.046,1.0135,0.3,-0.12,0.08,22480.0,17840.0,-34360.0
32.7588756,35.0228402,478.99,-0.0535,0.05225,0.991,0.04,0.62,0.0,22520.0,17830.0,-34350.0
32.7588756,35.0228402,478.99,-0.04675,0.029,0.97625,-0.34,-0.28,-0.04,22480.0,17830.0,-34360.0
32.7588756,35.0228402,478.99,-0.038,0.03225,1.00925,0.16,-0.7,-0.04,22380.0,17820.0,-34370.0
32.7588756,35.0228402,478.99,-0.04775,0.05875,1.005,0.3,0.56,0.06,22380.0,17780.0,-34370.0
32.7588756,35.0228402,478.99,-0.0565,0.05125,0.98575,-0.22,0.64,0.04,22480.0,17700.0,-34360.0
32.7588756,35.0228402,478.99,-0.05625,0.01825,1.00125,-0.36,-0.44,-0.08,22500.0,17710.0,-34350.0
32.7588756,35.0228402,478.99,-0.047,0.04,1.00775,0.5,-0.46,-0.06,22520.0,17720.0,-34350.0
32.7588756,35.0228402,478.99,-0.05025,0.0675,0.99675,0.3,0.5,-0.02,22540.0,17670.0,-34350.0
32.7588756,35.0228402,478.99,-0.047,0.0445,0.99,-0.4,0.12,-0.04,22530.0,17640.0,-34360.0
32.7588757,35.0228402,478.99,-0.04625,0.0225,0.99875,-0.14,-0.48,0.0,22550.0,17640.0,-34350.0
32.7588757,35.0228402,478.99,-0.0485,0.043,1.00575,0.32,0.12,0.0,22650.0,17710.0,-34330.0
32.7588757,35.0228402,478.99,-0.05875,0.0555,0.98575,-0.04,0.7,-0.04,22600.0,17670.0,-34340.0
32.7588757,35.0228402,478.99,-0.05625,0.036,0.999,-0.38,-0.3,0.0,22560.0,17630.0,-34350.0
32.7588757,35.0228402,478.99,-0.05175,0.033,1.0065,0.0,-0.56,0.02,22540.0,17600.0,-34350.0
32.7588757,35.0228402,478.99,-0.05225,0.04725,0.9965,0.12,0.3,0.04,22490.0,17610.0,-34360.0
32.7588757,35.0228402,478.99,-0.05275,0.041,0.985,-0.2,0.3,0.02,22510.0,17580.0,-34360.0
32.7588757,35.0228402,478.99,-0.04375,0.02475,1.00175,-0.18,-0.64,0.04,22520.0,17540.0,-34360.0
32.7588757,35.0228402,478.99,-0.04075,0.04175,1.0025,0.14,-0.22,0.0,22550.0,17550.0,-34360.0
32.7588757,35.0228402,478.99,-0.0525,0.055,0.98925,0.04,0.56,0.04,22550.0,17560.0,-34350.0
32.7588757,35.0228402,478.99,-0.05775,0.0265,0.98775,-0.38,0.24,-0.02,22600.0,17650.0,-34340.0
32.7588757,35.0228402,478.99,-0.054,0.0135,1.006,-0.04,-0.66,-0.02,22550.0,17680.0,-34350.0
32.7588757,35.0228402,478.99,-0.052,0.05125,1.00625,0.52,0.0,0.02,22510.0,17750.0,-34340.0
32.7588757,35.0228402,478.99,-0.05175,0.058,0.98575,-0.02,0.4,0.04,22540.0,17760.0,-34340.0
32.7588757,35.0228402,478.99,-0.0435,0.02525,0.99175,-0.5,-0.32,0.0,22580.0,17790.0,-34330.0
32.7588757,35.0228402,478.99,-0.041,0.02325,1.004,0.1,-0.4,0.0,22560.0,17800.0,-34330.0
32.7588757,35.0228402,478.99,-0.049,0.05,0.99275,0.28,0.58,0.0,22560.0,17760.0,-34330.0
32.7588757,35.0228402,478.99,-0.05475,0.0425,0.98925,-0.2,0.4,-0.04,22600.0,17700.0,-34330.0
32.7588757,35.0228402,478.99,-0.0515,0.02575,1.00925,-0.24,-0.5,-0.04,22550.0,17690.0,-34340.0
32.7588757,35.0228402,478.99,-0.051,0.04075,1.00675,0.24,-0.12,-0.02,22510.0,17610.0,-34350.0
32.7588757,35.0228402,478.99,-0.0535,0.04775,0.984,0.0,0.52,0.0,22490.0,17620.0,-34350.0
32.7588757,35.0228402,478.98,-0.0475,0.025,0.99,-0.3,-0.2,-0.02,22530.0,17790.0,-34330.0
32.7588757,35.0228402,478.98,-0.03725,0.02575,1.0065,0.18,-0.66,-0.06,22590.0,17840.0,-34320.0
32.7588757,35.0228402,478.98,-0.046,0.05475,0.99875,0.32,0.4,0.04,22630.0,17810.0,-34320.0
32.7588757,35.0228402,478.98,-0.057,0.0445,0.98725,-0.2,0.64,-0.1,22560.0,17750.0,-34330.0
32.7588757,35.0228402,478.98,-0.0575,0.01525,1.001,-0.22,-0.4,-0.04,22470.0,17650.0,-34350.0
32.7588757,35.0228402,478.98,-0.05125,0.03075,1.0105,0.28,-0.44,0.0,22450.0,17620.0,-34360.0
32.7588757,35.0228402,478.98,-0.05075,0.06025,0.992,0.32,0.38,0.04,22450.0,17640.0,-34360.0
32.7588757,35.0228402,478.98,-0.04675,0.039,0.98025,-0.36,0.1,-0.06,22430.0,17620.0,-34360.0
32.7588757,35.0228402,478.98,-0.0435,0.02275,0.99925,-0.16,-0.48,0.0,22440.0,17610.0,-34360.0
32.7588757,35.0228402,478.98,-0.0475,0.041,1.02,0.38,0.1,0.02,22450.0,17630.0,-34360.0
32.7588757,35.0228402,478.98,-0.05925,0.064,0.97525,0.22,0.86,0.02,22530.0,17710.0,-34340.0
32.7588757,35.0228402,478.98,-0.0595,0.0375,0.99475,-0.38,-0.3,-0.06,22460.0,17660.0,-34350.0
32.7588757,35.0228402,478.98,-0.048,0.032,1.012,0.0,-0.46,-0.04,22440.0,17670.0,-34360.0
32.7588757,35.0228402,478.98,-0.0545,0.06075,0.995,0.4,0.44,-0.02,22320.0,17690.0,-34370.0
32.7588757,35.0228402,478.98,-0.053,0.0455,0.99175,-0.4,0.42,-0.02,22280.0,17670.0,-34380.0
32.7588757,35.0228402,478.98,-0.04775,0.02825,0.9885,-0.18,-0.64,0.0,22320.0,17640.0,-34370.0
32.7588757,35.0228402,478.98,-0.03875,0.0445,1.014,0.1,-0.32,-0.08,22370.0,17720.0,-34360.0
32.7588757,35.0228402,478.98,-0.05475,0.06075,0.98425,0.1,0.74,0.1,22470.0,17600.0,-34360.0
32.7588757,35.0228402,478.98,-0.0595,0.03375,0.9885,-0.44,0.24,-0.04,22470.0,17400.0,-34380.0
32.7588757,35.0228402,478.98,-0.056,0.01825,1.00825,-0.1,-0.56,-0.12,22450.0,17370.0,-34390.0
32.7588757,35.0228402,478.98,-0.0495,0.0495,1.0035,0.58,-0.16,0.06,22610.0,17380.0,-34370.0
32.7588757,35.0228402,478.98,-0.04925,0.06375,0.98475,-0.18,0.36,-0.06,22670.0,17320.0,-34360.0
32.7588757,35.0228402,478.98,-0.043,0.0305,0.99325,-0.42,-0.26,-0.02,22600.0,17350.0,-34370.0
32.7588757,35.0228402,478.98,-0.03925,0.0205,1.005,-0.02,-0.46,-0.02,22570.0,17300.0,-34380.0
32.7588757,35.0228402,478.98,-0.051,0.04875,0.99575,0.28,0.44,0.06,22560.0,17380.0,-34370.0
32.7588757,35.0228402,478.98,-0.05775,0.052,0.98775,-0.08,0.52,-0.02,22540.0,17490.0,-34370.0
32.7588757,35.0228402,478.98,-0.0535,0.02725,1.0045,-0.4,-0.54,0.02,22500.0,17560.0,-34360.0
32.7588757,35.0228402,478.98,-0.04725,0.03575,1.01075,0.02,-0.32,0.0,22450.0,17600.0,-34360.0
32.7588757,35.0228402,478.98,-0.05125,0.0485,0.9885,0.12,0.52,0.1,22410.0,17670.0,-34370.0
32.7588757,35.0228402,478.98,-0.04575,0.02925,0.98375,-0.34,0.02,-0.02,22440.0,17720.0,-34360.0
32.7588757,35.0228402,478.98,-0.03875,0.02125,1.00725,-0.02,-0.68,0.04,22490.0,17730.0,-34350.0
32.7588757,35.0228402,478.98,-0.04425,0.05,1.005,0.28,0.26,0.02,22460.0,17750.0,-34360.0
32.7588757,35.0228402,478.98,-0.05725,0.049,0.9825,-0.16,0.82,0.1,22490.0,17810.0,-34340.0
32.7588757,35.0228402,478.98,-0.05825,0.0145,0.9955,-0.48,-0.18,0.0,22550.0,17830.0,-34330.0
32.7588757,35.0228402,478.98,-0.05125,0.02,1.012,0.34,-0.6,-0.02,22590.0,17850.0,-34330.0
32.7588757,35.0228402,478.98,-0.05,0.05725,0.9955,0.4,0.38,0.02,22690.0,17860.0,-34310.0
32.7588757,35.0228402,478.98,-0.049,0.048,0.98375,-0.28,0.34,-0.06,22710.0,17870.0,-34310.0
32.7588757,35.0228402,478.98,-0.0435,0.018,1.0,-0.3,-0.56,0.0,22640.0,17870.0,-34320.0
32.7588757,35.0228402,478.98,-0.04625,0.03225,1.00575,0.34,-0.12,0.04,22510.0,17850.0,-34340.0
32.7588757,35.0228402,478.98,-0.05825,0.05475,0.98825,0.3,0.72,0.02,22520.0,17820.0,-34340.0
32.7588757,35.0228402,478.98,-0.06075,0.03975,0.99025,-0.3,0.12,0.02,22580.0,17870.0,-34330.0
32.7588757,35.0228402,478.98,-0.05275,0.02525,1.01075,-0.04,-0.64,-0.02,22470.0,17880.0,-34350.0
32.7588757,35.0228402,478.98,-0.0505,0.04625,1.0015,0.3,0.1,0.0,22440.0,17860.0,-34350.0
32.7588757,35.0228402,478.98,-0.04975,0.0505,0.98475,-0.04,0.44,-0.02,22440.0,17770.0,-34360.0
32.7588757,35.0228402,478.98,-0.04425,0.027,0.996,-0.28,-0.46,-0.02,22430.0,17720.0,-34360.0
32.7588757,35.0228402,478.98,-0.039,0.037,1.00775,0.16,-0.42,0.06,22470.0,17660.0,-34360.0
32.7588757,35.0228402,478.98,-0.05325,0.057,0.99275,0.18,0.62,0.02,22490.0,17700.0,-34360.0
32.7588757,35.0228402,478.98,-0.05975,0.03875,0.985,-0.28,0.54,0.04,22430.0,17730.0,-34360.0
32.7588757,35.0228402,478.98,-0.05675,0.016,1.00375,-0.14,-0.58,0.04,22480.0,17690.0,-34360.0
32.7588757,35.0228402,478.98,-0.048,0.04525,1.00925,0.4,-0.26,-0.06,22540.0,17740.0,-34350.0
32.7588757,35.0228402,478.98,-0.04825,0.06525,0.989,0.12,0.42,0.02,22570.0,17820.0,-34340.0
32.7588757,35.0228402,478.98,-0.044,0.03875,0.984,-0.4,-0.1,0.0,22510.0,17750.0,-34350.0
32.7588757,35.0228402,478.98,-0.0415,0.0185,1.0065,-0.14,-0.5,0.0,22500.0,17690.0,-34350.0
32.7588757,35.0228402,478.98,-0.0505,0.0505,0.99725,0.44,0.34,0.04,22500.0,17680.0,-34360.0
32.7588757,35.0228402,478.98,-0.058,0.05625,0.98825,-0.02,0.64,0.0,22500.0,17620.0,-34360.0
32.7588757,35.0228402,478.98,-0.056,0.035,1.00025,-0.36,-0.36,0.0,22500.0,17650.0,-34360.0
32.7588757,35.0228402,478.98,-0.048,0.035,1.0105,0.08,-0.44,0.02,22480.0,17710.0,-34360.0
32.7588757,35.0228402,478.98,-0.05075,0.05275,0.99025,0.14,0.46,0.06,22510.0,17710.0,-34350.0
32.7588757,35.0228402,478.98,-0.04625,0.038,0.9855,-0.28,0.14,-0.02,22510.0,17650.0,-34360.0
32.7588757,35.0228402,478.98,-0.04025,0.0255,1.00425,-0.14,-0.7,-0.02,22560.0,17680.0,-34340.0
32.7588757,35.0228402,478.98,-0.044,0.052,1.00575,0.3,0.14,0.04,22610.0,17790.0,-34330.0
32.7588757,35.0228402,478.98,-0.05825,0.05275,0.9835,-0.14,0.82,0.06,22570.0,17800.0,-34330.0
32.7588757,35.0228402,478.98,-0.0595,0.021,0.99175,-0.42,-0.06,-0.08,22490.0,17750.0,-34350.0
32.7588757,35.0228402,478.98,-0.05125,0.01975,1.01025,0.14,-0.66,-0.02,22470.0,17710.0,-34350.0
32.7588757,35.0228402,478.98,-0.0485,0.059,1.00175,0.4,0.16,0.0,22490.0,17650.0,-34360.0
32.7588757,35.0228402,478.98,-0.0475,0.053,0.9825,-0.24,0.42,-0.02,22460.0,17640.0,-34360.0
32.7588757,35.0228402,478.98,-0.04425,0.0205,0.9955,-0.36,-0.52,0.04,22400.0,17680.0,-34370.0
32.7588757,35.0228402,478.98,-0.0455,0.027,1.00675,0.14,-0.2,0.0,22460.0,17610.0,-34360.0
32.7588757,35.0228402,478.98,-0.0565,0.05175,0.99125,0.2,0.66,-0.02,22520.0,17580.0,-34360.0
32.7588757,35.0228402,478.98,-0.0595,0.039,0.98975,-0.28,0.2,-0.02,22500.0,17650.0,-34350.0
32.7588757,35.0228402,478.98,-0.0525,0.0255,1.00875,-0.12,-0.64,-0.02,22490.0,17660.0,-34350.0
32.7588757,35.0228402,478.98,-0.05025,0.04325,1.00375,0.22,0.02,0.02,22470.0,17640.0,-34360.0
32.7588757,35.0228402,478.98,-0.051,0.044,0.98425,-0.06,0.42,0.08,22450.0,17660.0,-34360.0
32.7588757,35.0228402,478.98,-0.0445,0.02325,0.992,-0.24,-0.4,0.02,22510.0,17720.0,-34340.0
32.7588757,35.0228402,478.98,-0.0415,0.03225,1.008,0.2,-0.44,0.06,22560.0,17780.0,-34330.0
32.7588757,35.0228402,478.98,-0.0535,0.0575,0.9955,0.26,0.6,0.0,22580.0,17820.0,-34330.0
32.7588757,35.0228402,478.98,-0.0615,0.03725,0.9845,-0.28,0.54,0.04,22660.0,17800.0,-34320.0
32.7588757,35.0228402,478.98,-0.05625,0.016,1.00325,-0.24,-0.62,-0.04,22690.0,17790.0,-34310.0
32.7588757,35.0228402,478.98,-0.048,0.04225,1.01075,0.46,-0.26,0.02,22630.0,17800.0,-34330.0
32.7588757,35.0228402,478.98,-0.048,0.0655,0.99025,0.16,0.42,0.02,22530.0,17780.0,-34330.0
32.7588757,35.0228402,478.98,-0.04375,0.03475,0.987,-0.48,-0.06,0.04,22580.0,17780.0,-34320.0
32.7588757,35.0228402,478.98,-0.04025,0.0215,1.00225,-0.08,-0.54,0.1,22530.0,17700.0,-34340.0
32.7588757,35.0228402,478.98,-0.04825,0.0505,1.0015,0.36,0.34,-0.04,22490.0,17660.0,-34350.0
32.7588757,35.0228402,478.98,-0.05775,0.05325,0.99025,-0.1,0.54,-0.04,22450.0,17670.0,-34360.0
32.7588757,35.0228402,478.98,-0.0555,0.0325,0.99775,-0.3,-0.26,-0.04,22390.0,17700.0,-34360.0
32.7588757,35.0228402,478.98,-0.05125,0.035,1.008,0.1,-0.42,0.08,22290.0,17710.0,-34380.0
32.7588757,35.0228402,478.98,-0.05075,0.0515,0.9915,0.2,0.4,-0.02,22310.0,17640.0,-34380.0
32.7588757,35.0228402,478.98,-0.04825,0.03475,0.9865,-0.26,-0.02,-0.04,22380.0,17580.0,-34370.0
32.7588757,35.0228402,478.98,-0.0395,0.02775,1.0025,-0.08,-0.64,-0.02,22350.0,17590.0,-34380.0
32.7588757,35.0228402,478.98,-0.044,0.0495,1.00325,0.34,0.08,0.06,22440.0,17630.0,-34360.0
32.7588757,35.0228402,478.98,-0.0565,0.052,0.9835,-0.1,0.78,0.06,22570.0,17660.0,-34340.0
32.7588757,35.0228402,478.98,-0.059,0.01725,0.99675,-0.36,-0.06,0.04,22500.0,17620.0,-34350.0
32.7588757,35.0228402,478.98,-0.05175,0.02675,1.0065,0.24,-0.6,0.06,22480.0,17580.0,-34360.0
32.7588757,35.0228402,478.98,-0.0495,0.06,1.00125,0.4,0.18,0.0,22430.0,17560.0,-34370.0
32.7588757,35.0228402,478.98,-0.048,0.0545,0.985,-0.22,0.2,0.0,22390.0,17600.0,-34370.0
32.7588757,35.0228402,478.98,-0.0435,0.0215,0.99575,-0.32,-0.42,0.0,22400.0,17590.0,-34370.0
32.7588757,35.0228402,478.98,-0.0475,0.0335,1.00175,0.24,-0.08,0.0,22500.0,17630.0,-34350.0
32.7588757,35.0228402,478.98,-0.05725,0.05525,0.9925,0.24,0.68,0.08,22440.0,17660.0,-34360.0
32.7588757,35.0228402,478.98,-0.059,0.0405,0.995,-0.38,0.08,0.0,22420.0,17630.0,-34360.0
32.7588757,35.0228402,478.98,-0.0525,0.033,1.0115,-0.1,-0.6,0.02,22510.0,17640.0,-34350.0
32.7588757,35.0228402,478.98,-0.051,0.0475,0.9995,0.16,0.1,-0.02,22600.0,17740.0,-34330.0
32.7588757,35.0228402,478.98,-0.0495,0.04325,0.985,-0.12,0.36,-0.04,22660.0,17780.0,-34310.0
32.7588757,35.0228402,478.98,-0.0415,0.022,0.99625,-0.24,-0.42,-0.04,22670.0,17790.0,-34310.0
32.7588757,35.0228402,478.98,-0.03975,0.039,1.0075,0.28,-0.34,0.0,22610.0,17760.0,-34330.0
32.7588757,35.0228402,478.98,-0.0525,0.058,0.99275,0.14,0.6,0.04,22530.0,17700.0,-34340.0
32.7588757,35.0228402,478.98,-0.06075,0.03425,0.987,-0.48,0.46,0.04,22510.0,17680.0,-34350.0
32.7588757,35.0228402,478.98,-0.056,0.01325,1.00325,-0.12,-0.58,0.0,22470.0,17710.0,-34350.0
32.7588757,35.0228402,478.98,-0.051,0.0445,1.0065,0.5,-0.18,-0.06,22420.0,17690.0,-34360.0
32.7588757,35.0228402,478.98,-0.049,0.061,0.98875,0.14,0.42,-0.02,22450.0,17640.0,-34360.0
32.7588757,35.0228402,478.98,-0.04325,0.03125,0.98725,-0.5,-0.24,0.02,22480.0,17690.0,-34350.0
32.7588757,35.0228402,478.98,-0.0405,0.0235,1.0035,-0.04,-0.44,0.0,22450.0,17840.0,-34340.0
32.7588757,35.0228402,478.98,-0.0495,0.04775,0.99625,0.34,0.52,0.06,22410.0,17810.0,-34350.0
32.7588757,35.0228402,478.98,-0.05625,0.0465,0.988,-0.08,0.5,0.08,22400.0,17750.0,-34360.0
32.7588757,35.0228402,478.98,-0.055,0.02625,1.003,-0.28,-0.42,-0.04,22360.0,17730.0,-34370.0
32.7588757,35.0228402,478.98,-0.05325,0.041,1.00575,0.2,-0.16,0.0,22450.0,17780.0,-34350.0
32.7588757,35.0228402,478.98,-0.0545,0.0505,0.98825,0.06,0.42,0.08,22530.0,17830.0,-34340.0
32.7588757,35.0228402,478.98,-0.04725,0.02925,0.988,-0.34,-0.16,0.1,22550.0,17920.0,-34330.0
32.7588757,35.0228402,478.98,-0.03825,0.027,1.00475,0.0,-0.56,0.02,22610.0,17950.0,-34320.0
32.7588757,35.0228402,478.98,-0.0445,0.05425,0.99975,0.24,0.24,-0.02,22650.0,17960.0,-34310.0
32.7588757,35.0228402,478.98,-0.0555,0.0465,0.9855,-0.24,0.66,0.04,22600.0,17960.0,-34320.0
32.7588757,35.0228402,478.98,-0.0575,0.0175,0.99675,-0.28,-0.28,0.02,22640.0,17950.0,-34310.0
32.7588757,35.0228402,478.98,-0.05275,0.03375,1.01025,0.36,-0.46,-0.06,22580.0,17900.0,-34320.0
32.7588757,35.0228402,478.98,-0.05175,0.0635,0.998,0.3,0.34,-0.02,22510.0,17860.0,-34340.0
32.7588757,35.0228402,478.98,-0.0475,0.046,0.987,-0.36,0.08,0.02,22490.0,17790.0,-34340.0
32.7588757,35.0228402,478.98,-0.0415,0.022,0.99925,-0.18,-0.58,-0.02,22520.0,17540.0,-34360.0
32.7588757,35.0228402,478.98,-0.04525,0.04175,1.00125,0.36,0.1,-0.02,22490.0,17390.0,-34380.0
32.7588757,35.0228402,478.98,-0.0545,0.05425,0.99175,0.06,0.64,0.02,22490.0,17320.0,-34390.0
32.7588757,35.0228402,478.98,-0.0555,0.0345,0.998,-0.3,-0.12,-0.08,22500.0,17270.0,-34400.0
32.7588757,35.0228402,478.98,-0.0525,0.03375,1.009,0.0,-0.52,-0.02,22470.0,17270.0,-34410.0
32.7588757,35.0228402,478.98,-0.05425,0.05175,0.996,0.14,0.32,0.04,22520.0,17270.0,-34390.0
32.7588757,35.0228402,478.98,-0.0505,0.03875,0.98475,-0.26,0.22,-0.04,22600.0,17220.0,-34380.0
32.7588757,35.0228402,478.98,-0.04125,0.02275,1.00025,-0.18,-0.62,-0.08,22520.0,17360.0,-34380.0
32.7588757,35.0228402,478.98,-0.04125,0.04475,1.00425,0.38,-0.14,0.0,22450.0,17530.0,-34370.0
32.7588757,35.0228402,478.98,-0.05325,0.05575,0.98925,-0.02,0.76,0.04,22440.0,17570.0,-34370.0
32.7588757,35.0228402,478.98,-0.0585,0.02425,0.9905,-0.4,0.12,0.0,22480.0,17570.0,-34370.0
32.7588757,35.0228402,478.98,-0.05325,0.01925,1.00675,0.14,-0.58,-0.02,22520.0,17590.0,-34360.0
32.7588757,35.0228402,478.98,-0.0515,0.05325,1.00175,0.46,0.1,0.1,22560.0,17660.0,-34350.0
32.7588757,35.0228402,478.98,-0.0495,0.0555,0.9855,-0.16,0.42,0.04,22540.0,17700.0,-34350.0
32.7588757,35.0228402,478.98,-0.0445,0.025,0.99225,-0.38,-0.4,-0.04,22460.0,17670.0,-34360.0
32.7588757,35.0228402,478.98,-0.0435,0.0295,1.003,0.18,-0.24,0.04,22510.0,17710.0,-34350.0
32.7588757,35.0228402,478.98,-0.05325,0.054,0.99275,0.24,0.5,0.08,22600.0,17760.0,-34330.0
32.7588757,35.0228402,478.98,-0.057,0.04175,0.99075,-0.28,0.28,0.08,22510.0,17780.0,-34340.0
32.7588757,35.0228402,478.98,-0.053,0.02775,1.0065,-0.22,-0.52,0.02,22490.0,17730.0,-34350.0
32.7588757,35.0228402,478.98,-0.052,0.0455,1.003,0.22,0.0,0.0,22520.0,17680.0,-34340.0
32.7588757,35.0228402,478.98,-0.0525,0.049,0.98525,-0.04,0.4,0.04,22500.0,17650.0,-34350.0
32.7588757,35.0228402,478.98,-0.0455,0.0265,0.99225,-0.28,-0.38,-0.1,22510.0,17630.0,-34350.0
32.7588757,35.0228402,478.98,-0.03975,0.03375,1.007,0.16,-0.52,-0.02,22520.0,17690.0,-34350.0
32.7588757,35.0228402,478.98,-0.0505,0.05725,0.998,0.2,0.44,-0.04,22480.0,17700.0,-34350.0
32.7588757,35.0228402,478.98,-0.0595,0.04,0.98625,-0.34,0.54,0.06,22450.0,17660.0,-34360.0
32.7588757,35.0228402,478.98,-0.05675,0.017,1.00275,-0.24,-0.48,-0.02,22470.0,17680.0,-34350.0
32.7588757,35.0228402,478.98,-0.05025,0.042,1.012,0.4,-0.34,-0.04,22460.0,17770.0,-34350.0
32.7588757,35.0228402,478.98,-0.0485,0.063,0.9945,0.14,0.44,0.02,22420.0,17690.0,-34360.0
32.7588757,35.0228402,478.98,-0.04375,0.03575,0.988,-0.42,-0.1,-0.04,22450.0,17690.0,-34360.0
32.7588757,35.0228402,478.98,-0.03975,0.02125,1.00275,-0.1,-0.56,0.02,22450.0,17750.0,-34360.0
32.7588757,35.0228402,478.98,-0.04775,0.047,1.00125,0.38,0.3,0.02,22430.0,17700.0,-34360.0
32.7588757,35.0228402,478.98,-0.05625,0.05075,0.9885,-0.1,0.6,0.02,22540.0,17760.0,-34340.0
32.7588757,35.0228402,478.98,-0.0565,0.02825,0.998,-0.3,-0.28,-0.04,22570.0,17830.0,-34330.0
32.7588757,35.0228402,478.98,-0.05275,0.03475,1.00675,0.18,-0.4,0.08,22630.0,17780.0,-34320.0
32.7588757,35.0228402,478.98,-0.053,0.05025,0.99125,0.12,0.4,0.0,22630.0,17790.0,-34320.0
32.7588757,35.0228402,478.98,-0.047,0.033,0.985,-0.3,0.04,0.0,22600.0,17840.0,-34320.0
32.7588757,35.0228402,478.98,-0.0385,0.0245,1.0005,0.04,-0.62,0.02,22540.0,17930.0,-34320.0
32.7588757,35.0228402,478.98,-0.0435,0.049,0.99975,0.32,0.14,0.08,22580.0,17900.0,-34320.0
32.7588757,35.0228402,478.98,-0.05575,0.04975,0.9855,-0.06,0.72,0.06,22520.0,17750.0,-34340.0
32.7588757,35.0228402,478.98,-0.05975,0.0195,0.99375,-0.38,-0.1,-0.04,22450.0,17720.0,-34360.0
32.7588757,35.0228402,478.98,-0.05425,0.027,1.0075,0.24,-0.56,-0.02,22400.0,17660.0,-34360.0
32.7588757,35.0228402,478.98,-0.05275,0.06,0.998,0.4,0.22,0.0,22350.0,17680.0,-34370.0
32.7588757,35.0228402,478.98,-0.04825,0.05,0.987,-0.3,0.18,0.06,22370.0,17720.0,-34370.0
32.7588757,35.0228402,478.98,-0.0425,0.02175,0.9965,-0.34,-0.48,-0.04,22460.0,17660.0,-34360.0
32.7588757,35.0228402,478.98,-0.044,0.03625,1.001,0.36,-0.08,0.0,22510.0,17600.0,-34350.0
32.7588757,35.0228402,478.98,-0.05475,0.05375,0.99125,0.2,0.66,0.04,22470.0,17620.0,-34360.0
32.7588757,35.0228402,478.98,-0.05675,0.03625,0.99575,-0.3,-0.02,0.02,22460.0,17650.0,-34360.0
32.7588757,35.0228402,478.98,-0.053,0.0305,1.0095,-0.04,-0.56,0.02,22450.0,17670.0,-34360.0
32.7588757,35.0228402,478.98,-0.05225,0.0495,0.99925,0.26,0.2,0.04,22410.0,17660.0,-34360.0
32.7588757,35.0228402,478.98,-0.05025,0.04325,0.98625,-0.12,0.26,0.0,22400.0,17610.0,-34370.0
32.7588757,35.0228402,478.98,-0.0415,0.02225,0.99825,-0.26,-0.52,-0.02,22380.0,17600.0,-34370.0
32.7588757,35.0228402,478.98,-0.0395,0.0395,1.00575,0.24,-0.34,0.06,22340.0,17620.0,-34380.0
32.7588757,35.0228402,478.98,-0.052,0.058,0.9925,0.14,0.72,0.02,22410.0,17610.0,-34370.0
32.7588757,35.0228402,478.98,-0.05875,0.032,0.99,-0.36,0.36,0.02,22470.0,17580.0,-34360.0
32.7588757,35.0228402,478.98,-0.055,0.018,1.007,-0.04,-0.56,-0.08,22440.0,17610.0,-34370.0
32.7588757,35.0228402,478.98,-0.0515,0.049,1.00575,0.46,-0.1,-0.04,22500.0,17660.0,-34350.0
32.7588757,35.0228402,478.98,-0.04975,0.06,0.98875,0.0,0.42,0.02,22570.0,17750.0,-34330.0
32.7588757,35.0228402,478.98,-0.04475,0.03,0.9915,-0.46,-0.3,0.02,22490.0,17720.0,-34350.0
32.7588757,35.0228402,478.98,-0.04175,0.02725,1.0035,0.08,-0.4,-0.02,22480.0,17660.0,-34360.0
32.7588757,35.0228402,478.98,-0.051,0.053,0.99525,0.3,0.52,0.08,22480.0,17640.0,-34360.0
32.7588757,35.0228402,478.98,-0.05675,0.04675,0.988,-0.2,0.44,0.04,22420.0,17660.0,-34370.0
32.7588757,35.0228402,478.98,-0.05475,0.02775,1.003,-0.24,-0.46,0.06,22400.0,17650.0,-34370.0
32.7588757,35.0228402,478.98,-0.053,0.042,1.00475,0.24,-0.18,0.04,22460.0,17600.0,-34360.0
32.7588757,35.0228402,478.98,-0.0545,0.05175,0.98675,0.06,0.5,0.0,22490.0,17600.0,-34360.0
32.7588757,35.0228402,478.98,-0.047,0.02875,0.989,-0.32,-0.12,0.02,22360.0,17630.0,-34380.0
32.7588757,35.0228402,478.98,-0.03825,0.02925,1.0045,0.08,-0.62,-0.02,22430.0,17680.0,-34360.0
32.7588757,35.0228402,478.98,-0.045,0.055,0.99725,0.26,0.32,-0.02,22440.0,17710.0,-34360.0
32.7588757,35.0228402,478.98,-0.056,0.0445,0.98375,-0.26,0.58,0.04,22460.0,17740.0,-34360.0
32.7588757,35.0228402,478.98,-0.05725,0.01575,0.998,-0.3,-0.32,-0.06,22460.0,17710.0,-34360.0
32.7588757,35.0228402,478.98,-0.05325,0.033,1.01025,0.38,-0.4,0.0,22410.0,17670.0,-34370.0
32.7588757,35.0228402,478.98,-0.05325,0.06225,0.997,0.28,0.34,0.02,22380.0,17680.0,-34370.0
32.7588757,35.0228402,478.98,-0.04825,0.04225,0.98775,-0.4,0.06,0.02,22500.0,17720.0,-34350.0
32.7588757,35.0228402,478.98,-0.04025,0.0195,1.001,-0.2,-0.58,-0.04,22630.0,17780.0,-34330.0
32.7588757,35.0228402,478.98,-0.04275,0.0405,1.00125,0.28,0.08,0.02,22600.0,17860.0,-34330.0
32.7588757,35.0228402,478.98,-0.05225,0.053,0.9905,0.02,0.68,0.0,22580.0,17900.0,-34330.0
32.7588757,35.0228402,478.98,-0.05525,0.03175,0.99825,-0.38,-0.12,0.0,22620.0,17880.0,-34320.0
32.7588757,35.0228402,478.98,-0.0535,0.0315,1.011,-0.02,-0.46,-0.06,22700.0,17920.0,-34310.0
32.7588757,35.0228402,478.98,-0.05675,0.05075,0.997,0.2,0.32,-0.02,22760.0,17910.0,-34300.0
32.7588757,35.0228402,478.98,-0.05275,0.03925,0.98475,-0.26,0.18,0.0,22770.0,17920.0,-34300.0
32.7588757,35.0228402,478.98,-0.0415,0.023,0.99975,-0.14,-0.62,0.0,22730.0,17880.0,-34310.0
32.7588757,35.0228402,478.98,-0.0395,0.0445,1.00425,0.28,-0.16,-0.02,22630.0,17800.0,-34330.0
32.7588757,35.0228402,478.98,-0.052,0.055,0.98875,0.04,0.72,0.02,22600.0,17750.0,-34340.0
32.7588757,35.0228402,478.98,-0.05825,0.0245,0.99075,-0.4,0.22,0.02,22590.0,17750.0,-34340.0
32.7588757,35.0228402,478.98,-0.05375,0.019,1.008,0.1,-0.6,-0.02,22570.0,17720.0,-34340.0
32.7588757,35.0228402,478.98,-0.0525,0.0545,1.003,0.5,0.04,-0.02,22550.0,17760.0,-34340.0
32.7588757,35.0228402,478.98,-0.051,0.0585,0.98425,-0.06,0.4,0.06,22520.0,17800.0,-34350.0
32.7588757,35.0228402,478.98,-0.04525,0.0255,0.9915,-0.44,-0.38,0.0,22490.0,17930.0,-34340.0
32.7588757,35.0228402,478.98,-0.0435,0.0275,1.0035,0.18,-0.34,-0.02,22440.0,17850.0,-34350.0
32.7588757,35.0228402,478.98,-0.05325,0.05425,0.994,0.28,0.58,0.04,22460.0,17830.0,-34350.0
32.7588757,35.0228402,478.98,-0.05675,0.04425,0.992,-0.24,0.3,-0.02,22410.0,17800.0,-34360.0
32.7588757,35.0228402,478.98,-0.05225,0.02775,1.007,-0.2,-0.52,0.02,22400.0,17760.0,-34360.0
32.7588757,35.0228402,478.98,-0.04975,0.04375,1.00275,0.2,-0.12,0.0,22420.0,17710.0,-34360.0
32.7588757,35.0228402,478.98,-0.0515,0.04925,0.98325,-0.06,0.54,0.06,22450.0,17830.0,-34350.0
32.7588757,35.0228402,478.98,-0.04475,0.02775,0.9915,-0.24,-0.24,-0.04,22580.0,17910.0,-34320.0
32.7588757,35.0228402,478.98,-0.04,0.032,1.008,0.16,-0.6,0.0,22680.0,17920.0,-34310.0
32.7588757,35.0228402,478.98,-0.0515,0.05825,0.99775,0.28,0.52,0.04,22690.0,17950.0,-34300.0
32.7588757,35.0228402,478.98,-0.06075,0.04225,0.9845,-0.32,0.56,0.02,22740.0,17910.0,-34300.0
32.7588757,35.0228402,478.98,-0.05625,0.01525,1.00075,-0.26,-0.52,0.0,22740.0,17950.0,-34290.0
32.7588757,35.0228402,478.98,-0.04775,0.0375,1.01075,0.44,-0.4,-0.04,22730.0,17990.0,-34290.0
32.7588757,35.0228402,478.98,-0.04625,0.06475,0.99225,0.2,0.5,-0.06,22770.0,17960.0,-34290.0
32.7588757,35.0228402,478.98,-0.044,0.041,0.98575,-0.42,0.04,0.0,22760.0,17970.0,-34290.0
32.7588757,35.0228402,478.98,-0.0405,0.018,1.00375,-0.22,-0.62,0.02,22690.0,17990.0,-34300.0
32.7588757,35.0228402,478.98,-0.0495,0.04325,1.00175,0.4,0.24,0.02,22700.0,18000.0,-34290.0
32.7588757,35.0228402,478.98,-0.05975,0.055,0.98675,0.08,0.7,0.08,22740.0,17960.0,-34290.0
32.7588757,35.0228402,478.98,-0.0595,0.03325,0.99575,-0.34,-0.22,0.02,22720.0,17970.0,-34290.0
32.7588757,35.0228402,478.98,-0.05325,0.032,1.01,-0.04,-0.5,0.0,22700.0,17960.0,-34290.0
32.7588757,35.0228402,478.98,-0.054,0.05,0.9945,0.14,0.4,0.04,22700.0,17920.0,-34300.0
32.7588757,35.0228402,478.98,-0.04925,0.037,0.9835,-0.28,0.14,0.02,22700.0,17810.0,-34320.0
32.7588757,35.0228402,478.98,-0.03875,0.0225,1.00325,-0.04,-0.66,-0.04,22710.0,17680.0,-34330.0
32.7588757,35.0228402,478.98,-0.03975,0.04675,1.00575,0.36,-0.12,0.04,22790.0,17560.0,-34320.0
32.7588757,35.0228402,478.98,-0.05425,0.05525,0.9855,-0.02,0.84,0.04,22820.0,17530.0,-34320.0
32.7588757,35.0228402,478.98,-0.06175,0.0245,0.98775,-0.38,0.08,-0.02,22780.0,17470.0,-34330.0
32.7588757,35.0228402,478.98,-0.056,0.0185,1.01025,0.1,-0.68,0.0,22720.0,17450.0,-34340.0
32.7588757,35.0228402,478.98,-0.0525,0.0525,1.0035,0.5,0.08,0.02,22720.0,17500.0,-34340.0
32.7588757,35.0228402,478.98,-0.048,0.05975,0.9845,-0.1,0.34,0.04,22630.0,17630.0,-34340.0
32.7588757,35.0228402,478.98,-0.04225,0.025,0.996,-0.44,-0.48,0.02,22650.0,17730.0,-34330.0
32.7588757,35.0228402,478.98,-0.03875,0.03025,1.0025,0.1,-0.3,0.04,22640.0,17820.0,-34320.0
32.7588757,35.0228402,478.98,-0.051,0.053,0.9945,0.3,0.66,0.04,22540.0,17890.0,-34330.0
32.7588757,35.0228402,478.98,-0.05425,0.04275,0.9895,-0.2,0.34,0.0,22550.0,17850.0,-34320.0
32.7588757,35.0228402,478.98,-0.05325,0.02825,1.00975,-0.2,-0.54,0.0,22530.0,17740.0,-34340.0
32.7588757,35.0228402,478.98,-0.0525,0.0445,1.00425,0.2,-0.06,0.0,22440.0,17690.0,-34350.0
32.7588757,35.0228402,478.98,-0.0545,0.04725,0.98825,-0.06,0.52,0.0,22420.0,17660.0,-34360.0
32.7588757,35.0228402,478.98,-0.046,0.027,0.98725,-0.28,-0.28,0.0,22410.0,17650.0,-34360.0
32.7588757,35.0228402,478.98,-0.0375,0.03,1.011,0.1,-0.58,-0.02,22380.0,17650.0,-34360.0
32.7588757,35.0228402,478.98,-0.048,0.05925,0.9945,0.32,0.56,0.04,22420.0,17610.0,-34360.0
32.7588757,35.0228402,478.98,-0.057,0.03975,0.98675,-0.44,0.66,0.04,22460.0,17660.0,-34350.0
32.7588757,35.0228402,478.98,-0.058,0.0155,1.0005,-0.22,-0.4,0.0,22430.0,17700.0,-34350.0
32.7588757,35.0228402,478.98,-0.051,0.035,1.01125,0.38,-0.36,0.08,22460.0,17610.0,-34360.0
32.7588757,35.0228402,478.98,-0.0535,0.06425,0.99175,0.3,0.5,0.02,22480.0,17560.0,-34360.0
32.7588757,35.0228402,478.98,-0.0485,0.042,0.98425,-0.34,0.0,0.08,22430.0,17580.0,-34370.0
32.7588757,35.0228402,478.98,-0.04325,0.02125,1.00175,-0.16,-0.56,0.0,22370.0,17600.0,-34370.0
32.7588757,35.0228402,478.98,-0.048,0.04625,1.00375,0.42,0.18,0.02,22430.0,17610.0,-34370.0
32.7588757,35.0228402,478.98,-0.05675,0.053,0.988,-0.04,0.7,0.04,22480.0,17640.0,-34350.0
32.7588757,35.0228402,478.98,-0.057,0.03175,0.99875,-0.28,-0.24,-0.02,22440.0,17630.0,-34360.0
32.7588757,35.0228402,478.98,-0.05225,0.0335,1.00875,0.1,-0.46,-0.04,22430.0,17640.0,-34360.0
32.7588757,35.0228402,478.98,-0.05425,0.0535,0.9935,0.22,0.32,-0.08,22400.0,17680.0,-34370.0
32.7588757,35.0228402,478.98,-0.05,0.03775,0.982,-0.28,0.18,0.0,22480.0,17790.0,-34340.0
32.7588757,35.0228402,478.98,-0.04075,0.02375,1.001,-0.14,-0.64,0.0,22530.0,17700.0,-34340.0
32.7588757,35.0228402,478.98,-0.04325,0.046,1.0055,0.26,-0.04,-0.02,22550.0,17680.0,-34350.0
32.7588757,35.0228402,478.98,-0.05575,0.05375,0.987,-0.06,0.7,0.02,22430.0,17710.0,-34360.0
32.7588757,35.0228402,478.98,-0.059,0.0235,0.99,-0.38,0.0,0.06,22400.0,17660.0,-34370.0
32.7588757,35.0228402,478.98,-0.05075,0.022,1.00925,0.12,-0.7,-0.06,22420.0,17620.0,-34370.0
32.7588757,35.0228402,478.98,-0.04775,0.057,1.00375,0.5,0.16,0.0,22460.0,17610.0,-34370.0
32.7588757,35.0228402,478.98,-0.0455,0.0535,0.9855,-0.16,0.34,-0.02,22500.0,17620.0,-34360.0
32.7588757,35.0228402,478.98,-0.04125,0.02125,0.99375,-0.4,-0.38,-0.02,22480.0,17660.0,-34360.0
32.7588757,35.0228402,478.98,-0.04225,0.03,1.0055,0.24,-0.24,0.04,22470.0,17710.0,-34360.0
32.7588757,35.0228402,478.98,-0.054,0.05575,0.9945,0.22,0.7,0.0,22480.0,17730.0,-34350.0
32.7588757,35.0228402,478.98,-0.05825,0.0405,0.99075,-0.28,0.3,0.02,22460.0,17740.0,-34360.0
32.7588757,35.0228402,478.98,-0.054,0.02725,1.00625,-0.1,-0.54,0.0,22410.0,17780.0,-34360.0
32.7588757,35.0228402,478.98,-0.05125,0.04475,1.003,0.18,-0.02,0.06,22480.0,17780.0,-34350.0
32.7588757,35.0228402,478.98,-0.051,0.046,0.985,-0.08,0.4,0.04,22520.0,17690.0,-34350.0
32.7588757,35.0228402,478.98,-0.0425,0.0235,0.994,-0.3,-0.32,-0.06,22540.0,17750.0,-34350.0
32.7588757,35.0228402,478.98,-0.03975,0.03525,1.006,0.18,-0.38,0.0,22540.0,17760.0,-34350.0
32.7588757,35.0228402,478.98,-0.05125,0.05675,0.994,0.24,0.58,0.02,22530.0,17770.0,-34350.0
32.7588757,35.0228402,478.98,-0.06025,0.036,0.98475,-0.36,0.46,-0.02,22520.0,17850.0,-34350.0
32.7588757,35.0228402,478.98,-0.05775,0.016,1.00175,-0.12,-0.5,-0.02,22570.0,17930.0,-34330.0
32.7588757,35.0228402,478.98,-0.0535,0.04325,1.00875,0.36,-0.2,-0.02,22620.0,17950.0,-34320.0
32.7588757,35.0228402,478.98,-0.05275,0.0615,0.99075,0.2,0.44,0.0,22600.0,17940.0,-34330.0
32.7588757,35.0228402,478.98,-0.0475,0.033,0.98775,-0.46,-0.14,0.02,22600.0,17950.0,-34320.0
32.7588757,35.0228402,478.98,-0.04175,0.0235,1.00225,-0.04,-0.56,0.02,22580.0,17900.0,-34330.0
32.7588757,35.0228402,478.98,-0.0485,0.05,0.9985,0.42,0.34,0.0,22590.0,17880.0,-34330.0
32.7588757,35.0228402,478.98,-0.05475,0.05025,0.9895,-0.12,0.52,0.02,22460.0,17830.0,-34350.0
32.7588757,35.0228402,478.98,-0.05475,0.02875,1.001,-0.28,-0.38,-0.06,22420.0,17800.0,-34360.0
32.7588757,35.0228402,478.98,-0.0525,0.03825,1.007,0.2,-0.28,0.0,22440.0,17780.0,-34360.0
32.7588757,35.0228402,478.98,-0.05475,0.05275,0.99225,0.04,0.4,0.08,22450.0,17750.0,-34360.0
32.7588757,35.0228402,478.98,-0.048,0.0335,0.9875,-0.38,-0.14,0.0,22550.0,17760.0,-34350.0
32.7588757,35.0228402,478.98,-0.03875,0.028,1.0035,-0.02,-0.62,-0.04,22510.0,17760.0,-34350.0
32.7588757,35.0228402,478.98,-0.04325,0.053,1.001,0.3,0.16,0.04,22480.0,17700.0,-34360.0
32.7588757,35.0228402,478.98,-0.05325,0.048,0.9865,-0.26,0.8,-0.02,22500.0,17680.0,-34360.0
32.7588757,35.0228402,478.98,-0.05525,0.0185,0.99625,-0.34,-0.24,-0.02,22490.0,17710.0,-34360.0
32.7588757,35.0228402,478.98,-0.05,0.03075,1.00975,0.26,-0.48,-0.04,22400.0,17730.0,-34370.0
32.7588757,35.0228402,478.98,-0.05,0.062,0.9985,0.38,0.24,0.02,22460.0,17700.0,-34360.0
32.7588757,35.0228402,478.98,-0.048,0.04575,0.98625,-0.28,0.18,-0.08,22580.0,17730.0,-34340.0
32.7588757,35.0228402,478.98,-0.04275,0.02025,0.998,-0.26,-0.5,-0.04,22520.0,17790.0,-34350.0
32.7588757,35.0228402,478.98,-0.04575,0.0395,1.00175,0.38,0.06,0.06,22450.0,17720.0,-34360.0
32.7588757,35.0228402,478.98,-0.0545,0.05525,0.99175,0.02,0.64,-0.02,22520.0,17690.0,-34350.0
32.7588757,35.0228402,478.98,-0.05625,0.0345,0.99575,-0.34,-0.02,-0.04,22610.0,17800.0,-34330.0
32.7588757,35.0228402,478.98,-0.05275,0.02975,1.00775,0.0,-0.46,-0.02,22660.0,17860.0,-34310.0
32.7588757,35.0228402,478.98,-0.05375,0.0485,0.99775,0.18,0.22,0.06,22650.0,17860.0,-34320.0
32.7588757,35.0228402,478.98,-0.0515,0.03875,0.98475,-0.18,0.22,0.0,22530.0,17790.0,-34340.0
32.7588757,35.0228402,478.98,-0.04275,0.02275,0.9985,-0.2,-0.56,-0.02,22460.0,17750.0,-34350.0
32.7588757,35.0228402,478.98,-0.04225,0.043,1.0045,0.3,-0.22,0.02,22450.0,17720.0,-34360.0
32.7588757,35.0228402,478.98,-0.05425,0.0545,0.9895,0.08,0.74,0.08,22450.0,17750.0,-34360.0
32.7588757,35.0228402,478.98,-0.06,0.0255,0.98825,-0.42,0.18,-0.02,22390.0,17710.0,-34360.0
32.7588757,35.0228402,478.98,-0.05525,0.01825,1.00675,0.1,-0.62,-0.04,22410.0,17670.0,-34370.0
32.7588757,35.0228402,478.98,-0.05225,0.053,1.00525,0.46,0.0,0.0,22410.0,17690.0,-34360.0
32.7588757,35.0228402,478.98,-0.05,0.058,0.9875,-0.1,0.38,0.02,22470.0,17760.0,-34340.0
32.7588757,35.0228402,478.98,-0.0435,0.02575,0.9925,-0.48,-0.36,0.06,22420.0,17680.0,-34360.0
32.7588757,35.0228402,478.98,-0.041,0.0285,1.00375,0.16,-0.34,0.0,22430.0,17660.0,-34360.0
32.7588757,35.0228402,478.98,-0.05075,0.054,0.99525,0.24,0.6,0.02,22410.0,17630.0,-34360.0
32.7588757,35.0228402,478.98,-0.055,0.04425,0.9915,-0.22,0.32,0.0,22400.0,17610.0,-34370.0
32.7588757,35.0228402,478.98,-0.05325,0.029,1.00575,-0.12,-0.52,0.0,22400.0,17600.0,-34370.0
32.7588757,35.0228402,478.98,-0.0525,0.04475,1.005,0.22,0.0,0.06,22370.0,17690.0,-34370.0
32.7588757,35.0228402,478.98,-0.05325,0.04875,0.98675,-0.12,0.46,0.06,22440.0,17720.0,-34350.0
32.7588757,35.0228402,478.98,-0.04525,0.0265,0.99125,-0.28,-0.36,-0.08,22470.0,17660.0,-34350.0
32.7588757,35.0228402,478.98,-0.03825,0.03325,1.0055,0.2,-0.52,0.0,22480.0,17720.0,-34340.0
32.7588757,35.0228402,478.98,-0.0475,0.057,0.9975,0.22,0.5,0.08,22530.0,17800.0,-34330.0
32.7588757,35.0228402,478.98,-0.0565,0.039,0.986,-0.36,0.56,0.02,22530.0,17840.0,-34320.0
32.7588757,35.0228402,478.98,-0.05525,0.0155,0.99975,-0.2,-0.38,-0.02,22530.0,17870.0,-34330.0
32.7588757,35.0228402,478.98,-0.0505,0.04025,1.0085,0.42,-0.34,0.0,22540.0,17850.0,-34320.0
32.7588757,35.0228402,478.98,-0.05075,0.06275,0.99275,0.22,0.42,-0.04,22550.0,17790.0,-34330.0
32.7588757,35.0228402,478.98,-0.04725,0.036,0.986,-0.44,0.0,0.04,22450.0,17750.0,-34350.0
32.7588757,35.0228402,478.98,-0.04375,0.021,1.0005,-0.04,-0.5,0.0,22410.0,17690.0,-34360.0
32.7588757,35.0228402,478.98,-0.0495,0.0465,1.0,0.4,0.28,0.02,22430.0,17630.0,-34360.0
32.7588757,35.0228402,478.98,-0.056,0.0515,0.991,-0.06,0.58,-0.04,22400.0,17610.0,-34370.0
32.7588757,35.0228402,478.98,-0.0555,0.03025,0.9985,-0.26,-0.3,0.02,22410.0,17620.0,-34360.0
32.7588757,35.0228402,478.98,-0.05175,0.03575,1.006,0.14,-0.28,0.02,22400.0,17670.0,-34360.0
32.7588757,35.0228402,478.98,-0.0535,0.05,0.992,0.14,0.38,0.04,22390.0,17660.0,-34360.0
32.7588757,35.0228402,478.98,-0.04875,0.03375,0.98725,-0.24,0.06,0.04,22420.0,17620.0,-34360.0
32.7588757,35.0228402,478.98,-0.04125,0.0265,1.00275,0.02,-0.64,0.0,22430.0,17590.0,-34370.0
32.7588757,35.0228402,478.98,-0.0455,0.05175,1.002,0.36,0.1,0.08,22390.0,17590.0,-34370.0
32.7588757,35.0228402,478.98,-0.05725,0.051,0.98725,-0.14,0.68,0.0,22410.0,17610.0,-34370.0
32.7588757,35.0228402,478.98,-0.0585,0.01875,0.9935,-0.42,-0.16,0.0,22480.0,17680.0,-34350.0
32.7588757,35.0228402,478.98,-0.05075,0.0265,1.009,0.28,-0.54,0.04,22470.0,17640.0,-34360.0
32.7588757,35.0228402,478.98,-0.04825,0.06075,1.00075,0.46,0.22,-0.02,22460.0,17460.0,-34380.0
32.7588757,35.0228402,478.97,-0.0455,0.05,0.98725,-0.26,0.26,0.0,22530.0,17330.0,-34380.0
32.7588757,35.0228402,478.97,-0.0425,0.02075,0.998,-0.32,-0.48,-0.12,22580.0,17350.0,-34370.0
32.7588757,35.0228402,478.97,-0.04575,0.0345,1.00175,0.36,-0.1,0.0,22520.0,17300.0,-34390.0
32.7588757,35.0228402,478.97,-0.05625,0.054,0.99125,0.2,0.62,0.08,22570.0,17240.0,-34380.0
32.7588757,35.0228402,478.97,-0.058,0.03825,0.9945,-0.22,-0.02,-0.02,22610.0,17200.0,-34380.0
32.7588757,35.0228402,478.97,-0.05225,0.031,1.0085,-0.06,-0.54,0.02,22520.0,17230.0,-34400.0
32.7588757,35.0228402,478.97,-0.05075,0.04875,1.0,0.18,0.12,0.06,22460.0,17410.0,-34390.0
32.7588757,35.0228402,478.97,-0.04925,0.04225,0.98475,-0.1,0.34,-0.02,22460.0,17540.0,-34370.0
32.7588757,35.0228402,478.97,-0.0405,0.02175,0.99775,-0.24,-0.5,0.04,22380.0,17650.0,-34380.0
32.7588757,35.0228402,478.97,-0.0395,0.03975,1.005,0.28,-0.28,-0.02,22380.0,17650.0,-34370.0
32.7588757,35.0228402,478.97,-0.052,0.05925,0.9905,0.02,0.64,0.04,22440.0,17690.0,-34360.0
32.7588757,35.0228402,478.97,-0.06,0.03175,0.987,-0.5,0.32,0.0,22500.0,17780.0,-34350.0
32.7588757,35.0228402,478.97,-0.0555,0.0145,1.00575,-0.06,-0.6,-0.02,22510.0,17690.0,-34350.0
32.7588757,35.0228402,478.97,-0.052,0.0475,1.007,0.54,-0.1,0.02,22530.0,17670.0,-34360.0
32.7588757,35.0228402,478.97,-0.05175,0.06125,0.98825,0.0,0.42,0.0,22550.0,17680.0,-34360.0
32.7588757,35.0228402,478.97,-0.046,0.0275,0.99125,-0.44,-0.32,-0.02,22510.0,17690.0,-34360.0
32.7588757,35.0228402,478.97,-0.04125,0.02425,1.0015,0.0,-0.42,0.02,22530.0,17740.0,-34350.0
32.7588757,35.0228402,478.97,-0.05025,0.05,0.99825,0.36,0.44,0.02,22510.0,17810.0,-34350.0
32.7588757,35.0228402,478.97,-0.05725,0.04725,0.9885,-0.14,0.46,0.04,22480.0,17770.0,-34350.0
32.7588757,35.0228402,478.97,-0.05625,0.027,1.00725,-0.18,-0.4,0.0,22470.0,17730.0,-34360.0
32.7588757,35.0228402,478.97,-0.053,0.03825,1.0055,0.16,-0.2,0.08,22430.0,17770.0,-34360.0
32.7588757,35.0228402,478.97,-0.05525,0.0525,0.98925,0.1,0.42,0.04,22520.0,17880.0,-34340.0
32.7588757,35.0228402,478.97,-0.0485,0.031,0.98675,-0.28,-0.18,0.06,22640.0,17850.0,-34320.0
32.7588757,35.0228402,478.97,-0.03875,0.02625,1.00825,0.06,-0.6,-0.02,22700.0,17850.0,-34320.0
32.7588757,35.0228402,478.97,-0.04475,0.056,0.996,0.34,0.26,0.06,22610.0,17950.0,-34330.0
32.7588757,35.0228402,478.97,-0.05625,0.0485,0.9865,-0.28,0.6,0.02,22510.0,17940.0,-34330.0
32.7588757,35.0228402,478.97,-0.0575,0.02075,0.995,-0.32,-0.22,0.02,22450.0,17850.0,-34350.0
32.7588757,35.0228402,478.97,-0.04825,0.02925,1.014,0.24,-0.5,-0.04,22420.0,17740.0,-34360.0
32.7588757,35.0228402,478.97,-0.05,0.06525,0.9945,0.42,0.3,0.06,22490.0,17720.0,-34360.0
32.7588757,35.0228402,478.97,-0.04625,0.0475,0.98475,-0.36,0.12,0.04,22480.0,17720.0,-34360.0
32.7588757,35.0228402,478.97,-0.0405,0.02,1.0015,-0.32,-0.64,-0.06,22430.0,17780.0,-34360.0
32.7588757,35.0228402,478.97,-0.0425,0.038,1.00475,0.4,0.08,-0.02,22460.0,17770.0,-34360.0
32.7588757,35.0228402,478.97,-0.05475,0.05625,0.988,0.12,0.76,0.08,22460.0,17720.0,-34360.0
32.7588757,35.0228402,478.97,-0.05625,0.03675,0.996,-0.28,-0.02,-0.06,22380.0,17730.0,-34370.0
32.7588757,35.0228402,478.97,-0.05125,0.02775,1.01225,-0.04,-0.52,0.0,22320.0,17750.0,-34380.0
32.7588757,35.0228402,478.97,-0.0525,0.04975,0.99775,0.28,0.3,0.0,22400.0,17690.0,-34370.0
32.7588757,35.0228402,478.97,-0.05125,0.04375,0.98175,-0.18,0.3,0.02,22450.0,17670.0,-34360.0
32.7588757,35.0228402,478.97,-0.043,0.02275,1.0005,-0.22,-0.54,-0.02,22500.0,17650.0,-34360.0
32.7588757,35.0228402,478.97,-0.04,0.038,1.008,0.26,-0.26,0.02,22480.0,17640.0,-34360.0
32.7588757,35.0228402,478.97,-0.054,0.05725,0.98775,0.08,0.78,0.04,22400.0,17650.0,-34370.0
32.7588757,35.0228402,478.97,-0.0615,0.031,0.984,-0.44,0.34,0.0,22420.0,17670.0,-34360.0
32.7588757,35.0228402,478.97,-0.056,0.0135,1.007,-0.04,-0.64,-0.02,22510.0,17730.0,-34350.0
32.7588757,35.0228402,478.97,-0.0525,0.04625,1.00775,0.46,-0.1,0.04,22450.0,17690.0,-34360.0
32.7588757,35.0228402,478.97,-0.053,0.06125,0.9835,0.06,0.48,-0.02,22400.0,17660.0,-34370.0
32.7588757,35.0228402,478.97,-0.04725,0.02925,0.9875,-0.42,-0.26,0.04,22410.0,17640.0,-34370.0
32.7588757,35.0228402,478.97,-0.0415,0.02075,1.006,0.04,-0.52,0.04,22420.0,17610.0,-34370.0
32.7588757,35.0228402,478.97,-0.04975,0.05,0.9965,0.42,0.48,0.02,22430.0,17580.0,-34370.0
32.7588757,35.0228402,478.97,-0.057,0.04875,0.9855,-0.16,0.54,0.02,22380.0,17570.0,-34370.0
32.7588757,35.0228402,478.97,-0.05425,0.02725,1.00325,-0.26,-0.5,0.02,22400.0,17580.0,-34370.0
32.7588757,35.0228402,478.97,-0.0495,0.03775,1.0105,0.22,-0.32,0.02,22400.0,17610.0,-34370.0
32.7588757,35.0228402,478.97,-0.0525,0.054,0.9885,0.16,0.46,0.1,22420.0,17610.0,-34360.0
32.7588757,35.0228402,478.97,-0.04675,0.0325,0.986,-0.34,-0.04,0.0,22420.0,17630.0,-34360.0
32.7588757,35.0228402,478.97,-0.03825,0.0265,1.0085,0.06,-0.7,0.0,22380.0,17610.0,-34370.0
32.7588757,35.0228402,478.97,-0.04375,0.054,1.00375,0.3,0.24,0.04,22400.0,17560.0,-34370.0
32.7588757,35.0228402,478.97,-0.05525,0.0485,0.98475,-0.16,0.72,-0.04,22450.0,17550.0,-34360.0
32.7588757,35.0228402,478.97,-0.0545,0.019,0.994,-0.28,-0.34,-0.04,22430.0,17570.0,-34370.0
32.7588757,35.0228402,478.97,-0.04675,0.02775,1.0165,0.28,-0.6,-0.06,22500.0,17610.0,-34350.0
32.7588757,35.0228402,478.97,-0.049,0.06275,0.9955,0.44,0.32,0.04,22500.0,17660.0,-34350.0
32.7588757,35.0228402,478.97,-0.04875,0.05,0.98425,-0.24,0.28,-0.02,22410.0,17670.0,-34360.0
32.7588757,35.0228402,478.97,-0.042,0.0195,0.99775,-0.3,-0.52,0.0,22360.0,17630.0,-34370.0
32.7588757,35.0228402,478.97,-0.04325,0.039,1.007,0.38,0.0,0.02,22460.0,17620.0,-34360.0
32.7588757,35.0228402,478.97,-0.0545,0.05825,0.9875,0.1,0.7,-0.02,22540.0,17730.0,-34340.0
32.7588757,35.0228402,478.97,-0.057,0.03775,0.9945,-0.4,0.06,-0.02,22600.0,17780.0,-34320.0
32.7588757,35.0228402,478.97,-0.05275,0.03,1.00575,-0.04,-0.54,-0.04,22620.0,17820.0,-34320.0
32.7588757,35.0228402,478.97,-0.05275,0.04825,1.00375,0.18,0.2,0.02,22570.0,17870.0,-34320.0
32.7588757,35.0228402,478.97,-0.05425,0.0495,0.97975,-0.14,0.42,-0.04,22510.0,17860.0,-34330.0
32.7588757,35.0228402,478.97,-0.04425,0.02375,0.9995,-0.36,-0.56,-0.02,22550.0,17820.0,-34330.0
32.7588757,35.0228402,478.97,-0.04275,0.0405,1.0065,0.28,-0.3,-0.04,22520.0,17760.0,-34340.0
32.7588757,35.0228402,478.97,-0.053,0.0575,0.99225,0.04,0.66,0.02,22410.0,17720.0,-34360.0
32.7588757,35.0228402,478.97,-0.06125,0.03375,0.985,-0.36,0.32,0.0,22390.0,17650.0,-34360.0
32.7588757,35.0228402,478.97,-0.0545,0.0175,1.00675,-0.04,-0.58,-0.02,22440.0,17650.0,-34360.0
32.7588757,35.0228402,478.97,-0.0515,0.04825,1.008,0.36,-0.16,0.0,22440.0,17740.0,-34350.0
32.7588757,35.0228402,478.97,-0.05175,0.0635,0.9875,0.02,0.48,0.06,22380.0,17680.0,-34360.0
32.7588757,35.0228402,478.97,-0.047,0.03025,0.9885,-0.5,-0.2,0.0,22380.0,17660.0,-34370.0
32.7588757,35.0228402,478.97,-0.04225,0.022,1.00525,-0.04,-0.5,0.06,22370.0,17630.0,-34370.0
32.7588757,35.0228402,478.97,-0.0505,0.05025,0.9975,0.28,0.5,0.04,22400.0,17600.0,-34370.0
32.7588757,35.0228402,478.97,-0.05775,0.05,0.988,-0.12,0.48,0.0,22380.0,17610.0,-34370.0
32.7588757,35.0228402,478.97,-0.054,0.0255,1.00375,-0.34,-0.5,0.0,22390.0,17710.0,-34360.0
32.7588757,35.0228402,478.97,-0.04975,0.0355,1.00925,0.14,-0.28,0.0,22450.0,17660.0,-34360.0
32.7588757,35.0228402,478.97,-0.0515,0.05025,0.98775,0.1,0.44,0.06,22500.0,17610.0,-34360.0
32.7588757,35.0228402,478.97,-0.04575,0.03,0.987,-0.44,-0.1,-0.02,22430.0,17690.0,-34360.0
32.7588757,35.0228402,478.97,-0.038,0.02325,1.00775,-0.02,-0.72,0.02,22540.0,17810.0,-34340.0
32.7588757,35.0228402,478.97,-0.04425,0.04975,1.0005,0.28,0.26,-0.04,22580.0,17780.0,-34330.0
32.7588757,35.0228402,478.97,-0.057,0.0465,0.984,-0.14,0.7,0.02,22530.0,17750.0,-34340.0
32.7588757,35.0228402,478.97,-0.05675,0.01475,0.99625,-0.38,-0.28,-0.06,22470.0,17710.0,-34360.0
32.7588757,35.0228402,478.97,-0.049,0.025,1.01225,0.3,-0.52,-0.1,22420.0,17690.0,-34360.0
32.7588757,35.0228402,478.97,-0.04925,0.05875,0.99425,0.4,0.36,-0.06,22380.0,17700.0,-34370.0
32.7588757,35.0228402,478.97,-0.04775,0.04625,0.982,-0.3,0.24,0.0,22430.0,17690.0,-34360.0
32.7588757,35.0228402,478.97,-0.042,0.0165,1.0,-0.36,-0.5,-0.04,22410.0,17680.0,-34370.0
32.7588757,35.0228402,478.97,-0.045,0.03425,1.004,0.3,-0.04,0.02,22380.0,17700.0,-34370.0
32.7588757,35.0228402,478.97,-0.056,0.0545,0.989,0.22,0.68,-0.02,22420.0,17740.0,-34360.0
32.7588757,35.0228402,478.97,-0.05825,0.0355,0.993,-0.38,0.0,0.08,22450.0,17760.0,-34350.0
32.7588757,35.0228402,478.97,-0.052,0.02525,1.01025,0.0,-0.6,0.0,22430.0,17720.0,-34360.0
32.7588757,35.0228402,478.97,-0.05125,0.0475,0.99875,0.3,0.2,0.02,22460.0,17650.0,-34360.0
32.7588757,35.0228402,478.97,-0.051,0.04675,0.98225,-0.08,0.34,0.04,22420.0,17650.0,-34370.0
32.7588757,35.0228402,478.97,-0.04325,0.02525,0.99725,-0.18,-0.46,0.0,22410.0,17690.0,-34370.0
32.7588757,35.0228402,478.97,-0.04125,0.0385,1.01,0.24,-0.38,0.06,22390.0,17790.0,-34370.0
32.7588757,35.0228402,478.97,-0.0555,0.05925,0.9915,0.2,0.72,0.0,22420.0,17790.0,-34360.0
32.7588757,35.0228402,478.97,-0.06175,0.03625,0.98425,-0.36,0.36,0.04,22400.0,17750.0,-34370.0
32.7588757,35.0228402,478.97,-0.05425,0.01925,1.008,0.0,-0.68,-0.02,22270.0,17760.0,-34380.0
32.7588757,35.0228402,478.96,-0.04825,0.0515,1.00975,0.48,-0.14,0.04,22310.0,17790.0,-34380.0
32.7588757,35.0228402,478.96,-0.0485,0.06675,0.98575,0.16,0.52,0.02,22430.0,17820.0,-34350.0
32.7588757,35.0228402,478.96,-0.04575,0.03475,0.987,-0.5,-0.2,0.06,22460.0,17780.0,-34360.0
32.7588757,35.0228402,478.96,-0.0425,0.02425,1.00775,-0.02,-0.52,-0.02,22550.0,17810.0,-34340.0
32.7588757,35.0228402,478.96,-0.053,0.05525,0.9985,0.38,0.4,-0.06,22580.0,17860.0,-34330.0
32.7588757,35.0228402,478.96,-0.05975,0.056,0.985,-0.14,0.52,0.02,22570.0,17870.0,-34330.0
32.7588757,35.0228402,478.96,-0.05625,0.03125,1.0015,-0.34,-0.46,0.0,22600.0,17670.0,-34350.0
32.7588757,35.0228402,478.96,-0.04925,0.03725,1.00925,0.06,-0.32,0.04,22600.0,17470.0,-34360.0
32.7588757,35.0228402,478.96,-0.05125,0.052,0.989,0.1,0.46,0.0,22520.0,17370.0,-34390.0
32.7588757,35.0228402,478.96,-0.046,0.034,0.9865,-0.28,-0.12,-0.06,22470.0,17290.0,-34400.0
32.7588757,35.0228402,478.96,-0.03825,0.02725,1.0065,0.0,-0.7,-0.04,22550.0,17230.0,-34390.0
32.7588757,35.0228402,478.96,-0.04525,0.052,1.002,0.22,0.24,0.0,22580.0,17260.0,-34380.0
32.7588757,35.0228402,478.96,-0.05775,0.04775,0.98275,-0.22,0.72,0.06,22540.0,17240.0,-34390.0
32.7588757,35.0228402,478.96,-0.05825,0.01575,0.9945,-0.4,-0.16,0.02,22470.0,17390.0,-34390.0
32.7588757,35.0228402,478.96,-0.0505,0.025,1.01275,0.26,-0.62,-0.02,22420.0,17510.0,-34380.0
32.7588757,35.0228402,478.96,-0.04975,0.06,1.00025,0.36,0.36,-0.02,22420.0,17520.0,-34380.0
32.7588757,35.0228402,478.96,-0.0475,0.0475,0.984,-0.26,0.26,-0.02,22410.0,17560.0,-34380.0
32.7588757,35.0228402,478.96,-0.04225,0.0175,0.9985,-0.38,-0.5,0.06,22450.0,17670.0,-34360.0
32.7588757,35.0228402,478.96,-0.04325,0.03275,1.004,0.36,-0.06,0.06,22480.0,17720.0,-34350.0
32.7588757,35.0228402,478.96,-0.0545,0.0525,0.99125,0.14,0.7,0.06,22450.0,17680.0,-34360.0
32.7588757,35.0228402,478.95,-0.05725,0.0355,0.993,-0.34,0.02,0.04,22470.0,17660.0,-34360.0
32.7588757,35.0228402,478.95,-0.053,0.02725,1.00975,-0.04,-0.54,0.02,22580.0,17720.0,-34340.0
32.7588757,35.0228402,478.95,-0.05375,0.04575,1.0015,0.22,0.14,0.02,22510.0,17670.0,-34350.0
32.7588757,35.0228402,478.95,-0.0525,0.04125,0.984,-0.16,0.42,0.0,22480.0,17680.0,-34350.0
32.7588757,35.0228402,478.95,-0.04375,0.02125,0.99575,-0.26,-0.52,0.02,22400.0,17640.0,-34370.0
32.7588757,35.0228402,478.95,-0.04075,0.03825,1.00625,0.32,-0.28,0.0,22410.0,17570.0,-34370.0
32.7588757,35.0228402,478.95,-0.05225,0.05575,0.99175,0.14,0.68,0.1,22420.0,17510.0,-34370.0
32.7588757,35.0228402,478.95,-0.05875,0.02975,0.987,-0.4,0.32,0.04,22390.0,17550.0,-34380.0
32.7588757,35.0228402,478.95,-0.0545,0.01575,1.00575,-0.02,-0.64,-0.02,22390.0,17550.0,-34380.0
32.7588757,35.0228402,478.95,-0.05125,0.0485,1.00725,0.54,-0.02,0.04,22390.0,17570.0,-34370.0
32.7588757,35.0228402,478.95,-0.0515,0.06225,0.98675,0.08,0.48,0.04,22380.0,17630.0,-34370.0
32.7588757,35.0228402,478.95,-0.04675,0.03075,0.9885,-0.5,-0.24,0.02,22440.0,17670.0,-34360.0
32.7588757,35.0228402,478.95,-0.0425,0.026,1.004,0.1,-0.48,0.0,22410.0,17630.0,-34370.0
32.7588757,35.0228402,478.95,-0.0505,0.053,0.99775,0.32,0.44,0.06,22380.0,17630.0,-34370.0
32.7588757,35.0228402,478.95,-0.05525,0.04875,0.989,-0.18,0.38,0.0,22440.0,17570.0,-34370.0
32.7588757,35.0228402,478.95,-0.05275,0.02925,1.003,-0.24,-0.48,-0.02,22460.0,17510.0,-34360.0
32.7588757,35.0228402,478.95,-0.05075,0.04175,1.00575,0.28,-0.2,-0.04,22450.0,17620.0,-34360.0
32.7588757,35.0228402,478.95,-0.0525,0.0515,0.98775,0.04,0.46,0.02,22340.0,17670.0,-34370.0
32.7588757,35.0228402,478.95,-0.047,0.03,0.989,-0.38,-0.18,-0.04,22300.0,17660.0,-34380.0
32.7588757,35.0228402,478.95,-0.03975,0.03125,1.00625,0.04,-0.58,0.0,22250.0,17640.0,-34390.0
32.7588757,35.0228402,478.96,-0.047,0.058,1.00025,0.26,0.36,0.02,22320.0,17680.0,-34380.0
32.7588757,35.0228402,478.96,-0.05675,0.046,0.98575,-0.34,0.66,0.06,22420.0,17720.0,-34360.0
32.7588757,35.0228402,478.96,-0.05675,0.017,0.9975,-0.28,-0.3,0.0,22350.0,17660.0,-34370.0
32.7588757,35.0228402,478.96,-0.05025,0.0365,1.00975,0.38,-0.4,0.0,22320.0,17670.0,-34370.0
32.7588757,35.0228402,478.96,-0.04925,0.0655,0.99675,0.28,0.4,0.0,22410.0,17720.0,-34350.0
32.7588757,35.0228402,478.96,-0.0465,0.0455,0.986,-0.48,0.12,-0.02,22530.0,17730.0,-34340.0
32.7588757,35.0228402,478.96,-0.04275,0.0225,0.99975,-0.16,-0.52,0.02,22530.0,17740.0,-34330.0
32.7588757,35.0228402,478.96,-0.049,0.0435,1.00125,0.38,0.18,0.04,22570.0,17710.0,-34330.0
32.7588757,35.0228402,478.96,-0.057,0.0535,0.9905,-0.02,0.68,0.02,22510.0,17630.0,-34350.0
32.7588757,35.0228402,478.96,-0.05725,0.034,0.9955,-0.34,-0.18,-0.04,22440.0,17570.0,-34360.0
32.7588757,35.0228402,478.96,-0.0515,0.036,1.00775,-0.04,-0.44,0.04,22480.0,17580.0,-34350.0
32.7588757,35.0228402,478.96,-0.05225,0.0505,0.996,0.06,0.32,0.02,22480.0,17590.0,-34360.0
32.7588757,35.0228402,478.96,-0.04875,0.0345,0.98425,-0.28,0.18,-0.02,22420.0,17590.0,-34370.0
32.7588757,35.0228402,478.96,-0.0405,0.0215,0.99925,-0.08,-0.68,-0.02,22390.0,17590.0,-34370.0
32.7588757,35.0228402,478.96,-0.0435,0.04675,1.004,0.34,-0.04,0.04,22380.0,17590.0,-34370.0
32.7588757,35.0228402,478.96,-0.05525,0.05375,0.989,-0.1,0.72,0.04,22330.0,17640.0,-34370.0
32.7588757,35.0228402,478.96,-0.06,0.021,0.98925,-0.46,0.0,0.0,22400.0,17670.0,-34360.0
32.7588757,35.0228402,478.96,-0.05425,0.01925,1.00725,0.18,-0.54,-0.02,22460.0,17670.0,-34360.0
32.7588757,35.0228402,478.96,-0.05175,0.0535,1.00275,0.44,0.14,-0.04,22450.0,17650.0,-34360.0
32.7588757,35.0228402,478.96,-0.0485,0.05125,0.98725,-0.18,0.28,-0.02,22430.0,17590.0,-34370.0
32.7588757,35.0228402,478.96,-0.043,0.0215,0.99475,-0.38,-0.42,0.04,22460.0,17640.0,-34360.0
32.7588757,35.0228402,478.96,-0.0435,0.0315,1.00225,0.26,-0.18,0.0,22530.0,17790.0,-34340.0
32.7588757,35.0228402,478.96,-0.053,0.05075,0.9935,0.26,0.56,0.0,22590.0,17830.0,-34320.0
32.7588757,35.0228402,478.96,-0.05625,0.03625,0.9935,-0.26,0.14,0.0,22550.0,17800.0,-34330.0
32.7588757,35.0228402,478.96,-0.05325,0.02875,1.007,0.0,-0.5,-0.06,22450.0,17760.0,-34350.0
32.7588757,35.0228402,478.96,-0.05225,0.048,1.002,0.34,0.08,0.0,22430.0,17720.0,-34360.0
32.7588757,35.0228402,478.96,-0.052,0.04425,0.9875,-0.12,0.44,0.06,22460.0,17670.0,-34360.0
32.7588757,35.0228402,478.96,-0.0425,0.022,0.99575,-0.16,-0.46,0.02,22430.0,17710.0,-34360.0
32.7588757,35.0228402,478.96,-0.0385,0.0385,1.00575,0.3,-0.42,-0.08,22370.0,17690.0,-34370.0
32.7588757,35.0228402,478.96,-0.0485,0.05925,0.99475,0.14,0.6,0.02,22390.0,17660.0,-34370.0
32.7588757,35.0228402,478.96,-0.0565,0.0345,0.9885,-0.42,0.34,-0.02,22410.0,17710.0,-34370.0
32.7588757,35.0228402,478.96,-0.05525,0.01775,1.0045,0.02,-0.48,0.06,22480.0,17830.0,-34340.0
32.7588757,35.0228402,478.96,-0.05225,0.0475,1.00725,0.48,-0.12,0.02,22480.0,17810.0,-34350.0
32.7588757,35.0228402,478.96,-0.0505,0.06175,0.991,0.1,0.36,0.0,22450.0,17760.0,-34360.0
32.7588757,35.0228402,478.96,-0.04475,0.03325,0.98925,-0.42,-0.24,0.0,22360.0,17720.0,-34370.0
32.7588757,35.0228402,478.96,-0.04175,0.029,1.0015,0.04,-0.4,0.0,22370.0,17700.0,-34370.0
32.7588757,35.0228402,478.96,-0.051,0.052,0.99625,0.28,0.5,0.04,22420.0,17680.0,-34370.0
32.7588757,35.0228402,478.96,-0.05625,0.04675,0.9895,-0.2,0.4,0.04,22450.0,17750.0,-34360.0
32.7588757,35.0228402,478.96,-0.05475,0.0295,1.0025,-0.22,-0.44,-0.02,22490.0,17770.0,-34350.0
32.7588757,35.0228402,478.96,-0.05225,0.04375,1.00525,0.28,-0.12,0.0,22470.0,17750.0,-34350.0
32.7588757,35.0228403,478.96,-0.0535,0.0525,0.98825,-0.02,0.46,0.0,22460.0,17760.0,-34350.0
32.7588757,35.0228403,478.96,-0.047,0.0275,0.98775,-0.32,-0.18,-0.02,22610.0,17840.0,-34330.0
32.7588757,35.0228403,478.96,-0.04,0.02875,1.004,0.14,-0.62,-0.04,22690.0,17890.0,-34310.0
32.7588757,35.0228403,478.96,-0.04725,0.05575,1.0005,0.34,0.36,0.0,22690.0,17940.0,-34300.0
32.7588757,35.0228403,478.96,-0.0575,0.04475,0.987,-0.26,0.62,0.06,22690.0,17960.0,-34300.0
32.7588757,35.0228403,478.96,-0.05775,0.016,0.99825,-0.34,-0.34,0.02,22650.0,17980.0,-34310.0
32.7588757,35.0228403,478.96,-0.05275,0.03325,1.00975,0.38,-0.4,-0.02,22640.0,18000.0,-34310.0
32.7588757,35.0228403,478.96,-0.05125,0.06,0.996,0.24,0.36,0.02,22740.0,17990.0,-34290.0
32.7588757,35.0228403,478.96,-0.04675,0.0395,0.98825,-0.46,0.06,0.0,22750.0,17980.0,-34290.0
32.7588757,35.0228403,478.96,-0.043,0.022,1.00025,-0.12,-0.52,0.02,22650.0,17980.0,-34310.0
32.7588757,35.0228403,478.96,-0.04875,0.044,1.00075,0.36,0.16,0.04,22660.0,17960.0,-34310.0
32.7588757,35.0228403,478.96,-0.05675,0.04975,0.99075,-0.08,0.62,-0.02,22740.0,17910.0,-34300.0
32.7588757,35.0228403,478.96,-0.0565,0.02825,0.998,-0.36,-0.22,-0.04,22750.0,17910.0,-34300.0
32.7588757,35.0228403,478.96,-0.05175,0.0345,1.007,0.2,-0.4,0.0,22660.0,17860.0,-34310.0
32.7588757,35.0228403,478.96,-0.0515,0.05225,0.99325,0.14,0.28,0.02,22560.0,17780.0,-34340.0
32.7588757,35.0228403,478.96,-0.048,0.03425,0.98525,-0.28,0.1,-0.02,22570.0,17820.0,-34330.0
32.7588757,35.0228403,478.96,-0.03975,0.021,1.0,-0.08,-0.62,0.0,22610.0,17860.0,-34330.0
32.7588757,35.0228403,478.96,-0.04275,0.046,1.00125,0.34,-0.02,-0.02,22640.0,17870.0,-34320.0
32.7588757,35.0228403,478.96,-0.05425,0.0525,0.9875,-0.04,0.68,0.0,22630.0,17870.0,-34320.0
32.7588757,35.0228403,478.96,-0.057,0.02275,0.992,-0.38,-0.02,-0.02,22610.0,17820.0,-34320.0
32.7588758,35.0228403,478.87,-0.05125,0.024,1.00725,0.26,-0.54,-0.04,22600.0,17730.0,-34330.0
32.7588758,35.0228403,478.87,-0.05,0.05625,0.99975,0.36,0.16,0.04,22650.0,17740.0,-34320.0
32.7588758,35.0228403,478.87,-0.0465,0.05,0.98675,-0.18,0.3,0.0,22490.0,17720.0,-34350.0
32.7588758,35.0228403,478.87,-0.04075,0.02275,0.9975,-0.22,-0.5,-0.04,22470.0,17700.0,-34360.0
32.7588758,35.0228403,478.87,-0.04225,0.03775,1.003,0.3,-0.06,0.0,22500.0,17640.0,-34360.0
32.7588758,35.0228403,478.87,-0.053,0.057,0.99125,0.22,0.68,0.02,22460.0,17620.0,-34360.0
32.7588758,35.0228403,478.87,-0.057,0.03825,0.994,-0.36,0.16,0.04,22430.0,17640.0,-34370.0
32.7588758,35.0228403,478.87,-0.053,0.02825,1.009,-0.02,-0.44,-0.02,22460.0,17670.0,-34350.0
32.7588758,35.0228403,478.87,-0.053,0.04925,1.00175,0.28,0.16,0.04,22370.0,17670.0,-34370.0
32.7588758,35.0228403,478.87,-0.0525,0.05075,0.98575,-0.16,0.36,-0.06,22360.0,17640.0,-34370.0
32.7588758,35.0228403,478.87,-0.04575,0.02475,0.99725,-0.28,-0.38,-0.04,22420.0,17670.0,-34360.0
32.7588758,35.0228403,478.87,-0.04225,0.037,1.00175,0.18,-0.34,0.04,22420.0,17770.0,-34350.0
32.7588758,35.0228403,478.87,-0.0535,0.0565,0.99525,0.22,0.66,0.04,22380.0,17650.0,-34370.0
32.7588758,35.0228403,478.87,-0.06175,0.03375,0.98375,-0.38,0.32,-0.02,22450.0,17470.0,-34380.0
32.7588758,35.0228403,478.87,-0.057,0.02,1.008,-0.06,-0.54,0.02,22480.0,17310.0,-34390.0
32.7588758,35.0228403,478.87,-0.0525,0.0475,1.0055,0.44,-0.16,0.04,22520.0,17200.0,-34390.0
32.7588758,35.0228403,478.87,-0.0495,0.062,0.991,0.02,0.44,0.0,22560.0,17200.0,-34390.0
32.7588758,35.0228403,478.87,-0.04575,0.029,0.987,-0.4,-0.24,0.02,22530.0,17250.0,-34390.0
32.7588758,35.0228403,478.87,-0.04225,0.02475,1.0045,0.14,-0.48,0.04,22440.0,17260.0,-34400.0
32.7588758,35.0228403,478.87,-0.052,0.052,0.9945,0.34,0.48,0.1,22490.0,17340.0,-34390.0
32.7588758,35.0228403,478.86,-0.0575,0.04875,0.99275,-0.22,0.46,0.08,22460.0,17510.0,-34380.0
32.7588758,35.0228403,478.86,-0.0565,0.03025,1.0005,-0.2,-0.38,0.0,22460.0,17730.0,-34360.0
32.7588758,35.0228403,478.86,-0.049,0.03725,1.00825,0.08,-0.24,0.02,22400.0,17700.0,-34370.0
32.7588758,35.0228403,478.86,-0.05075,0.052,0.987,0.12,0.46,0.0,22410.0,17670.0,-34370.0
32.7588758,35.0228403,478.86,-0.04275,0.03,0.98725,-0.38,-0.14,0.06,22410.0,17610.0,-34370.0
32.7588758,35.0228403,478.86,-0.036,0.029,1.004,0.1,-0.6,0.02,22420.0,17550.0,-34370.0
32.7588758,35.0228403,478.86,-0.04325,0.0535,0.99975,0.24,0.34,0.0,22440.0,17550.0,-34370.0
32.7588758,35.0228403,478.86,-0.0555,0.04475,0.9845,-0.28,0.72,0.02,22460.0,17570.0,-34360.0
32.7588758,35.0228403,478.86,-0.056,0.014,0.99675,-0.36,-0.24,0.0,22510.0,17560.0,-34350.0
32.7588758,35.0228403,478.86,-0.04875,0.02875,1.01075,0.28,-0.5,-0.04,22470.0,17550.0,-34360.0
32.7588758,35.0228403,478.86,-0.048,0.06075,0.99725,0.4,0.44,0.0,22460.0,17590.0,-34360.0
32.7588758,35.0228403,478.86,-0.04475,0.042,0.98625,-0.38,0.16,-0.02,22480.0,17610.0,-34360.0
32.7588758,35.0228403,478.86,-0.04125,0.0165,1.0015,-0.26,-0.5,-0.04,22510.0,17600.0,-34360.0
32.7588758,35.0228403,478.86,-0.0455,0.037,1.004,0.34,0.16,0.0,22500.0,17600.0,-34360.0
32.7588758,35.0228403,478.86,-0.05725,0.0535,0.99175,0.1,0.74,0.04,22530.0,17580.0,-34360.0
32.7588758,35.0228403,478.86,-0.059,0.034,0.9985,-0.26,-0.06,0.02,22480.0,17560.0,-34360.0
32.7588758,35.0228403,478.86,-0.0555,0.03075,1.011,0.14,-0.48,0.04,22500.0,17640.0,-34350.0
32.7588758,35.0228403,478.86,-0.05625,0.05075,0.99725,0.3,0.34,0.0,22550.0,17710.0,-34340.0
32.7588758,35.0228403,478.86,-0.054,0.0425,0.9835,-0.18,0.22,-0.02,22630.0,17750.0,-34320.0
32.7588758,35.0228403,478.86,-0.045,0.02525,1.001,-0.18,-0.54,-0.04,22630.0,17750.0,-34330.0
32.7588758,35.0228403,478.86,-0.0455,0.046,1.00525,0.28,-0.16,0.08,22650.0,17790.0,-34320.0
32.7588758,35.0228403,478.86,-0.05925,0.059,0.9875,-0.04,0.8,0.04,22700.0,17820.0,-34310.0
32.7588758,35.0228403,478.86,-0.064,0.03,0.98675,-0.38,0.22,0.02,22600.0,17730.0,-34330.0
32.7588758,35.0228403,478.86,-0.05575,0.02125,1.0075,0.08,-0.74,0.04,22510.0,17670.0,-34350.0
32.7588758,35.0228403,478.86,-0.05025,0.05525,1.00475,0.48,-0.06,0.0,22490.0,17630.0,-34360.0
32.7588758,35.0228403,478.86,-0.04925,0.0605,0.98375,-0.08,0.34,-0.02,22450.0,17630.0,-34360.0
32.7588758,35.0228403,478.86,-0.04375,0.02675,0.9905,-0.54,-0.38,-0.04,22440.0,17620.0,-34370.0
32.7588758,35.0228403,478.86,-0.04125,0.02625,1.0045,0.08,-0.48,-0.04,22460.0,17610.0,-34370.0
32.7588758,35.0228403,478.86,-0.05075,0.0545,0.994,0.32,0.54,0.02,22450.0,17640.0,-34370.0
32.7588758,35.0228403,478.86,-0.0555,0.04675,0.98775,-0.24,0.32,0.0,22340.0,17710.0,-34380.0
32.7588758,35.0228403,478.86,-0.05075,0.02725,1.00525,-0.24,-0.54,0.0,22400.0,17730.0,-34370.0
32.7588758,35.0228403,478.86,-0.04675,0.04025,1.0055,0.16,-0.18,0.02,22400.0,17750.0,-34370.0
32.7588758,35.0228403,478.86,-0.048,0.0485,0.9865,0.0,0.48,0.0,22420.0,17750.0,-34370.0
32.7588758,35.0228403,478.86,-0.0405,0.0275,0.99075,-0.26,-0.16,-0.08,22410.0,17730.0,-34370.0
32.7588758,35.0228403,478.86,-0.03375,0.02975,1.0075,0.12,-0.6,0.0,22390.0,17720.0,-34380.0
32.7588758,35.0228403,478.86,-0.04375,0.05575,0.9975,0.28,0.52,0.04,22380.0,17750.0,-34370.0
32.7588758,35.0228403,478.86,-0.05625,0.04275,0.98325,-0.34,0.74,-0.04,22480.0,17780.0,-34350.0
32.7588758,35.0228403,478.86,-0.05575,0.01325,1.0,-0.3,-0.36,-0.04,22550.0,17790.0,-34340.0
32.7588758,35.0228403,478.86,-0.0495,0.03325,1.0135,0.42,-0.44,0.0,22460.0,17800.0,-34360.0
32.7588758,35.0228403,478.86,-0.05075,0.065,0.9955,0.32,0.48,0.04,22360.0,17810.0,-34370.0
32.7588758,35.0228403,478.86,-0.04825,0.04325,0.9855,-0.38,0.1,0.0,22410.0,17810.0,-34360.0
32.7588758,35.0228403,478.86,-0.04275,0.01725,1.00175,-0.24,-0.56,-0.04,22510.0,17920.0,-34340.0
32.7588758,35.0228403,478.86,-0.04725,0.04,1.002,0.38,0.2,-0.02,22590.0,17940.0,-34320.0
32.7588758,35.0228403,478.86,-0.05825,0.05475,0.98875,-0.02,0.68,0.06,22610.0,17890.0,-34320.0
32.7588758,35.0228403,478.86,-0.06025,0.034,0.99725,-0.34,-0.12,-0.04,22490.0,17860.0,-34350.0
32.7588758,35.0228403,478.86,-0.056,0.03075,1.01175,0.04,-0.52,0.0,22440.0,17810.0,-34360.0
32.7588758,35.0228403,478.86,-0.05875,0.05,0.9945,0.22,0.28,0.04,22450.0,17760.0,-34360.0
32.7588758,35.0228403,478.86,-0.05575,0.03975,0.9815,-0.14,0.22,0.06,22430.0,17780.0,-34360.0
32.7588758,35.0228403,478.86,-0.04425,0.02125,1.00125,-0.18,-0.7,-0.02,22330.0,17770.0,-34380.0
32.7588758,35.0228403,478.86,-0.043,0.04225,1.006,0.32,-0.18,0.0,22320.0,17770.0,-34380.0
32.7588758,35.0228403,478.86,-0.0555,0.05675,0.9865,0.04,0.7,0.12,22420.0,17770.0,-34360.0
32.7588758,35.0228403,478.86,-0.06025,0.02725,0.9875,-0.38,0.12,0.0,22470.0,17770.0,-34350.0
32.7588758,35.0228403,478.86,-0.05325,0.016,1.01,0.04,-0.7,-0.02,22440.0,17710.0,-34370.0
32.7588758,35.0228403,478.86,-0.05075,0.05225,1.0045,0.54,0.04,0.04,22440.0,17720.0,-34370.0
32.7588758,35.0228403,478.86,-0.05075,0.05975,0.9825,-0.04,0.4,0.02,22380.0,17700.0,-34380.0
32.7588758,35.0228403,478.86,-0.04475,0.02675,0.99175,-0.42,-0.36,0.0,22380.0,17650.0,-34370.0
32.7588758,35.0228403,478.86,-0.03875,0.02725,1.0065,0.18,-0.44,-0.02,22430.0,17670.0,-34370.0
32.7588758,35.0228403,478.86,-0.04775,0.055,0.995,0.36,0.5,0.04,22470.0,17800.0,-34350.0
32.7588758,35.0228403,478.86,-0.05375,0.048,0.988,-0.18,0.38,0.0,22550.0,17840.0,-34340.0
32.7588758,35.0228403,478.86,-0.04975,0.028,1.006,-0.2,-0.56,-0.02,22620.0,17800.0,-34330.0
32.7588759,35.0228403,478.86,-0.0475,0.043,1.00575,0.18,-0.16,0.02,22640.0,17830.0,-34320.0
32.7588759,35.0228403,478.86,-0.0505,0.054,0.98525,0.06,0.5,0.04,22710.0,17870.0,-34310.0
32.7588759,35.0228403,478.86,-0.04425,0.032,0.98975,-0.32,-0.18,-0.02,22690.0,17890.0,-34310.0
32.7588759,35.0228403,478.86,-0.0365,0.03,1.00825,0.04,-0.56,0.0,22600.0,17840.0,-34320.0
32.7588759,35.0228403,478.86,-0.04475,0.055,0.999,0.3,0.34,0.06,22530.0,17750.0,-34340.0
32.7588759,35.0228403,478.86,-0.05675,0.04575,0.98325,-0.22,0.74,0.06,22480.0,17720.0,-34360.0
32.7588759,35.0228403,478.86,-0.05575,0.01775,0.9995,-0.3,-0.36,0.0,22410.0,17730.0,-34370.0
32.7588759,35.0228403,478.86,-0.04825,0.0335,1.01325,0.3,-0.46,-0.04,22420.0,17720.0,-34370.0
32.7588759,35.0228403,478.86,-0.04975,0.06375,0.99475,0.28,0.42,-0.02,22410.0,17670.0,-34370.0
32.7588759,35.0228403,478.86,-0.04875,0.04525,0.983,-0.36,0.24,0.02,22380.0,17680.0,-34370.0
32.7588759,35.0228403,478.86,-0.044,0.019,1.002,-0.28,-0.54,-0.04,22430.0,17700.0,-34360.0
32.7588759,35.0228403,478.86,-0.04825,0.0395,1.00525,0.26,0.16,0.04,22470.0,17680.0,-34350.0
32.7588759,35.0228403,478.86,-0.06,0.0565,0.989,0.12,0.8,0.06,22420.0,17650.0,-34360.0
32.7588759,35.0228403,478.86,-0.06025,0.035,0.995,-0.36,-0.06,-0.08,22440.0,17580.0,-34360.0
32.7588759,35.0228403,478.86,-0.05325,0.02875,1.0115,-0.04,-0.52,0.0,22440.0,17590.0,-34360.0
32.7588759,35.0228403,478.86,-0.05325,0.0495,0.99775,0.3,0.28,0.06,22400.0,17600.0,-34370.0
32.7588759,35.0228403,478.86,-0.05175,0.04175,0.98275,-0.18,0.34,-0.02,22360.0,17690.0,-34370.0
32.7588759,35.0228403,478.86,-0.0445,0.02125,0.99975,-0.22,-0.58,0.02,22410.0,17700.0,-34360.0
32.7588759,35.0228403,478.86,-0.0445,0.0395,1.009,0.28,-0.22,0.12,22430.0,17670.0,-34360.0
32.7588759,35.0228403,478.86,-0.05775,0.05725,0.98875,0.12,0.74,0.04,22400.0,17680.0,-34370.0
32.7588758,35.0228403,478.86,-0.06225,0.0285,0.98625,-0.44,0.2,-0.04,22410.0,17690.0,-34360.0
32.7588758,35.0228403,478.86,-0.05375,0.01575,1.00925,0.04,-0.72,0.06,22440.0,17780.0,-34350.0
32.7588758,35.0228403,478.86,-0.049,0.04975,1.0055,0.48,-0.12,0.0,22380.0,17710.0,-34360.0
32.7588758,35.0228403,478.86,-0.04875,0.05975,0.9835,0.02,0.46,-0.02,22440.0,17630.0,-34360.0
32.7588758,35.0228403,478.86,-0.044,0.026,0.9905,-0.46,-0.32,0.06,22480.0,17560.0,-34360.0
32.7588758,35.0228403,478.86,-0.04075,0.023,1.006,0.06,-0.46,-0.02,22410.0,17580.0,-34370.0
32.7588758,35.0228403,478.86,-0.05075,0.0525,0.994,0.38,0.52,0.04,22390.0,17600.0,-34370.0
32.7588758,35.0228403,478.86,-0.0565,0.0465,0.98575,-0.2,0.42,0.0,22420.0,17650.0,-34360.0
32.7588758,35.0228403,478.86,-0.05275,0.0255,1.00375,-0.24,-0.52,-0.06,22410.0,17690.0,-34360.0
32.7588758,35.0228403,478.86,-0.04875,0.03825,1.007,0.28,-0.16,-0.04,22410.0,17650.0,-34370.0
32.7588758,35.0228403,478.86,-0.051,0.0505,0.98625,0.14,0.46,0.02,22440.0,17680.0,-34360.0
32.7588758,35.0228403,478.86,-0.044,0.02925,0.988,-0.32,-0.2,-0.04,22420.0,17730.0,-34360.0
32.7588758,35.0228403,478.86,-0.03525,0.02625,1.00725,0.12,-0.64,0.0,22440.0,17640.0,-34360.0
32.7588758,35.0228403,478.86,-0.04325,0.053,0.998,0.28,0.34,0.06,22430.0,17590.0,-34370.0
32.7588758,35.0228403,478.86,-0.05625,0.045,0.98325,-0.26,0.72,0.08,22410.0,17600.0,-34370.0
32.7588758,35.0228403,478.86,-0.0565,0.015,0.99825,-0.3,-0.32,-0.08,22350.0,17610.0,-34380.0
32.7588758,35.0228403,478.86,-0.05025,0.0305,1.01275,0.36,-0.5,0.02,22380.0,17640.0,-34380.0
32.7588758,35.0228403,478.86,-0.05175,0.06275,0.99525,0.36,0.4,0.06,22430.0,17720.0,-34360.0
32.7588758,35.0228403,478.86,-0.0485,0.0465,0.98325,-0.34,0.18,-0.02,22540.0,17740.0,-34340.0
32.7588758,35.0228403,478.86,-0.042,0.01925,1.00175,-0.24,-0.58,-0.06,22590.0,17730.0,-34340.0
32.7588758,35.0228403,478.86,-0.0455,0.03975,1.00475,0.42,0.12,0.02,22600.0,17630.0,-34350.0
32.7588758,35.0228403,478.86,-0.05725,0.056,0.98875,0.18,0.76,0.06,22650.0,17560.0,-34350.0
32.7588758,35.0228403,478.86,-0.05875,0.03575,0.9965,-0.32,-0.06,-0.04,22730.0,17450.0,-34350.0
32.7588758,35.0228403,478.86,-0.0525,0.03175,1.01225,-0.02,-0.58,-0.04,22730.0,17390.0,-34360.0
32.7588758,35.0228403,478.86,-0.0525,0.0515,0.997,0.24,0.3,0.02,22570.0,17340.0,-34390.0
32.7588758,35.0228403,478.86,-0.05075,0.045,0.984,-0.22,0.3,-0.04,22490.0,17240.0,-34400.0
32.7588758,35.0228403,478.86,-0.04425,0.02825,1.0005,-0.24,-0.5,-0.06,22460.0,17260.0,-34400.0
32.7588758,35.0228403,478.86,-0.04475,0.04375,1.01,0.22,-0.26,0.02,22410.0,17440.0,-34400.0
32.7588758,35.0228403,478.86,-0.0585,0.05925,0.9865,0.08,0.7,0.06,22430.0,17550.0,-34380.0
32.7588758,35.0228403,478.86,-0.06025,0.03125,0.989,-0.42,0.2,0.02,22420.0,17620.0,-34380.0
32.7588758,35.0228403,478.86,-0.0525,0.0185,1.00575,0.0,-0.7,0.02,22410.0,17700.0,-34370.0
32.7588758,35.0228403,478.86,-0.048,0.055,1.0075,0.44,-0.1,0.0,22470.0,17700.0,-34360.0
32.7588758,35.0228403,478.86,-0.04925,0.06025,0.9835,-0.04,0.44,0.04,22510.0,17700.0,-34360.0
32.7588758,35.0228403,478.86,-0.044,0.0295,0.99075,-0.4,-0.34,-0.04,22480.0,17790.0,-34360.0
32.7588758,35.0228403,478.86,-0.043,0.02525,1.0025,0.0,-0.44,0.02,22440.0,17800.0,-34370.0
32.7588758,35.0228403,478.86,-0.05275,0.05425,0.998,0.32,0.5,-0.04,22480.0,17750.0,-34360.0
32.7588758,35.0228403,478.86,-0.0575,0.0465,0.98525,-0.22,0.38,0.0,22530.0,17780.0,-34350.0
32.7588758,35.0228403,478.86,-0.052,0.02625,1.00425,-0.26,-0.54,0.0,22560.0,17760.0,-34350.0
32.7588758,35.0228403,478.86,-0.04925,0.0405,1.006,0.2,-0.2,0.0,22500.0,17750.0,-34360.0
32.7588758,35.0228403,478.86,-0.04975,0.049,0.99,-0.04,0.48,0.02,22420.0,17740.0,-34370.0
32.7588758,35.0228403,478.86,-0.044,0.02825,0.988,-0.34,-0.08,0.02,22410.0,17790.0,-34370.0
32.7588759,35.0228403,478.86,-0.0375,0.026,1.007,-0.04,-0.7,-0.02,22520.0,17850.0,-34340.0
32.7588759,35.0228403,478.86,-0.04625,0.054,1.00025,0.4,0.4,0.06,22480.0,17820.0,-34350.0
32.7588759,35.0228403,478.86,-0.05725,0.0425,0.984,-0.26,0.7,0.08,22390.0,17840.0,-34360.0
32.7588759,35.0228403,478.86,-0.058,0.0145,0.99875,-0.3,-0.3,0.02,22400.0,17780.0,-34370.0
32.7588759,35.0228403,478.86,-0.0525,0.0315,1.0115,0.38,-0.44,0.0,22430.0,17740.0,-34370.0
32.7588759,35.0228403,478.86,-0.05225,0.06125,0.99575,0.28,0.48,0.02,22440.0,17670.0,-34370.0
32.7588759,35.0228403,478.86,-0.048,0.041,0.986,-0.38,0.08,0.08,22430.0,17620.0,-34370.0
32.7588759,35.0228403,478.86,-0.04125,0.018,1.0,-0.22,-0.58,0.02,22440.0,17650.0,-34370.0
32.7588759,35.0228403,478.86,-0.04625,0.0415,1.00175,0.4,0.16,-0.04,22390.0,17660.0,-34380.0
32.7588759,35.0228403,478.86,-0.05575,0.0535,0.99025,0.06,0.7,0.0,22450.0,17690.0,-34370.0
32.7588759,35.0228403,478.86,-0.058,0.03125,0.99675,-0.34,-0.16,-0.02,22440.0,17690.0,-34370.0
32.7588759,35.0228403,478.86,-0.05425,0.03175,1.00925,0.08,-0.44,0.0,22360.0,17680.0,-34380.0
32.7588759,35.0228403,478.86,-0.05575,0.05075,0.9955,0.22,0.36,-0.04,22370.0,17660.0,-34380.0
32.7588759,35.0228403,478.86,-0.05175,0.03875,0.98475,-0.16,0.18,-0.04,22430.0,17610.0,-34380.0
32.7588759,35.0228403,478.86,-0.04125,0.0235,0.999,-0.14,-0.66,-0.02,22420.0,17600.0,-34380.0
32.7588759,35.0228403,478.86,-0.04125,0.04625,1.004,0.3,-0.16,0.04,22460.0,17560.0,-34370.0
32.7588759,35.0228403,478.86,-0.054,0.05525,0.987,0.0,0.74,-0.04,22480.0,17630.0,-34360.0
32.7588759,35.0228403,478.86,-0.0585,0.02525,0.98925,-0.4,0.06,-0.02,22440.0,17650.0,-34360.0
32.7588759,35.0228403,478.86,-0.05325,0.0215,1.00775,0.12,-0.66,-0.02,22510.0,17710.0,-34350.0
32.7588759,35.0228403,478.86,-0.0515,0.0555,1.0035,0.44,0.12,-0.02,22600.0,17800.0,-34330.0
32.7588758,35.0228403,478.86,-0.05,0.0565,0.98475,-0.1,0.42,0.0,22630.0,17910.0,-34320.0
32.7588758,35.0228403,478.86,-0.0435,0.025,0.99125,-0.34,-0.48,-0.02,22690.0,17850.0,-34310.0
32.7588758,35.0228403,478.86,-0.04025,0.032,1.003,0.26,-0.26,0.06,22690.0,17830.0,-34310.0
32.7588758,35.0228403,478.86,-0.04925,0.055,0.99525,0.24,0.62,0.06,22610.0,17840.0,-34320.0
32.7588758,35.0228403,478.86,-0.05475,0.0455,0.9905,-0.24,0.24,0.02,22550.0,17810.0,-34330.0
32.7588758,35.0228403,478.86,-0.0535,0.029,1.00875,-0.14,-0.5,0.0,22490.0,17760.0,-34350.0
32.7588758,35.0228403,478.86,-0.05375,0.046,1.002,0.26,0.02,0.04,22440.0,17780.0,-34360.0
32.7588758,35.0228403,478.86,-0.05225,0.04975,0.98825,0.0,0.44,0.06,22370.0,17730.0,-34370.0
32.7588758,35.0228403,478.86,-0.04475,0.02675,0.99075,-0.28,-0.44,-0.1,22370.0,17680.0,-34370.0
32.7588758,35.0228403,478.86,-0.03725,0.0375,1.0085,0.14,-0.52,0.04,22420.0,17700.0,-34360.0
32.7588758,35.0228403,478.86,-0.05,0.0565,0.995,0.24,0.62,0.06,22400.0,17740.0,-34350.0
32.7588758,35.0228403,478.86,-0.05675,0.03875,0.9875,-0.34,0.48,0.04,22400.0,17650.0,-34360.0
32.7588758,35.0228403,478.86,-0.0565,0.0145,1.00175,-0.22,-0.44,0.04,22370.0,17600.0,-34370.0
32.7588758,35.0228403,478.86,-0.0515,0.0435,1.01025,0.4,-0.18,0.02,22360.0,17570.0,-34370.0
32.7588758,35.0228403,478.86,-0.05175,0.062,0.99025,0.16,0.4,-0.02,22400.0,17550.0,-34370.0
32.7588758,35.0228403,478.86,-0.04625,0.0325,0.9875,-0.5,-0.06,-0.04,22360.0,17540.0,-34380.0
32.7588758,35.0228403,478.86,-0.043,0.0205,1.00025,0.04,-0.5,-0.06,22340.0,17680.0,-34370.0
32.7588758,35.0228403,478.86,-0.04875,0.04575,1.0015,0.28,0.28,0.0,22370.0,17710.0,-34360.0
32.7588758,35.0228403,478.86,-0.057,0.05175,0.98875,0.02,0.58,-0.04,22410.0,17600.0,-34360.0
32.7588758,35.0228403,478.86,-0.0555,0.02825,1.0005,-0.4,-0.3,-0.02,22450.0,17620.0,-34360.0
32.7588758,35.0228403,478.86,-0.05225,0.03525,1.00725,0.22,-0.36,0.02,22580.0,17680.0,-34330.0
32.7588758,35.0228403,478.86,-0.053,0.049,0.99075,0.04,0.44,0.04,22480.0,17690.0,-34350.0
32.7588758,35.0228403,478.86,-0.048,0.03275,0.9865,-0.3,-0.04,0.04,22360.0,17710.0,-34360.0
32.7588758,35.0228403,478.86,-0.03925,0.02525,1.0035,0.0,-0.72,0.0,22320.0,17640.0,-34370.0
32.7588758,35.0228403,478.86,-0.0445,0.05225,1.00425,0.3,0.08,0.04,22340.0,17600.0,-34370.0
32.7588758,35.0228403,478.86,-0.0565,0.05,0.986,-0.1,0.8,0.0,22290.0,17610.0,-34380.0
32.7588758,35.0228403,478.86,-0.058,0.01825,0.993,-0.32,-0.14,0.04,22230.0,17650.0,-34390.0
32.7588758,35.0228403,478.86,-0.05175,0.026,1.0095,0.22,-0.64,-0.02,22270.0,17600.0,-34380.0
32.7588758,35.0228403,478.86,-0.05025,0.061,1.00075,0.38,0.3,-0.06,22310.0,17580.0,-34380.0
32.7588758,35.0228403,478.86,-0.04775,0.05,0.98475,-0.32,0.26,-0.02,22410.0,17590.0,-34370.0
32.7588758,35.0228403,478.86,-0.04225,0.0215,0.9975,-0.3,-0.52,0.04,22460.0,17600.0,-34360.0
32.7588758,35.0228403,478.86,-0.04475,0.037,1.00375,0.32,-0.02,0.02,22450.0,17590.0,-34360.0
32.7588758,35.0228403,478.86,-0.05475,0.0555,0.99125,0.18,0.7,0.02,22440.0,17550.0,-34360.0
32.7588758,35.0228403,478.86,-0.057,0.038,0.993,-0.28,0.0,0.0,22440.0,17540.0,-34370.0
32.7588758,35.0228403,478.86,-0.0525,0.03125,1.0085,-0.06,-0.46,0.04,22470.0,17540.0,-34360.0
32.7588758,35.0228403,478.86,-0.052,0.05025,1.00025,0.2,0.14,-0.02,22510.0,17590.0,-34350.0
32.7588758,35.0228403,478.86,-0.05075,0.044,0.98525,-0.16,0.32,0.1,22520.0,17590.0,-34350.0
32.7588758,35.0228403,478.86,-0.042,0.024,0.997,-0.26,-0.52,0.0,22480.0,17610.0,-34360.0
32.7588758,35.0228403,478.86,-0.041,0.04075,1.00625,0.26,-0.26,-0.04,22470.0,17600.0,-34360.0
32.7588759,35.0228403,478.86,-0.053,0.058,0.991,0.06,0.68,0.06,22570.0,17680.0,-34340.0
32.7588759,35.0228403,478.86,-0.0595,0.0305,0.987,-0.4,0.28,-0.02,22590.0,17790.0,-34330.0
32.7588759,35.0228403,478.86,-0.05425,0.01775,1.00625,-0.04,-0.64,-0.04,22540.0,17860.0,-34330.0
32.7588759,35.0228403,478.86,-0.05075,0.04975,1.0075,0.48,-0.08,-0.02,22590.0,17860.0,-34320.0
32.7588759,35.0228403,478.86,-0.05025,0.059,0.98825,0.02,0.44,0.04,22590.0,17850.0,-34330.0
32.7588759,35.0228403,478.86,-0.04525,0.02675,0.98975,-0.4,-0.28,0.0,22480.0,17780.0,-34350.0
32.7588759,35.0228403,478.86,-0.04225,0.026,1.00325,0.12,-0.38,-0.06,22450.0,17720.0,-34360.0
32.7588759,35.0228403,478.86,-0.0515,0.053,0.9955,0.32,0.48,0.04,22460.0,17730.0,-34360.0
32.7588759,35.0228403,478.86,-0.05675,0.04575,0.9895,-0.2,0.38,0.0,22370.0,17730.0,-34370.0
32.7588759,35.0228403,478.86,-0.0545,0.0265,1.00325,-0.22,-0.44,0.02,22360.0,17700.0,-34370.0
32.7588759,35.0228403,478.86,-0.05275,0.041,1.0055,0.22,-0.18,0.0,22420.0,17750.0,-34360.0
32.7588759,35.0228403,478.86,-0.05375,0.0495,0.9875,0.04,0.5,0.02,22480.0,17860.0,-34350.0
32.7588759,35.0228403,478.86,-0.046,0.0275,0.99,-0.28,-0.2,0.0,22470.0,17740.0,-34360.0
32.7588759,35.0228403,478.86,-0.0385,0.03075,1.00525,0.16,-0.62,0.02,22470.0,17670.0,-34360.0
32.7588759,35.0228403,478.86,-0.04625,0.05575,0.998,0.3,0.42,0.02,22430.0,17660.0,-34370.0
32.7588759,35.0228403,478.86,-0.05675,0.042,0.9855,-0.28,0.62,0.0,22380.0,17670.0,-34370.0
32.7588759,35.0228403,478.86,-0.05675,0.01475,0.9985,-0.32,-0.34,-0.02,22420.0,17720.0,-34370.0
32.7588759,35.0228403,478.86,-0.05125,0.035,1.0105,0.46,-0.4,-0.04,22440.0,17790.0,-34360.0
32.7588759,35.0228403,478.86,-0.0515,0.063,0.9945,0.2,0.38,0.04,22450.0,17730.0,-34360.0
32.7588759,35.0228403,478.86,-0.0465,0.04025,0.985,-0.38,0.06,0.0,22470.0,17730.0,-34360.0
32.7588759,35.0228403,478.86,-0.04125,0.02,1.00025,-0.2,-0.56,0.0,22460.0,17790.0,-34360.0
32.7588759,35.0228403,478.86,-0.046,0.043,1.001,0.38,0.22,0.08,22490.0,17900.0,-34340.0
32.7588759,35.0228403,478.86,-0.05475,0.05275,0.99025,-0.02,0.58,0.02,22470.0,17810.0,-34350.0
32.7588759,35.0228403,478.86,-0.056,0.0315,0.99725,-0.36,-0.18,0.0,22450.0,17720.0,-34360.0
32.7588759,35.0228403,478.86,-0.052,0.034,1.00875,0.12,-0.42,-0.02,22380.0,17700.0,-34370.0
32.7588759,35.0228403,478.86,-0.0535,0.05125,0.995,0.18,0.36,-0.02,22370.0,17660.0,-34370.0
32.7588759,35.0228403,478.86,-0.04875,0.03675,0.985,-0.24,0.22,-0.02,22390.0,17580.0,-34380.0
32.7588759,35.0228403,478.86,-0.03975,0.02425,1.00225,-0.08,-0.62,0.02,22360.0,17420.0,-34400.0
32.7588759,35.0228403,478.86,-0.04125,0.048,1.00475,0.42,-0.02,-0.02,22440.0,17320.0,-34400.0
32.7588759,35.0228403,478.86,-0.0545,0.05525,0.98825,-0.08,0.74,0.04,22460.0,17240.0,-34400.0
32.7588759,35.0228403,478.86,-0.0595,0.02275,0.99125,-0.38,-0.04,0.02,22480.0,17280.0,-34390.0
32.7588759,35.0228403,478.86,-0.05425,0.02175,1.0085,0.12,-0.54,-0.04,22550.0,17230.0,-34390.0
32.7588759,35.0228403,478.86,-0.0525,0.057,1.0015,0.5,0.18,0.04,22560.0,17160.0,-34390.0
32.7588759,35.0228403,478.86,-0.04975,0.05525,0.98525,-0.08,0.28,0.0,22470.0,17280.0,-34400.0
32.7588759,35.0228403,478.86,-0.04375,0.02375,0.99475,-0.4,-0.5,-0.02,22360.0,17480.0,-34400.0
32.7588759,35.0228403,478.86,-0.04375,0.03225,1.0035,0.18,-0.2,0.02,22400.0,17520.0,-34380.0
32.7588759,35.0228403,478.86,-0.0545,0.0545,0.992,0.2,0.64,-0.02,22410.0,17570.0,-34370.0
32.7588759,35.0228403,478.86,-0.05825,0.04,0.992,-0.32,0.14,0.04,22400.0,17580.0,-34370.0
32.7588759,35.0228403,478.86,-0.0535,0.02925,1.0085,-0.12,-0.58,-0.02,22380.0,17600.0,-34370.0
32.7588759,35.0228403,478.86,-0.05125,0.04775,1.00225,0.3,0.06,0.02,22300.0,17630.0,-34380.0
32.7588759,35.0228403,478.86,-0.0515,0.047,0.98475,-0.1,0.46,-0.02,22270.0,17670.0,-34380.0
32.7588759,35.0228403,478.86,-0.04325,0.023,0.9945,-0.28,-0.38,0.02,22470.0,17690.0,-34350.0
32.7588759,35.0228403,478.86,-0.0385,0.03375,1.007,0.26,-0.48,-0.04,22530.0,17720.0,-34340.0
32.7588759,35.0228403,478.86,-0.0495,0.05875,0.994,0.14,0.6,0.0,22540.0,17730.0,-34330.0
32.7588759,35.0228403,478.86,-0.05875,0.03825,0.9855,-0.36,0.58,0.06,22540.0,17750.0,-34330.0
32.7588759,35.0228403,478.86,-0.05575,0.0145,1.0045,-0.24,-0.5,0.0,22520.0,17730.0,-34340.0
32.7588759,35.0228403,478.86,-0.05025,0.04025,1.00975,0.5,-0.28,0.04,22430.0,17650.0,-34360.0
32.7588759,35.0228403,478.86,-0.04975,0.062,0.9895,0.08,0.38,-0.02,22400.0,17570.0,-34370.0
32.7588759,35.0228403,478.86,-0.04475,0.0355,0.98825,-0.38,-0.18,0.0,22370.0,17540.0,-34380.0
32.7588759,35.0228403,478.86,-0.04,0.02175,1.005,-0.06,-0.58,-0.02,22340.0,17550.0,-34380.0
32.7588759,35.0228403,478.86,-0.049,0.0475,0.999,0.34,0.32,0.1,22360.0,17560.0,-34370.0
32.7588759,35.0228403,478.86,-0.0575,0.051,0.98725,0.0,0.58,0.06,22390.0,17570.0,-34370.0
32.7588759,35.0228403,478.86,-0.0565,0.029,1.0015,-0.3,-0.36,0.02,22300.0,17590.0,-34380.0
32.7588759,35.0228403,478.86,-0.051,0.0365,1.009,0.08,-0.44,0.02,22330.0,17560.0,-34380.0
32.7588759,35.0228403,478.86,-0.05325,0.0535,0.9895,0.12,0.46,-0.02,22410.0,17530.0,-34370.0
32.7588759,35.0228403,478.86,-0.0485,0.034,0.984,-0.34,0.02,0.0,22370.0,17580.0,-34370.0
32.7588759,35.0228403,478.86,-0.04,0.023,1.0045,-0.06,-0.68,0.04,22360.0,17640.0,-34370.0
32.7588759,35.0228403,478.86,-0.044,0.05025,1.004,0.4,0.18,0.02,22360.0,17670.0,-34370.0
32.7588759,35.0228403,478.86,-0.057,0.054,0.98475,-0.16,0.78,0.06,22300.0,17640.0,-34380.0
32.7588759,35.0228403,478.86,-0.05975,0.02175,0.992,-0.44,-0.08,-0.02,22310.0,17610.0,-34380.0
32.7588759,35.0228403,478.86,-0.05175,0.02225,1.01075,0.16,-0.58,0.06,22380.0,17610.0,-34370.0
32.7588759,35.0228403,478.86,-0.0505,0.0585,1.0,0.46,0.18,-0.02,22470.0,17770.0,-34340.0
32.7588759,35.0228403,478.86,-0.0485,0.05275,0.98375,-0.2,0.3,0.0,22520.0,17820.0,-34330.0
32.7588759,35.0228403,478.86,-0.04275,0.0215,0.997,-0.32,-0.54,0.0,22590.0,17850.0,-34320.0
32.7588759,35.0228403,478.86,-0.04325,0.03275,1.00475,0.24,-0.24,-0.02,22510.0,17830.0,-34330.0
32.7588759,35.0228403,478.86,-0.05475,0.05475,0.9905,0.18,0.72,0.02,22420.0,17760.0,-34350.0
32.7588759,35.0228403,478.86,-0.058,0.039,0.9905,-0.32,0.14,-0.06,22370.0,17700.0,-34360.0
32.7588759,35.0228403,478.86,-0.05225,0.02675,1.00875,-0.06,-0.64,0.0,22360.0,17690.0,-34370.0
32.7588759,35.0228403,478.86,-0.05125,0.04775,1.0025,0.34,0.16,0.0,22390.0,17650.0,-34370.0
