Lat_GNSS,Long_GNSS,Height_GNSS,Acc_X,Acc_Y,Acc_Z,Gyro_X,Gyro_Y,Gyro_Z,Magn_X,Magn_Y,Magn_Z
32.7643208,35.0164815,483.07,-0.052,0.0035,1.0105,0.26,0.06,0.1,28630.0,-3160.0,-33500.0
32.7643208,35.0164815,483.07,-0.0635,0.0255,0.97925,0.2,0.4,-0.02,28610.0,-3120.0,-33500.0
32.7643208,35.0164815,483.07,-0.061,0.002,0.98825,-0.4,0.04,-0.04,28560.0,-3120.0,-33480.0
32.7643208,35.0164815,483.07,-0.05375,-0.019,1.021,-0.22,-0.4,0.02,28550.0,-3110.0,-33480.0
32.7643208,35.0164815,483.07,-0.051,0.01375,1.00425,0.46,-0.04,-0.04,28540.0,-3100.0,-33480.0
32.7643208,35.0164815,483.07,-0.057,0.03475,0.9755,0.22,0.32,-0.02,28510.0,-3010.0,-33500.0
32.7643208,35.0164815,483.07,-0.04975,0.0005,0.9925,-0.46,-0.14,0.0,28540.0,-3080.0,-33510.0
32.7643208,35.0164815,483.07,-0.04875,-0.0205,1.0195,-0.14,-0.3,0.02,28610.0,-3180.0,-33500.0
32.7643208,35.0164815,483.07,-0.0545,0.0155,0.9985,0.5,0.34,0.04,28670.0,-3250.0,-33470.0
32.7643208,35.0164815,483.07,-0.06225,0.031,0.97625,0.16,0.3,0.04,28710.0,-3370.0,-33450.0
32.7643208,35.0164815,483.07,-0.0555,-0.00175,1.00125,-0.58,-0.2,-0.06,28750.0,-3400.0,-33430.0
32.7643208,35.0164815,483.07,-0.052,-0.0125,1.0205,-0.06,-0.16,-0.02,28720.0,-3410.0,-33430.0
32.7643208,35.0164815,483.07,-0.05675,0.019,0.991,0.4,0.26,-0.02,28740.0,-3420.0,-33420.0
32.7643208,35.0164815,483.07,-0.05625,0.01925,0.97675,-0.14,0.02,0.0,28740.0,-3390.0,-33430.0
32.7643208,35.0164815,483.07,-0.048,-0.00975,1.007,-0.48,-0.3,0.0,28660.0,-3300.0,-33450.0
32.7643208,35.0164815,483.07,-0.0495,-0.0035,1.0135,0.12,0.0,0.0,28620.0,-3240.0,-33470.0
32.7643208,35.0164815,483.07,-0.06075,0.02625,0.982,0.34,0.32,-0.06,28570.0,-3160.0,-33460.0
32.7643208,35.0164815,483.07,-0.06075,0.01,0.9835,-0.28,0.06,0.02,28530.0,-3110.0,-33470.0
32.7643208,35.0164815,483.07,-0.05425,-0.0195,1.0145,-0.22,-0.24,0.0,28500.0,-3100.0,-33460.0
32.7643208,35.0164815,483.07,-0.05375,0.00275,1.0105,0.36,0.12,-0.02,28490.0,-3090.0,-33470.0
32.7643208,35.0164815,483.07,-0.06075,0.036,0.97875,0.34,0.32,-0.02,28470.0,-3030.0,-33460.0
32.7643208,35.0164815,483.07,-0.055,0.01125,0.985,-0.36,-0.06,-0.04,28450.0,-2990.0,-33470.0
32.7643208,35.0164815,483.07,-0.051,-0.021,1.01525,-0.34,-0.24,0.06,28450.0,-3010.0,-33470.0
32.7643208,35.0164815,483.07,-0.05225,0.0055,1.00125,0.36,0.18,0.04,28480.0,-3040.0,-33470.0
32.7643208,35.0164815,483.07,-0.06225,0.03275,0.97825,0.3,0.28,-0.02,28450.0,-3010.0,-33480.0
32.7643208,35.0164815,483.07,-0.05875,0.008,0.99525,-0.38,-0.08,-0.06,28500.0,-3020.0,-33490.0
32.7643208,35.0164815,483.07,-0.05625,-0.0165,1.02,-0.2,-0.16,0.02,28490.0,-3020.0,-33490.0
32.7643208,35.0164815,483.07,-0.05725,0.01125,0.994,0.36,0.24,0.02,28460.0,-3010.0,-33480.0
32.7643208,35.0164815,483.07,-0.06125,0.026,0.97575,0.12,0.08,-0.08,28500.0,-3070.0,-33480.0
32.7643208,35.0164815,483.07,-0.05175,-0.00125,1.001,-0.38,-0.2,0.0,28480.0,-3040.0,-33470.0
32.7643208,35.0164815,483.07,-0.04825,-0.01225,1.01675,-0.04,-0.2,-0.04,28420.0,-2960.0,-33470.0
32.7643208,35.0164815,483.07,-0.0535,0.01975,0.98775,0.44,0.16,0.06,28440.0,-2980.0,-33470.0
32.7643208,35.0164815,483.07,-0.061,0.022,0.98025,-0.08,0.14,-0.02,28520.0,-3080.0,-33470.0
32.7643208,35.0164815,483.07,-0.05625,-0.01125,1.011,-0.38,-0.2,-0.02,28480.0,-3030.0,-33470.0
32.7643208,35.0164815,483.07,-0.05475,-0.0095,1.016,0.14,-0.02,-0.02,28490.0,-3020.0,-33470.0
32.7643208,35.0164815,483.07,-0.058,0.02975,0.983,0.44,0.16,0.06,28510.0,-3020.0,-33480.0
32.7643208,35.0164815,483.07,-0.05775,0.026,0.9835,-0.12,-0.02,-0.06,28470.0,-2990.0,-33480.0
32.7643208,35.0164815,483.07,-0.049,-0.01125,1.0145,-0.42,-0.3,0.02,28470.0,-3020.0,-33480.0
32.7643208,35.0164815,483.07,-0.048,-0.009,1.00925,0.1,0.0,0.04,28500.0,-3040.0,-33490.0
32.7643208,35.0164815,483.07,-0.0545,0.02825,0.97975,0.38,0.2,-0.02,28510.0,-3000.0,-33490.0
32.7643208,35.0164815,483.07,-0.059,0.022,0.98975,-0.18,0.04,0.04,28530.0,-3010.0,-33500.0
32.7643208,35.0164815,483.07,-0.05675,-0.011,1.0185,-0.46,-0.1,0.02,28530.0,-3010.0,-33510.0
32.7643208,35.0164815,483.07,-0.05675,-0.00425,1.0035,0.12,0.02,0.06,28510.0,-2990.0,-33510.0
32.7643208,35.0164815,483.07,-0.05875,0.026,0.9755,0.24,0.0,0.0,28490.0,-3000.0,-33500.0
32.7643208,35.0164815,483.08,-0.05525,0.013,0.99525,-0.28,-0.08,-0.04,28480.0,-2990.0,-33490.0
32.7643208,35.0164815,483.08,-0.05,-0.0135,1.01825,-0.3,-0.16,0.04,28500.0,-2960.0,-33500.0
32.7643208,35.0164815,483.08,-0.05025,0.00125,0.99525,0.2,-0.02,0.04,28520.0,-2990.0,-33500.0
32.7643208,35.0164815,483.08,-0.057,0.027,0.9735,0.16,0.04,0.0,28540.0,-2970.0,-33490.0
32.7643208,35.0164815,483.08,-0.05875,0.00475,1.00125,-0.3,0.02,0.04,28520.0,-2910.0,-33480.0
32.7643208,35.0164815,483.08,-0.0595,-0.01825,1.021,-0.26,0.04,0.08,28460.0,-2850.0,-33470.0
32.7643208,35.0164815,483.08,-0.05725,0.006,0.99,0.34,-0.04,0.02,28430.0,-2910.0,-33470.0
32.7643208,35.0164815,483.08,-0.058,0.0315,0.977,0.18,-0.16,0.02,28460.0,-2950.0,-33470.0
32.7643208,35.0164815,483.08,-0.0525,0.00775,1.00525,-0.34,-0.06,0.0,28440.0,-2940.0,-33470.0
32.7643208,35.0164815,483.08,-0.051,-0.01675,1.01475,-0.2,0.08,0.04,28480.0,-2980.0,-33470.0
32.7643208,35.0164815,483.08,-0.0515,0.007,0.98225,0.3,-0.06,0.0,28540.0,-3030.0,-33480.0
32.7643208,35.0164815,483.08,-0.05825,0.03,0.98125,0.12,-0.1,-0.04,28580.0,-3000.0,-33500.0
32.7643208,35.0164815,483.08,-0.05725,0.00725,1.012,-0.32,0.12,0.04,28570.0,-3030.0,-33490.0
32.7643208,35.0164815,483.08,-0.06175,-0.01375,1.0135,-0.18,0.12,0.08,28520.0,-3000.0,-33480.0
32.7643208,35.0164815,483.08,-0.0595,0.009,0.98125,0.24,-0.18,0.04,28480.0,-2910.0,-33470.0
32.7643208,35.0164815,483.08,-0.05875,0.026,0.98475,0.08,-0.22,0.02,28480.0,-2940.0,-33470.0
32.7643208,35.0164815,483.08,-0.049,0.001,1.01225,-0.32,0.0,-0.1,28510.0,-2990.0,-33470.0
32.7643208,35.0164815,483.08,-0.05025,-0.0115,1.00625,-0.1,0.04,0.02,28500.0,-2940.0,-33470.0
32.7643208,35.0164815,483.08,-0.05025,0.01775,0.9785,0.32,-0.12,-0.02,28450.0,-2910.0,-33470.0
32.7643208,35.0164815,483.08,-0.05675,0.024,0.9905,-0.04,-0.08,-0.06,28530.0,-3010.0,-33470.0
32.7643208,35.0164815,483.08,-0.056,-0.00975,1.019,-0.34,0.12,-0.08,28560.0,-3060.0,-33470.0
32.7643208,35.0164815,483.08,-0.061,-0.0135,1.0065,0.08,0.04,0.0,28620.0,-3100.0,-33490.0
32.7643208,35.0164815,483.08,-0.05725,0.0275,0.97725,0.44,-0.22,0.02,28600.0,-3090.0,-33490.0
32.7643208,35.0164815,483.08,-0.0545,0.03075,0.993,-0.08,-0.28,-0.08,28550.0,-3050.0,-33480.0
32.7643208,35.0164815,483.08,-0.047,-0.012,1.014,-0.48,0.02,0.02,28540.0,-3060.0,-33470.0
32.7643208,35.0164815,483.08,-0.05175,-0.01475,0.99875,0.0,0.0,0.02,28530.0,-3090.0,-33470.0
32.7643208,35.0164815,483.08,-0.05575,0.02725,0.978,0.38,-0.14,0.04,28550.0,-3080.0,-33470.0
32.7643208,35.0164815,483.08,-0.05775,0.026,0.99975,-0.1,0.0,0.02,28560.0,-3090.0,-33470.0
32.7643208,35.0164815,483.08,-0.0545,-0.0115,1.01875,-0.52,0.1,-0.04,28550.0,-3100.0,-33470.0
32.7643208,35.0164815,483.08,-0.0595,-0.00625,0.996,0.14,0.04,0.08,28550.0,-3130.0,-33470.0
32.7643208,35.0164815,483.08,-0.06075,0.0275,0.97575,0.4,-0.04,0.08,28510.0,-3070.0,-33470.0
32.7643208,35.0164815,483.08,-0.0535,0.01375,1.00425,-0.24,-0.18,0.02,28500.0,-3080.0,-33470.0
32.7643208,35.0164815,483.08,-0.04675,-0.01625,1.01825,-0.36,-0.02,0.0,28520.0,-3080.0,-33470.0
32.7643208,35.0164815,483.08,-0.053,0.00675,0.98825,0.26,0.12,0.08,28530.0,-3090.0,-33470.0
32.7643208,35.0164815,483.08,-0.06125,0.03,0.9735,0.16,0.16,-0.1,28570.0,-3130.0,-33470.0
32.7643208,35.0164815,483.08,-0.05825,-0.00225,1.0055,-0.46,0.0,0.02,28580.0,-3130.0,-33480.0
32.7643208,35.0164815,483.08,-0.05675,-0.02325,1.0205,-0.06,-0.06,-0.04,28560.0,-3060.0,-33490.0
32.7643208,35.0164815,483.08,-0.06125,0.02025,0.98625,0.54,0.14,0.0,28580.0,-3060.0,-33500.0
32.7643208,35.0164815,483.08,-0.05875,0.03675,0.97525,0.1,0.0,0.02,28600.0,-3080.0,-33500.0
32.7643208,35.0164815,483.08,-0.04425,-0.007,1.00625,-0.54,-0.34,0.0,28550.0,-2990.0,-33500.0
32.7643208,35.0164815,483.08,-0.0465,-0.019,1.01525,0.04,-0.06,0.04,28560.0,-3010.0,-33490.0
32.7643208,35.0164815,483.08,-0.0615,0.0255,0.982,0.62,0.44,0.02,28570.0,-3030.0,-33500.0
32.7643208,35.0164815,483.08,-0.0635,0.03025,0.97925,-0.04,0.24,0.0,28550.0,-3030.0,-33490.0
32.7643208,35.0164815,483.08,-0.053,-0.009,1.0175,-0.64,-0.28,-0.02,28570.0,-3060.0,-33480.0
32.7643208,35.0164815,483.08,-0.05425,-0.007,1.019,0.06,-0.02,0.04,28580.0,-3120.0,-33470.0
32.7643208,35.0164815,483.08,-0.06125,0.02525,0.977,0.34,0.4,-0.02,28560.0,-3110.0,-33470.0
32.7643208,35.0164815,483.08,-0.0485,0.0105,0.9785,-0.34,-0.32,0.02,28530.0,-3100.0,-33470.0
32.7643208,35.0164815,483.08,-0.03925,-0.0155,1.022,-0.32,-0.58,0.02,28550.0,-3090.0,-33470.0
32.7643208,35.0164815,483.08,-0.0515,0.01025,1.0115,0.42,0.4,0.04,28530.0,-3040.0,-33470.0
32.7643208,35.0164815,483.08,-0.06575,0.02625,0.96875,0.12,0.66,0.02,28530.0,-3070.0,-33470.0
32.7643208,35.0164815,483.08,-0.05775,-0.0095,0.98775,-0.6,-0.4,0.0,28560.0,-3070.0,-33470.0
32.7643208,35.0164815,483.08,-0.053,-0.016,1.031,0.12,-0.5,-0.02,28550.0,-3020.0,-33470.0
32.7643208,35.0164815,483.08,-0.06125,0.0275,1.00725,0.66,0.68,0.02,28510.0,-2990.0,-33470.0
32.7643208,35.0164815,483.08,-0.0585,0.02925,0.96225,-0.14,0.26,0.0,28520.0,-3020.0,-33470.0
32.7643208,35.0164815,483.08,-0.04325,-0.01125,0.993,-0.64,-0.84,-0.04,28550.0,-3060.0,-33470.0
32.7643208,35.0164815,483.08,-0.04725,-0.006,1.02975,0.18,0.04,-0.02,28540.0,-3030.0,-33470.0
32.7643208,35.0164815,483.08,-0.064,0.02675,0.99225,0.54,0.98,0.06,28590.0,-3040.0,-33470.0
32.7643208,35.0164815,483.08,-0.064,0.015,0.9645,-0.3,0.0,-0.02,28580.0,-3040.0,-33480.0
32.7643208,35.0164815,483.08,-0.057,-0.007,1.013,-0.5,-0.92,0.02,28550.0,-3050.0,-33470.0
32.7643208,35.0164815,483.08,-0.05925,0.0115,1.03125,0.34,0.26,0.02,28590.0,-3060.0,-33470.0
32.7643208,35.0164815,483.08,-0.06075,0.019,0.97525,0.02,0.54,0.02,28580.0,-3050.0,-33470.0
32.7643208,35.0164815,483.08,-0.04825,-0.00675,0.969,-0.52,-0.78,0.0,28560.0,-2960.0,-33490.0
32.7643208,35.0164815,483.08,-0.04425,-0.00225,1.02075,0.04,-0.54,0.06,28590.0,-3000.0,-33510.0
32.7643208,35.0164815,483.08,-0.0555,0.023,1.0165,0.34,0.82,0.0,28660.0,-3070.0,-33510.0
32.7643208,35.0164815,483.08,-0.063,0.00625,0.9705,-0.4,0.32,-0.06,28630.0,-3030.0,-33510.0
32.7643208,35.0164815,483.08,-0.059,-0.01525,0.9905,-0.34,-0.8,0.0,28640.0,-3030.0,-33500.0
32.7643208,35.0164815,483.08,-0.0545,0.012,1.02725,0.46,-0.2,-0.06,28650.0,-3060.0,-33490.0
32.7643208,35.0164815,483.08,-0.05575,0.0295,1.0,0.24,0.56,0.02,28620.0,-3050.0,-33490.0
32.7643208,35.0164815,483.08,-0.052,-0.002,0.9705,-0.6,-0.28,-0.02,28590.0,-3030.0,-33470.0
32.7643208,35.0164815,483.08,-0.047,-0.00825,0.99975,-0.16,-0.7,0.04,28630.0,-3080.0,-33470.0
32.7643208,35.0164815,483.08,-0.05025,0.0205,1.0165,0.52,0.36,-0.04,28670.0,-3130.0,-33450.0
32.7643208,35.0164815,483.08,-0.058,0.0145,0.98975,-0.22,0.54,0.06,28770.0,-3290.0,-33440.0
32.7643208,35.0164815,483.08,-0.06,-0.00775,0.985,-0.5,-0.4,0.02,28790.0,-3300.0,-33430.0
32.7643208,35.0164815,483.08,-0.05875,0.00975,1.00675,0.26,-0.3,0.08,28780.0,-3270.0,-33420.0
32.7643208,35.0164815,483.08,-0.0595,0.018,1.00525,0.14,0.42,0.04,28760.0,-3260.0,-33420.0
32.7643208,35.0164815,483.08,-0.0515,-0.00675,0.98925,-0.44,-0.1,0.0,28690.0,-3230.0,-33430.0
32.7643208,35.0164815,483.08,-0.04625,-0.00075,0.99325,0.02,-0.64,0.02,28660.0,-3120.0,-33460.0
32.7643208,35.0164815,483.08,-0.051,0.0215,1.00125,0.34,0.22,0.0,28660.0,-3080.0,-33480.0
32.7643208,35.0164815,483.08,-0.0575,0.0025,0.99525,-0.3,0.6,0.0,28680.0,-3060.0,-33500.0
32.7643208,35.0164815,483.08,-0.05825,-0.01575,0.9965,-0.18,-0.22,0.02,28670.0,-3030.0,-33500.0
32.7643208,35.0164815,483.07,-0.0605,0.01475,1.00625,0.5,-0.24,0.02,28620.0,-2970.0,-33510.0
32.7643208,35.0164815,483.07,-0.0575,0.02575,0.996,0.16,0.34,0.0,28630.0,-2980.0,-33510.0
32.7643208,35.0164815,483.07,-0.04925,-0.009,0.98575,-0.54,-0.04,-0.02,28630.0,-2970.0,-33500.0
32.7643208,35.0164815,483.07,-0.05075,-0.007,0.99825,0.18,-0.4,-0.04,28600.0,-2980.0,-33490.0
32.7643208,35.0164815,483.07,-0.06,0.02025,0.9995,0.48,0.4,-0.04,28630.0,-3030.0,-33480.0
32.7643208,35.0164815,483.07,-0.05725,0.01175,0.98775,-0.12,0.38,0.02,28620.0,-3020.0,-33480.0
32.7643208,35.0164815,483.07,-0.05425,-0.00475,1.00125,-0.22,-0.4,-0.04,28560.0,-2920.0,-33470.0
32.7643208,35.0164815,483.07,-0.06075,0.01175,1.013,0.4,0.14,0.04,28550.0,-2950.0,-33470.0
32.7643208,35.0164815,483.07,-0.05875,0.015,0.98475,0.04,0.42,0.02,28590.0,-3010.0,-33470.0
32.7643208,35.0164815,483.07,-0.04625,-0.00375,0.98075,-0.34,-0.42,0.02,28570.0,-2980.0,-33470.0
32.7643208,35.0164815,483.07,-0.04625,0.00475,1.01475,0.06,-0.28,-0.04,28570.0,-2980.0,-33470.0
32.7643208,35.0164815,483.07,-0.05725,0.02275,1.00575,0.42,0.72,0.0,28610.0,-2990.0,-33480.0
32.7643208,35.0164815,483.07,-0.06075,0.004,0.97425,-0.3,0.32,0.0,28570.0,-2920.0,-33470.0
32.7643208,35.0164815,483.07,-0.058,-0.0135,1.0,-0.28,-0.48,0.04,28590.0,-2980.0,-33470.0
32.7643208,35.0164815,483.07,-0.0555,0.01625,1.0235,0.58,0.1,0.0,28590.0,-3000.0,-33470.0
32.7643208,35.0164815,483.07,-0.05425,0.03125,0.992,0.16,0.52,0.0,28590.0,-2980.0,-33470.0
32.7643208,35.0164815,483.07,-0.04875,-0.00075,0.97925,-0.56,-0.3,0.02,28570.0,-3020.0,-33480.0
32.7643208,35.0164815,483.07,-0.04625,-0.004,1.0065,-0.02,-0.48,0.0,28600.0,-3050.0,-33490.0
32.7643208,35.0164815,483.07,-0.0555,0.02375,1.0095,0.42,0.52,0.06,28610.0,-3060.0,-33480.0
32.7643208,35.0164815,483.07,-0.059,0.019,0.9925,-0.26,0.56,0.02,28610.0,-3050.0,-33480.0
32.7643208,35.0164815,483.07,-0.05725,-0.001,0.995,-0.42,-0.26,-0.04,28610.0,-3060.0,-33480.0
32.7643208,35.0164815,483.07,-0.06025,0.01075,1.00675,0.18,-0.02,0.04,28630.0,-3040.0,-33490.0
32.7643208,35.0164815,483.07,-0.058,0.01025,0.9925,0.02,0.4,0.06,28640.0,-3080.0,-33500.0
32.7643208,35.0164815,483.07,-0.046,-0.01125,0.97875,-0.36,-0.32,0.04,28620.0,-3070.0,-33480.0
32.7643208,35.0164815,483.07,-0.04625,-0.002,0.9925,0.16,-0.5,0.06,28560.0,-3010.0,-33480.0
32.7643208,35.0164815,483.07,-0.0555,0.0165,0.99875,0.4,0.4,0.0,28470.0,-2920.0,-33470.0
32.7643208,35.0164815,483.07,-0.058,-0.001,0.98425,-0.16,0.36,0.04,28480.0,-2950.0,-33470.0
32.7643208,35.0164815,483.07,-0.0625,-0.011,0.98975,-0.04,-0.28,0.02,28530.0,-3000.0,-33480.0
32.7643208,35.0164815,483.07,-0.0625,0.0195,1.0075,0.56,0.06,0.04,28490.0,-2950.0,-33470.0
32.7643208,35.0164815,483.07,-0.05125,0.02475,0.9955,0.14,0.26,-0.04,28480.0,-2930.0,-33470.0
32.7643208,35.0164815,483.07,-0.04625,-0.00075,0.9885,-0.54,-0.3,0.1,28470.0,-2910.0,-33470.0
32.7643208,35.0164815,483.07,-0.05425,0.00275,1.00375,0.04,-0.04,0.04,28480.0,-2880.0,-33490.0
32.7643208,35.0164815,483.07,-0.05975,0.01875,0.99725,0.36,0.4,0.12,28500.0,-2920.0,-33480.0
32.7643208,35.0164815,483.07,-0.05875,0.0065,0.99025,-0.32,0.02,-0.04,28510.0,-2940.0,-33470.0
32.7643208,35.0164815,483.07,-0.0595,-0.00275,1.01475,-0.38,-0.3,0.02,28490.0,-2930.0,-33470.0
32.7643208,35.0164815,483.07,-0.0625,0.0145,1.0105,0.24,0.08,0.0,28520.0,-2970.0,-33470.0
32.7643208,35.0164815,483.07,-0.0585,0.011,0.98725,-0.2,-0.02,-0.02,28540.0,-3010.0,-33470.0
32.7643208,35.0164815,483.07,-0.04575,-0.012,1.002,-0.54,-0.56,0.0,28520.0,-2950.0,-33480.0
32.7643208,35.0164815,483.07,-0.045,0.0045,1.0155,0.2,-0.36,0.04,28490.0,-2890.0,-33490.0
32.7643208,35.0164815,483.07,-0.05975,0.021,0.99525,0.12,0.5,-0.04,28490.0,-2900.0,-33490.0
32.7643209,35.0164814,483.07,-0.06125,-0.00775,0.9905,-0.48,0.14,-0.02,28480.0,-2900.0,-33500.0
32.7643209,35.0164814,483.07,-0.057,-0.01375,1.007,-0.08,-0.7,-0.02,28520.0,-2910.0,-33500.0
32.7643209,35.0164814,483.07,-0.06125,0.022,1.01275,0.52,0.02,0.0,28530.0,-2940.0,-33500.0
32.7643209,35.0164814,483.07,-0.053,0.022,0.99275,0.0,0.2,-0.02,28480.0,-2930.0,-33480.0
32.7643209,35.0164814,483.07,-0.04475,-0.00975,0.9845,-0.54,-0.64,0.04,28460.0,-2960.0,-33470.0
32.7643209,35.0164814,483.07,-0.05275,0.0015,1.00175,0.12,-0.26,0.06,28510.0,-3030.0,-33470.0
32.7643209,35.0164814,483.07,-0.0575,0.02025,0.995,0.34,0.46,0.06,28510.0,-3010.0,-33470.0
32.7643209,35.0164814,483.07,-0.057,0.004,0.97825,-0.3,-0.06,-0.02,28510.0,-2990.0,-33470.0
32.7643209,35.0164814,483.07,-0.06025,-0.0035,0.9965,-0.2,-0.4,-0.02,28530.0,-2990.0,-33470.0
32.7643209,35.0164814,483.07,-0.0615,0.01325,1.006,0.38,0.1,0.04,28540.0,-3000.0,-33470.0
32.7643209,35.0164814,483.07,-0.05475,0.008,0.978,-0.12,-0.02,0.0,28500.0,-2950.0,-33470.0
32.7643209,35.0164814,483.07,-0.04475,-0.00675,0.981,-0.34,-0.7,0.04,28510.0,-2960.0,-33480.0
32.7643209,35.0164814,483.07,-0.044,0.00925,1.00225,0.28,-0.42,0.08,28530.0,-2980.0,-33470.0
32.7643209,35.0164814,483.07,-0.056,0.01925,0.98975,0.16,0.38,0.08,28510.0,-2960.0,-33470.0
32.7643209,35.0164814,483.07,-0.0595,-0.003,0.98,-0.36,0.02,0.06,28520.0,-3010.0,-33460.0
32.7643209,35.0164814,483.07,-0.0585,-0.00925,1.0015,0.06,-0.66,0.1,28550.0,-3020.0,-33470.0
32.7643209,35.0164814,483.07,-0.06125,0.01925,1.007,0.46,-0.2,0.0,28520.0,-2940.0,-33470.0
32.7643209,35.0164814,483.07,-0.0505,0.015,0.9895,-0.12,-0.16,0.1,28520.0,-2930.0,-33480.0
32.7643209,35.0164814,483.07,-0.04425,-0.01375,0.9895,-0.4,-0.88,0.06,28580.0,-3030.0,-33480.0
32.7643209,35.0164814,483.07,-0.05375,0.001,1.0035,0.22,-0.52,0.1,28590.0,-3050.0,-33470.0
32.7643209,35.0164813,483.07,-0.057,0.014,1.001,0.3,0.02,0.04,28630.0,-3110.0,-33470.0
32.7643209,35.0164813,483.07,-0.05375,-0.0055,0.99275,-0.34,-0.46,0.1,28670.0,-3110.0,-33490.0
32.7643209,35.0164813,483.07,-0.059,-0.0055,1.0085,-0.08,-0.68,0.1,28650.0,-3110.0,-33490.0
32.7643209,35.0164813,483.07,-0.06,0.01325,1.01175,0.48,-0.16,0.0,28660.0,-3120.0,-33480.0
32.7643209,35.0164813,483.07,-0.051,0.00075,0.99175,-0.08,-0.46,0.04,28620.0,-3090.0,-33470.0
32.7643209,35.0164813,483.07,-0.04575,-0.009,0.9995,-0.44,-1.08,0.06,28580.0,-3040.0,-33470.0
32.7643209,35.0164813,483.07,-0.04975,0.0165,1.017,0.46,-0.5,0.06,28600.0,-3040.0,-33470.0
32.7643209,35.0164813,483.07,-0.0595,0.01175,0.9925,0.22,0.2,0.08,28610.0,-3030.0,-33470.0
32.7643209,35.0164813,483.07,-0.06,-0.008,0.994,-0.42,-0.48,0.02,28620.0,-3010.0,-33470.0
32.7643209,35.0164813,483.07,-0.05975,0.008,1.024,0.14,-0.88,0.14,28620.0,-3000.0,-33470.0
32.7643209,35.0164813,483.07,-0.058,0.03575,1.01025,0.52,-0.3,0.0,28620.0,-2950.0,-33480.0
32.7643209,35.0164813,483.07,-0.0475,0.0205,0.989,-0.4,-0.5,0.06,28590.0,-2930.0,-33480.0
32.7643209,35.0164813,483.07,-0.04525,-0.00225,1.0035,-0.64,-1.02,0.1,28530.0,-2890.0,-33470.0
32.7643209,35.0164813,483.07,-0.0555,0.0195,1.005,0.18,-0.38,0.1,28550.0,-2930.0,-33470.0
32.7643209,35.0164813,483.07,-0.05775,0.027,0.99525,0.1,0.16,0.06,28580.0,-2960.0,-33470.0
32.7643209,35.0164813,483.07,-0.06,0.009,0.99275,-0.62,-0.32,0.0,28590.0,-2960.0,-33470.0
32.7643209,35.0164813,483.07,-0.06475,0.0115,1.0065,-0.32,-0.48,0.02,28640.0,-2970.0,-33470.0
32.7643209,35.0164813,483.07,-0.0575,0.0215,0.99975,0.2,-0.06,-0.02,28680.0,-2990.0,-33480.0
32.7643209,35.0164813,483.07,-0.0515,0.00625,0.98075,-0.24,-0.26,-0.06,28630.0,-2910.0,-33490.0
32.7643209,35.0164813,483.07,-0.04125,0.004,0.9965,-0.28,-0.52,0.02,28640.0,-2930.0,-33500.0
32.7643209,35.0164813,483.07,-0.0485,0.02225,0.9985,0.42,-0.1,0.06,28680.0,-2960.0,-33500.0
32.7643209,35.0164813,483.08,-0.06,0.019,0.9865,-0.14,0.48,-0.02,28670.0,-2920.0,-33510.0
32.7643209,35.0164813,483.08,-0.06125,-0.0005,0.9935,-0.36,-0.12,0.0,28650.0,-2950.0,-33520.0
32.7643209,35.0164813,483.08,-0.05925,0.00925,1.0045,0.2,-0.52,-0.04,28670.0,-2980.0,-33520.0
32.7643209,35.0164813,483.08,-0.0565,0.0275,1.0005,0.28,0.14,-0.02,28620.0,-2940.0,-33520.0
32.7643209,35.0164813,483.08,-0.04475,0.016,0.98725,-0.38,-0.1,0.06,28610.0,-2970.0,-33510.0
32.7643209,35.0164813,483.08,-0.04125,-0.00175,0.9975,-0.54,-0.6,0.06,28590.0,-2940.0,-33490.0
32.7643209,35.0164813,483.08,-0.04975,0.01425,0.99775,0.16,0.18,0.06,28540.0,-2950.0,-33480.0
32.7643209,35.0164813,483.08,-0.055,0.01475,0.98975,-0.02,0.5,0.08,28550.0,-2960.0,-33470.0
32.7643209,35.0164813,483.08,-0.0545,-0.004,0.99975,-0.64,-0.3,-0.02,28570.0,-2980.0,-33480.0
32.7643209,35.0164813,483.08,-0.05525,0.0055,1.00675,-0.1,-0.26,0.06,28570.0,-2930.0,-33480.0
32.7643209,35.0164813,483.08,-0.0555,0.0085,0.994,0.06,0.3,0.06,28580.0,-2960.0,-33490.0
32.7643209,35.0164813,483.08,-0.0445,-0.0065,0.98575,-0.46,-0.24,0.04,28580.0,-2990.0,-33480.0
32.7643209,35.0164813,483.08,-0.03775,-0.006,1.00625,-0.14,-0.56,0.04,28570.0,-3000.0,-33470.0
32.7643209,35.0164813,483.08,-0.0485,0.00775,0.9995,0.24,0.36,0.0,28580.0,-3010.0,-33470.0
32.7643209,35.0164813,483.08,-0.05675,0.00225,0.9785,-0.1,0.62,0.08,28620.0,-3100.0,-33460.0
32.7643209,35.0164813,483.08,-0.056,-0.02025,1.0005,-0.42,-0.42,0.0,28690.0,-3180.0,-33440.0
32.7643209,35.0164813,483.08,-0.0565,-0.0045,1.013,0.26,-0.16,-0.08,28750.0,-3240.0,-33430.0
32.7643209,35.0164813,483.08,-0.0555,0.01925,0.992,0.48,0.46,0.02,28800.0,-3310.0,-33430.0
32.7643209,35.0164813,483.08,-0.04875,-0.00175,0.98325,-0.4,-0.28,0.0,28810.0,-3350.0,-33430.0
32.7643209,35.0164813,483.08,-0.042,-0.01825,1.00325,-0.18,-0.5,0.04,28800.0,-3300.0,-33430.0
32.7643209,35.0164812,483.07,-0.0495,0.0055,0.9985,0.6,0.34,0.04,28790.0,-3300.0,-33460.0
32.7643209,35.0164812,483.07,-0.063,0.01375,0.98325,0.12,0.52,-0.06,28720.0,-3250.0,-33470.0
32.7643209,35.0164812,483.07,-0.061,-0.00525,1.00075,-0.32,-0.34,0.0,28680.0,-3210.0,-33460.0
32.7643209,35.0164812,483.07,-0.05725,-0.001,1.01225,0.24,-0.32,0.02,28660.0,-3200.0,-33470.0
32.7643209,35.0164812,483.07,-0.06225,0.01525,0.993,0.34,0.52,0.04,28650.0,-3220.0,-33470.0
32.7643209,35.0164812,483.07,-0.05025,0.0,0.9825,-0.18,-0.14,0.02,28650.0,-3210.0,-33470.0
32.7643209,35.0164812,483.07,-0.03925,-0.0095,1.003,-0.02,-0.78,0.0,28620.0,-3170.0,-33470.0
32.7643209,35.0164812,483.07,-0.048,0.015,1.01025,0.5,0.26,0.0,28580.0,-3160.0,-33470.0
32.7643209,35.0164812,483.07,-0.061,0.0195,0.984,0.26,0.9,0.02,28560.0,-3130.0,-33460.0
32.7643209,35.0164812,483.07,-0.06175,-0.01,0.99225,-0.38,-0.42,0.04,28590.0,-3160.0,-33470.0
32.7643209,35.0164812,483.07,-0.05675,0.001,1.02125,0.34,-0.44,0.06,28620.0,-3180.0,-33480.0
32.7643209,35.0164812,483.07,-0.055,0.033,1.002,0.72,0.46,0.04,28620.0,-3160.0,-33480.0
32.7643209,35.0164812,483.07,-0.047,0.01225,0.9785,-0.38,-0.02,-0.06,28630.0,-3170.0,-33470.0
32.7643209,35.0164812,483.07,-0.04075,-0.0045,1.00075,-0.2,-0.66,0.06,28640.0,-3180.0,-33470.0
32.7643209,35.0164812,483.07,-0.05075,0.0155,1.01025,0.54,0.32,0.0,28600.0,-3120.0,-33470.0
32.7643209,35.0164812,483.07,-0.05975,0.02425,0.9855,0.18,0.72,0.04,28590.0,-3140.0,-33470.0
32.7643209,35.0164812,483.07,-0.057,0.0055,0.99325,-0.34,-0.48,0.06,28620.0,-3160.0,-33470.0
32.7643209,35.0164812,483.07,-0.05575,0.0075,1.01925,0.04,-0.34,-0.06,28620.0,-3110.0,-33470.0
32.7643209,35.0164812,483.07,-0.05825,0.02675,0.9985,0.42,0.58,-0.04,28610.0,-3100.0,-33490.0
32.7643209,35.0164812,483.07,-0.051,0.012,0.98325,-0.4,-0.14,0.04,28620.0,-3100.0,-33500.0
32.7643209,35.0164812,483.07,-0.0385,0.003,1.00825,-0.32,-0.82,-0.02,28610.0,-3070.0,-33510.0
32.7643209,35.0164812,483.07,-0.04375,0.0275,1.0095,0.38,0.34,0.04,28600.0,-3050.0,-33510.0
32.7643209,35.0164812,483.07,-0.0605,0.0185,0.985,-0.22,0.78,0.0,28610.0,-3080.0,-33510.0
32.7643209,35.0164812,483.07,-0.062,-0.0075,0.996,-0.56,-0.3,-0.02,28650.0,-3080.0,-33510.0
32.7643209,35.0164812,483.07,-0.05525,0.00375,1.02,0.2,-0.5,-0.02,28620.0,-3060.0,-33500.0
32.7643209,35.0164812,483.07,-0.05775,0.0295,0.9985,0.28,0.46,-0.04,28620.0,-3130.0,-33490.0
32.7643209,35.0164812,483.07,-0.0515,0.01275,0.98,-0.54,0.04,0.02,28630.0,-3130.0,-33480.0
32.7643209,35.0164812,483.07,-0.04275,-0.01525,1.0,-0.46,-0.76,0.04,28640.0,-3150.0,-33470.0
32.7643209,35.0164812,483.07,-0.05025,0.00575,1.00225,0.34,0.26,-0.02,28660.0,-3200.0,-33480.0
32.7643209,35.0164812,483.07,-0.06,0.01975,0.98625,0.06,0.8,0.04,28650.0,-3160.0,-33480.0
32.7643209,35.0164812,483.07,-0.06075,-0.002,0.99425,-0.52,-0.34,-0.04,28620.0,-3050.0,-33490.0
32.7643209,35.0164812,483.07,-0.05575,-0.00275,1.011,-0.04,-0.46,-0.04,28570.0,-3000.0,-33480.0
32.7643209,35.0164812,483.07,-0.0595,0.015,0.99325,0.28,0.54,0.0,28550.0,-2990.0,-33480.0
32.7643209,35.0164812,483.07,-0.052,0.00425,0.9765,-0.34,-0.02,-0.02,28570.0,-3000.0,-33470.0
32.7643209,35.0164812,483.07,-0.039,-0.00925,1.00425,-0.28,-0.9,0.02,28590.0,-3050.0,-33470.0
32.7643209,35.0164812,483.07,-0.047,0.01125,1.00975,0.34,0.2,0.0,28610.0,-3070.0,-33470.0
32.7643209,35.0164812,483.07,-0.0615,0.017,0.97875,0.0,0.82,0.06,28640.0,-3060.0,-33470.0
32.7643209,35.0164812,483.07,-0.06075,-0.01275,0.989,-0.58,-0.42,0.04,28670.0,-3110.0,-33470.0
32.7643209,35.0164812,483.07,-0.05375,-0.01025,1.01825,-0.02,-0.64,0.04,28690.0,-3160.0,-33470.0
32.7643209,35.0164812,483.08,-0.0535,0.02325,0.9995,0.5,0.56,0.02,28700.0,-3140.0,-33480.0
32.7643209,35.0164812,483.08,-0.05075,0.0125,0.9755,-0.3,-0.02,-0.02,28700.0,-3110.0,-33490.0
32.7643209,35.0164812,483.08,-0.04075,-0.01625,1.0,-0.54,-0.82,0.04,28690.0,-3120.0,-33480.0
32.7643209,35.0164812,483.08,-0.046,0.0025,1.01,0.42,0.16,-0.06,28650.0,-3060.0,-33480.0
32.7643209,35.0164812,483.08,-0.061,0.0185,0.9855,0.26,0.78,0.0,28660.0,-3080.0,-33470.0
32.7643209,35.0164812,483.08,-0.059,0.00225,0.9925,-0.4,-0.3,0.04,28680.0,-3100.0,-33470.0
32.7643209,35.0164812,483.08,-0.05275,-0.001,1.018,-0.06,-0.66,-0.06,28660.0,-3030.0,-33470.0
32.7643209,35.0164812,483.08,-0.055,0.0185,1.00225,0.32,0.48,0.02,28620.0,-2980.0,-33470.0
32.7643209,35.0164812,483.08,-0.05225,0.011,0.98075,-0.16,0.24,0.02,28640.0,-3030.0,-33470.0
32.7643209,35.0164812,483.08,-0.041,-0.01075,1.00125,-0.42,-0.86,-0.02,28690.0,-3070.0,-33460.0
32.7643209,35.0164812,483.08,-0.04175,0.01175,1.01475,0.3,-0.04,-0.06,28700.0,-3020.0,-33470.0
32.7643209,35.0164812,483.08,-0.061,0.0255,0.989,0.12,0.92,0.12,28680.0,-3020.0,-33480.0
32.7643209,35.0164812,483.08,-0.06475,-0.00575,0.986,-0.64,-0.06,-0.02,28670.0,-3020.0,-33470.0
32.7643209,35.0164812,483.08,-0.05525,-0.011,1.0115,-0.02,-0.84,0.0,28650.0,-3020.0,-33470.0
32.7643209,35.0164812,483.08,-0.05325,0.0225,1.0135,0.46,0.18,-0.04,28670.0,-3080.0,-33470.0
32.7643209,35.0164812,483.08,-0.05125,0.023,0.98425,-0.14,0.48,0.0,28670.0,-3050.0,-33470.0
32.7643209,35.0164812,483.08,-0.044,-0.0085,0.98575,-0.54,-0.64,0.06,28630.0,-2930.0,-33470.0
32.7643209,35.0164812,483.08,-0.047,-0.001,1.01075,0.16,-0.24,-0.08,28630.0,-2950.0,-33480.0
32.7643209,35.0164812,483.08,-0.05725,0.026,0.99125,0.48,0.86,0.06,28670.0,-3020.0,-33480.0
32.7643209,35.0164812,483.08,-0.06125,0.009,0.9825,-0.36,0.02,0.02,28660.0,-3020.0,-33470.0
32.7643209,35.0164813,483.08,-0.05875,-0.0035,1.00975,-0.36,-0.58,-0.06,28680.0,-3050.0,-33480.0
32.7643209,35.0164813,483.08,-0.05875,0.0185,1.007,0.32,0.22,-0.02,28710.0,-3050.0,-33500.0
32.7643209,35.0164813,483.08,-0.057,0.01475,0.97925,-0.14,0.34,0.08,28690.0,-3030.0,-33500.0
32.7643209,35.0164813,483.08,-0.0415,-0.006,0.98875,-0.52,-0.66,-0.04,28700.0,-3050.0,-33510.0
32.7643209,35.0164813,483.08,-0.0405,0.00825,1.00975,0.22,-0.34,0.04,28730.0,-3060.0,-33510.0
32.7643209,35.0164813,483.08,-0.054,0.02075,0.98775,0.16,0.84,0.06,28680.0,-3020.0,-33500.0
32.7643209,35.0164813,483.08,-0.05875,-0.002,0.978,-0.42,0.18,-0.02,28680.0,-3100.0,-33480.0
32.7643209,35.0164813,483.08,-0.059,-0.0115,1.01575,-0.22,-0.64,0.02,28690.0,-3150.0,-33470.0
32.7643209,35.0164813,483.08,-0.05725,0.02025,1.0105,0.46,0.1,0.0,28680.0,-3110.0,-33470.0
32.7643209,35.0164813,483.08,-0.0535,0.02175,0.97825,-0.02,0.32,-0.02,28590.0,-3020.0,-33470.0
32.7643209,35.0164813,483.08,-0.04275,-0.01225,0.99025,-0.66,-0.58,-0.08,28580.0,-3030.0,-33480.0
32.7643209,35.0164813,483.08,-0.04075,-0.003,1.0105,0.22,-0.32,0.0,28620.0,-3070.0,-33480.0
32.7643209,35.0164813,483.08,-0.05375,0.02025,0.995,0.38,0.74,0.0,28650.0,-3140.0,-33470.0
32.7643209,35.0164813,483.08,-0.05825,0.00925,0.989,-0.38,0.24,-0.02,28660.0,-3160.0,-33470.0
32.7643209,35.0164813,483.08,-0.05425,-0.00875,1.01025,-0.2,-0.58,-0.02,28660.0,-3150.0,-33470.0
32.7643209,35.0164813,483.08,-0.0565,0.006,1.0085,0.28,0.16,-0.02,28660.0,-3150.0,-33470.0
32.7643209,35.0164813,483.08,-0.05725,0.01525,0.9835,0.04,0.42,0.02,28650.0,-3130.0,-33470.0
32.7643209,35.0164813,483.08,-0.04725,-0.00775,0.99425,-0.38,-0.58,0.02,28650.0,-3110.0,-33470.0
32.7643209,35.0164813,483.08,-0.0415,-0.0005,1.0125,0.06,-0.4,0.04,28570.0,-3050.0,-33470.0
32.7643209,35.0164813,483.08,-0.0535,0.02125,0.99625,0.32,0.72,0.0,28540.0,-3060.0,-33470.0
32.7643209,35.0164813,483.08,-0.06275,0.002,0.982,-0.34,0.4,0.02,28600.0,-3130.0,-33470.0
32.7643209,35.0164813,483.08,-0.0565,-0.0185,1.0055,-0.24,-0.66,0.02,28670.0,-3160.0,-33490.0
32.7643209,35.0164813,483.08,-0.05475,0.01,1.015,0.46,-0.12,0.0,28720.0,-3210.0,-33510.0
32.7643209,35.0164813,483.08,-0.05675,0.02925,0.993,0.22,0.56,0.02,28730.0,-3200.0,-33510.0
32.7643209,35.0164813,483.08,-0.05075,-0.002,0.9805,-0.48,-0.3,0.04,28660.0,-3130.0,-33500.0
32.7643209,35.0164813,483.08,-0.04575,-0.01575,1.005,-0.12,-0.64,-0.02,28660.0,-3150.0,-33490.0
32.7643209,35.0164813,483.08,-0.05325,0.01675,1.005,0.6,0.58,0.02,28680.0,-3190.0,-33480.0
32.7643209,35.0164813,483.08,-0.05975,0.019,0.9845,-0.02,0.52,0.0,28660.0,-3210.0,-33480.0
32.7643209,35.0164813,483.08,-0.055,-0.0065,1.00175,-0.48,-0.72,-0.02,28660.0,-3170.0,-33470.0
32.7643209,35.0164813,483.08,-0.05225,0.00875,1.01525,0.3,-0.16,0.04,28690.0,-3220.0,-33480.0
32.7643209,35.0164813,483.08,-0.0565,0.02325,0.9915,0.3,0.62,0.0,28680.0,-3200.0,-33480.0
32.7643209,35.0164813,483.08,-0.04875,-0.00025,0.98275,-0.46,-0.26,0.04,28660.0,-3200.0,-33480.0
32.7643209,35.0164813,483.08,-0.03925,-0.00525,1.007,-0.16,-0.78,0.0,28610.0,-3190.0,-33470.0
32.7643209,35.0164813,483.08,-0.04775,0.02175,1.00775,0.46,0.42,-0.04,28620.0,-3190.0,-33470.0
32.7643209,35.0164813,483.08,-0.06025,0.01625,0.9815,-0.1,0.76,0.1,28620.0,-3200.0,-33470.0
32.7643209,35.0164813,483.08,-0.0605,-0.01575,0.99625,-0.46,-0.46,-0.04,28600.0,-3180.0,-33470.0
32.7643209,35.0164813,483.08,-0.052,0.004,1.019,0.38,-0.38,-0.02,28570.0,-3130.0,-33470.0
32.7643209,35.0164813,483.08,-0.05225,0.03175,0.99675,0.46,0.52,0.04,28580.0,-3120.0,-33470.0
32.7643209,35.0164813,483.08,-0.04775,0.00375,0.977,-0.6,0.06,0.04,28630.0,-3140.0,-33470.0
32.7643209,35.0164813,483.08,-0.0425,-0.012,1.002,-0.24,-0.64,0.02,28630.0,-3110.0,-33470.0
32.7643209,35.0164813,483.08,-0.051,0.0145,1.0095,0.48,0.36,0.08,28610.0,-3080.0,-33480.0
32.7643209,35.0164812,483.08,-0.05975,0.024,0.9895,0.02,0.78,0.04,28700.0,-3200.0,-33480.0
32.7643209,35.0164812,483.08,-0.05875,-0.00325,0.99075,-0.46,-0.44,0.04,28780.0,-3300.0,-33470.0
32.7643209,35.0164812,483.08,-0.0545,-0.00175,1.011,0.04,-0.44,0.02,28770.0,-3270.0,-33460.0
32.7643209,35.0164812,483.08,-0.05575,0.01975,0.997,0.4,0.54,0.08,28780.0,-3320.0,-33460.0
32.7643209,35.0164812,483.08,-0.0505,0.00225,0.9815,-0.34,0.0,0.08,28810.0,-3380.0,-33450.0
32.7643209,35.0164812,483.08,-0.0385,-0.0095,1.00175,-0.3,-0.82,0.02,28800.0,-3380.0,-33440.0
32.7643209,35.0164812,483.08,-0.04525,0.0135,1.0035,0.44,0.24,0.0,28770.0,-3290.0,-33440.0
32.7643209,35.0164812,483.08,-0.0615,0.0105,0.97975,0.02,0.9,-0.02,28730.0,-3230.0,-33450.0
32.7643209,35.0164812,483.08,-0.06175,-0.01925,0.9885,-0.38,-0.34,0.02,28690.0,-3210.0,-33460.0
32.7643209,35.0164812,483.08,-0.0565,-0.00775,1.013,0.36,-0.6,0.06,28720.0,-3200.0,-33470.0
32.7643209,35.0164812,483.08,-0.05525,0.02825,1.0005,0.58,0.5,0.04,28690.0,-3140.0,-33470.0
32.7643209,35.0164812,483.08,-0.05075,0.0145,0.97925,-0.22,0.16,0.04,28640.0,-3050.0,-33470.0
32.7643209,35.0164812,483.08,-0.043,-0.016,0.9995,-0.36,-0.72,0.02,28590.0,-2970.0,-33470.0
32.7643209,35.0164812,483.08,-0.0465,0.00925,1.00975,0.52,0.12,0.02,28630.0,-3010.0,-33470.0
32.7643209,35.0164812,483.08,-0.059,0.0315,0.9935,0.26,0.78,0.04,28630.0,-3030.0,-33470.0
32.7643209,35.0164812,483.08,-0.05875,0.008,0.9995,-0.6,-0.28,-0.06,28660.0,-3050.0,-33480.0
32.7643209,35.0164812,483.08,-0.05625,0.00225,1.01775,-0.06,-0.5,-0.04,28660.0,-3060.0,-33480.0
32.7643209,35.0164812,483.08,-0.0585,0.01925,1.00275,0.3,0.48,0.06,28630.0,-3020.0,-33470.0
32.7643209,35.0164812,483.08,-0.053,0.00925,0.985,-0.4,0.14,0.02,28640.0,-3080.0,-33480.0
32.7643209,35.0164812,483.08,-0.04175,-0.0105,1.004,-0.38,-0.8,-0.12,28660.0,-3100.0,-33480.0
32.7643209,35.0164812,483.07,-0.0435,0.0095,1.0125,0.26,0.08,-0.02,28680.0,-3030.0,-33500.0
32.7643209,35.0164812,483.07,-0.05675,0.019,0.986,0.08,0.8,0.08,28660.0,-3020.0,-33500.0
32.7643209,35.0164812,483.07,-0.06175,-0.01375,0.987,-0.54,-0.18,-0.06,28650.0,-3050.0,-33490.0
32.7643209,35.0164812,483.07,-0.05475,-0.012,1.01375,0.16,-0.6,-0.06,28700.0,-3080.0,-33480.0
32.7643209,35.0164812,483.07,-0.056,0.025,1.00325,0.76,0.34,-0.08,28670.0,-3050.0,-33480.0
32.7643209,35.0164812,483.07,-0.0525,0.02075,0.97925,-0.18,0.36,0.02,28660.0,-3040.0,-33480.0
32.7643209,35.0164812,483.07,-0.0435,-0.01125,0.991,-0.46,-0.7,-0.04,28700.0,-3100.0,-33480.0
32.7643209,35.0164812,483.07,-0.0445,0.0015,1.00475,0.34,-0.12,0.04,28670.0,-3070.0,-33480.0
32.7643209,35.0164812,483.07,-0.05325,0.028,0.98925,0.46,0.78,0.04,28670.0,-3080.0,-33470.0
32.7643209,35.0164812,483.07,-0.057,0.011,0.98625,-0.34,-0.12,0.08,28670.0,-3060.0,-33470.0
32.7643209,35.0164812,483.07,-0.05375,-0.00275,1.0085,-0.22,-0.58,-0.02,28630.0,-2960.0,-33490.0
32.7643209,35.0164812,483.07,-0.057,0.01875,0.9995,0.34,0.38,0.12,28570.0,-2970.0,-33480.0
32.7643209,35.0164812,483.07,-0.05725,0.014,0.97875,-0.06,0.4,0.02,28650.0,-3070.0,-33480.0
32.7643209,35.0164812,483.07,-0.043,-0.00875,0.9935,-0.52,-0.72,0.02,28640.0,-3040.0,-33470.0
32.7643209,35.0164812,483.07,-0.041,0.0085,1.00775,0.28,-0.24,0.04,28640.0,-3050.0,-33470.0
32.7643209,35.0164812,483.07,-0.05525,0.019,0.99025,0.2,0.92,0.06,28670.0,-3070.0,-33480.0
32.7643209,35.0164812,483.07,-0.06,-0.0055,0.982,-0.5,0.12,0.06,28640.0,-3030.0,-33480.0
32.7643209,35.0164812,483.07,-0.05675,-0.0185,1.01175,-0.04,-0.72,0.0,28670.0,-3060.0,-33470.0
32.7643209,35.0164812,483.07,-0.053,0.01825,1.01,0.64,0.24,0.0,28680.0,-3100.0,-33470.0
32.7643209,35.0164812,483.07,-0.0535,0.021,0.98425,0.06,0.46,-0.02,28650.0,-3090.0,-33470.0
32.764321,35.0164812,483.08,-0.04575,-0.01575,0.99,-0.54,-0.58,-0.04,28690.0,-3090.0,-33490.0
32.764321,35.0164812,483.08,-0.0455,-0.004,1.012,0.34,-0.28,-0.06,28690.0,-3070.0,-33490.0
32.764321,35.0164812,483.08,-0.057,0.01975,0.99925,0.54,0.8,0.0,28670.0,-3060.0,-33500.0
32.764321,35.0164812,483.08,-0.0575,0.00825,0.9895,-0.3,0.2,0.14,28640.0,-3020.0,-33500.0
32.764321,35.0164812,483.08,-0.05525,-0.00675,1.01,-0.16,-0.7,0.02,28650.0,-3080.0,-33490.0
32.764321,35.0164812,483.08,-0.056,0.01,1.012,0.42,0.22,0.06,28660.0,-3140.0,-33480.0
32.764321,35.0164812,483.08,-0.05625,0.01425,0.98425,0.04,0.48,0.02,28670.0,-3130.0,-33480.0
32.764321,35.0164812,483.08,-0.048,-0.011,0.993,-0.42,-0.62,-0.06,28660.0,-3100.0,-33470.0
32.764321,35.0164812,483.08,-0.0415,0.0025,1.0145,0.26,-0.44,0.02,28660.0,-3110.0,-33470.0
32.764321,35.0164812,483.08,-0.05425,0.02225,0.9935,0.42,0.74,0.04,28670.0,-3100.0,-33470.0
32.764321,35.0164812,483.08,-0.064,-0.00375,0.983,-0.38,0.36,0.08,28670.0,-3120.0,-33470.0
32.764321,35.0164812,483.08,-0.058,-0.0145,1.00475,0.0,-0.68,0.0,28660.0,-3140.0,-33470.0
32.764321,35.0164812,483.08,-0.05525,0.017,1.01325,0.66,0.02,0.04,28610.0,-3100.0,-33470.0
32.764321,35.0164812,483.08,-0.05375,0.02875,0.99075,0.06,0.6,0.0,28620.0,-3110.0,-33460.0
32.764321,35.0164812,483.08,-0.048,-0.004,0.98375,-0.42,-0.44,0.0,28630.0,-3160.0,-33460.0
32.764321,35.0164812,483.08,-0.04525,-0.00475,1.0055,0.06,-0.4,0.1,28600.0,-3120.0,-33470.0
32.764321,35.0164812,483.08,-0.0525,0.02525,1.00125,0.54,0.66,0.02,28600.0,-3110.0,-33480.0
32.764321,35.0164812,483.08,-0.063,0.02075,0.98825,-0.16,0.34,-0.04,28620.0,-3140.0,-33470.0
32.764321,35.0164812,483.08,-0.058,0.00175,1.00175,-0.34,-0.56,-0.04,28600.0,-3110.0,-33460.0
32.764321,35.0164812,483.08,-0.057,0.01675,1.00975,0.28,-0.14,-0.02,28640.0,-3170.0,-33470.0
32.764321,35.0164812,483.08,-0.05975,0.016,0.9945,0.0,0.56,0.04,28680.0,-3190.0,-33490.0
32.764321,35.0164812,483.08,-0.0495,-0.0005,0.98825,-0.36,-0.32,0.02,28640.0,-3140.0,-33480.0
32.764321,35.0164812,483.08,-0.0405,0.0085,1.00425,-0.02,-0.72,-0.02,28650.0,-3130.0,-33470.0
32.764321,35.0164812,483.08,-0.045,0.027,1.00225,0.24,0.48,-0.02,28670.0,-3140.0,-33470.0
32.764321,35.0164812,483.08,-0.057,0.0085,0.98475,-0.36,0.54,-0.06,28670.0,-3130.0,-33470.0
32.764321,35.0164812,483.08,-0.06025,-0.0125,0.9995,-0.36,-0.56,0.04,28660.0,-3160.0,-33460.0
32.764321,35.0164812,483.08,-0.05525,0.0155,1.01125,0.4,-0.26,0.02,28630.0,-3160.0,-33460.0
32.764321,35.0164812,483.08,-0.057,0.03125,0.997,0.12,0.3,-0.04,28630.0,-3120.0,-33470.0
32.764321,35.0164812,483.08,-0.04775,0.002,0.987,-0.64,-0.12,0.0,28630.0,-3140.0,-33460.0
32.764321,35.0164812,483.08,-0.0445,-0.0065,0.99725,-0.28,-0.66,0.0,28690.0,-3200.0,-33470.0
32.764321,35.0164812,483.08,-0.05025,0.01425,1.002,0.36,0.22,0.06,28720.0,-3220.0,-33480.0
32.764321,35.0164812,483.08,-0.0525,0.018,0.99,-0.2,0.48,0.0,28700.0,-3210.0,-33470.0
32.764321,35.0164812,483.08,-0.05525,-0.00275,1.00125,-0.52,-0.46,0.06,28700.0,-3220.0,-33470.0
32.764321,35.0164812,483.08,-0.05925,0.0065,1.0125,-0.06,-0.32,0.02,28700.0,-3220.0,-33470.0
32.764321,35.0164812,483.08,-0.06125,0.01825,0.9905,0.02,0.16,0.1,28700.0,-3220.0,-33470.0
32.764321,35.0164812,483.08,-0.04975,-0.00375,0.98725,-0.72,-0.64,0.04,28700.0,-3220.0,-33470.0
32.764321,35.0164812,483.08,-0.03725,-0.003,1.0075,-0.24,-0.84,-0.04,28670.0,-3190.0,-33480.0
32.764321,35.0164812,483.08,-0.04775,0.0185,0.99875,0.3,0.48,0.08,28600.0,-3080.0,-33480.0
32.764321,35.0164812,483.08,-0.0565,0.00225,0.98125,-0.38,0.66,0.08,28570.0,-3090.0,-33470.0
32.764321,35.0164812,483.08,-0.05525,-0.02,1.001,-0.46,-0.52,0.04,28640.0,-3170.0,-33470.0
32.764321,35.0164812,483.08,-0.0565,-0.0015,1.0145,0.24,-0.34,0.0,28660.0,-3130.0,-33500.0
32.764321,35.0164812,483.08,-0.05475,0.02275,0.98675,0.4,0.42,-0.02,28690.0,-3140.0,-33510.0
32.764321,35.0164812,483.08,-0.05025,-0.00375,0.9775,-0.5,-0.12,-0.04,28700.0,-3150.0,-33510.0
32.764321,35.0164812,483.08,-0.0435,-0.01825,1.00875,-0.28,-0.62,0.06,28660.0,-3090.0,-33500.0
32.764321,35.0164812,483.08,-0.052,0.00925,1.001,0.62,0.28,0.0,28660.0,-3150.0,-33490.0
32.764321,35.0164812,483.08,-0.05775,0.0135,0.982,0.04,0.58,0.02,28670.0,-3150.0,-33490.0
32.764321,35.0164812,483.08,-0.05325,-0.0055,1.0015,-0.42,-0.38,-0.02,28660.0,-3080.0,-33500.0
32.764321,35.0164812,483.08,-0.05475,-0.001,1.01325,0.16,-0.36,0.06,28690.0,-3100.0,-33510.0
32.764321,35.0164812,483.08,-0.0575,0.01125,0.98875,0.3,0.48,0.02,28730.0,-3110.0,-33510.0
32.764321,35.0164812,483.08,-0.04825,-0.004,0.97975,-0.2,-0.18,0.04,28700.0,-3100.0,-33500.0
32.764321,35.0164812,483.08,-0.04125,-0.01275,1.005,-0.06,-0.76,0.06,28680.0,-3090.0,-33490.0
32.764321,35.0164812,483.08,-0.04575,0.0155,1.00875,0.52,0.22,0.02,28680.0,-3080.0,-33480.0
32.764321,35.0164812,483.08,-0.05975,0.01175,0.98125,0.08,0.74,0.04,28670.0,-3060.0,-33480.0
32.764321,35.0164812,483.08,-0.059,-0.01425,0.98975,-0.32,-0.26,0.02,28650.0,-3070.0,-33470.0
32.764321,35.0164812,483.08,-0.056,0.0,1.01625,0.42,-0.48,0.04,28660.0,-3090.0,-33470.0
32.764321,35.0164812,483.08,-0.05525,0.03175,1.0055,0.58,0.42,0.0,28670.0,-3080.0,-33470.0
32.764321,35.0164812,483.08,-0.04625,0.0175,0.98375,-0.28,0.04,0.04,28680.0,-3060.0,-33480.0
32.764321,35.0164812,483.08,-0.04175,-0.009,1.00075,-0.36,-0.7,0.04,28720.0,-3120.0,-33480.0
32.764321,35.0164812,483.08,-0.049,0.014,1.00975,0.46,0.26,0.04,28760.0,-3130.0,-33480.0
32.764321,35.0164812,483.08,-0.05675,0.027,0.99125,0.2,0.8,0.02,28710.0,-3030.0,-33490.0
32.764321,35.0164811,483.08,-0.05925,0.00275,0.9955,-0.5,-0.24,-0.02,28680.0,-3040.0,-33500.0
32.764321,35.0164811,483.08,-0.05625,0.006,1.0165,0.02,-0.4,0.02,28690.0,-3090.0,-33490.0
32.764321,35.0164811,483.08,-0.059,0.021,0.999,0.32,0.38,0.04,28700.0,-3100.0,-33480.0
32.764321,35.0164811,483.08,-0.05,0.01025,0.9845,-0.28,0.02,0.0,28730.0,-3130.0,-33470.0
32.764321,35.0164811,483.08,-0.04075,-0.00075,1.007,-0.24,-0.76,-0.06,28700.0,-3120.0,-33470.0
32.764321,35.0164811,483.08,-0.047,0.024,1.007,0.38,0.22,-0.04,28690.0,-3120.0,-33470.0
32.764321,35.0164811,483.08,-0.0565,0.0235,0.988,-0.02,0.74,0.02,28740.0,-3200.0,-33460.0
32.764321,35.0164811,483.08,-0.063,-0.005,0.9955,-0.58,-0.22,0.0,28820.0,-3290.0,-33440.0
32.764321,35.0164811,483.08,-0.059,0.008,1.01825,0.14,-0.4,-0.02,28800.0,-3270.0,-33430.0
32.764321,35.0164811,483.08,-0.0575,0.03775,1.0025,0.3,0.26,-0.04,28790.0,-3260.0,-33440.0
32.764321,35.0164811,483.08,-0.05325,0.01725,0.98275,-0.66,0.04,0.1,28830.0,-3350.0,-33440.0
32.764321,35.0164811,483.08,-0.043,-0.0065,1.0005,-0.68,-0.82,0.0,28830.0,-3370.0,-33430.0
32.764321,35.0164811,483.08,-0.0495,0.01225,1.00325,0.2,0.02,-0.02,28830.0,-3340.0,-33440.0
32.764321,35.0164811,483.08,-0.054,0.027,0.98975,-0.12,0.66,0.04,28770.0,-3250.0,-33450.0
32.764321,35.0164811,483.08,-0.056,0.00675,0.9985,-0.82,-0.32,0.04,28710.0,-3160.0,-33460.0
32.764321,35.0164811,483.08,-0.06075,0.0085,1.02075,-0.34,-0.48,0.06,28690.0,-3120.0,-33470.0
32.764321,35.0164811,483.08,-0.05825,0.02175,1.00075,0.0,0.28,0.06,28700.0,-3130.0,-33480.0
32.764321,35.0164811,483.08,-0.05075,0.00275,0.977,-0.62,0.04,0.04,28720.0,-3120.0,-33480.0
32.764321,35.0164811,483.08,-0.038,-0.00625,1.004,-0.62,-0.64,-0.04,28740.0,-3150.0,-33490.0
32.764321,35.0164811,483.08,-0.04325,0.0165,1.01175,0.12,0.14,0.0,28780.0,-3200.0,-33490.0
32.764321,35.0164811,483.08,-0.0545,0.0075,0.98175,-0.36,0.74,-0.04,28810.0,-3230.0,-33510.0
32.764321,35.0164811,483.08,-0.05675,-0.0185,0.98725,-0.74,-0.08,0.0,28810.0,-3260.0,-33500.0
32.764321,35.0164811,483.08,-0.05875,-0.0035,1.0135,0.04,-0.44,0.0,28780.0,-3220.0,-33490.0
32.764321,35.0164811,483.08,-0.055,0.0235,1.0045,0.14,0.38,-0.02,28740.0,-3180.0,-33490.0
32.764321,35.0164811,483.08,-0.04825,0.00675,0.983,-0.66,-0.04,-0.04,28660.0,-3110.0,-33480.0
32.764321,35.0164811,483.08,-0.04425,-0.01275,0.997,-0.7,-0.72,0.0,28680.0,-3150.0,-33490.0
32.764321,35.0164811,483.08,-0.0475,0.007,1.005,0.12,0.02,0.02,28720.0,-3180.0,-33500.0
32.764321,35.0164811,483.08,-0.0545,0.0095,0.984,-0.08,0.58,0.0,28750.0,-3160.0,-33510.0
32.764321,35.0164811,483.08,-0.055,-0.00925,0.99575,-0.78,-0.16,0.0,28750.0,-3190.0,-33520.0
32.764321,35.0164811,483.08,-0.057,-0.00275,1.00975,-0.12,-0.28,0.06,28760.0,-3220.0,-33520.0
32.764321,35.0164811,483.08,-0.0585,0.00225,0.99075,0.08,0.3,-0.04,28730.0,-3180.0,-33520.0
32.764321,35.0164811,483.08,-0.049,-0.0155,0.98175,-0.48,0.02,0.04,28720.0,-3210.0,-33510.0
32.764321,35.0164811,483.08,-0.04275,-0.014,0.9975,-0.16,-0.66,0.06,28700.0,-3190.0,-33500.0
32.764321,35.0164811,483.08,-0.044,0.00775,0.99975,0.32,0.02,0.08,28660.0,-3120.0,-33490.0
32.764321,35.0164811,483.08,-0.0515,-0.00125,0.9785,-0.1,0.5,0.12,28620.0,-3110.0,-33480.0
32.764321,35.0164811,483.08,-0.0565,-0.0255,0.98775,-0.36,-0.18,0.04,28660.0,-3170.0,-33490.0
32.764321,35.0164811,483.08,-0.0555,-0.004,1.00775,0.46,-0.22,0.04,28660.0,-3170.0,-33480.0
32.764321,35.0164811,483.08,-0.0565,0.02125,0.9935,0.6,0.32,0.1,28670.0,-3190.0,-33480.0
32.764321,35.0164811,483.08,-0.04725,0.00025,0.98675,-0.32,-0.04,0.02,28680.0,-3160.0,-33470.0
32.764321,35.0164811,483.08,-0.04025,-0.01225,0.992,-0.06,-0.52,0.04,28650.0,-3130.0,-33480.0
32.764321,35.0164811,483.08,-0.0445,0.00575,0.99275,0.54,0.2,0.04,28710.0,-3210.0,-33500.0
32.764321,35.0164811,483.08,-0.05275,0.0135,0.9935,0.08,0.58,0.02,28700.0,-3200.0,-33490.0
32.764321,35.0164811,483.08,-0.058,-0.001,0.99775,-0.18,-0.2,0.06,28680.0,-3150.0,-33480.0
32.764321,35.0164811,483.08,-0.05525,0.006,1.0055,0.12,-0.14,0.04,28620.0,-3110.0,-33480.0
32.764321,35.0164811,483.08,-0.0595,0.02025,0.994,0.36,0.3,0.02,28670.0,-3180.0,-33470.0
32.764321,35.0164811,483.08,-0.05325,0.005,0.99325,-0.18,0.02,0.06,28710.0,-3210.0,-33470.0
32.764321,35.0164811,483.08,-0.039,0.0,1.0025,-0.08,-0.6,-0.06,28690.0,-3190.0,-33470.0
32.764321,35.0164811,483.08,-0.04375,0.024,1.00375,0.36,0.12,0.06,28690.0,-3200.0,-33480.0
32.764321,35.0164811,483.08,-0.057,0.0235,1.0015,-0.1,0.74,0.02,28690.0,-3200.0,-33470.0
32.764321,35.0164811,483.08,-0.0595,-0.00125,1.0,-0.4,-0.02,0.0,28710.0,-3190.0,-33480.0
32.764321,35.0164811,483.08,-0.0595,0.00725,1.01625,0.08,-0.4,-0.04,28700.0,-3180.0,-33480.0
32.764321,35.0164811,483.08,-0.057,0.0385,1.0135,0.26,0.32,-0.08,28700.0,-3160.0,-33480.0
32.764321,35.0164811,483.08,-0.055,0.02525,0.99575,-0.46,0.08,0.02,28650.0,-3110.0,-33480.0
32.764321,35.0164811,483.08,-0.04675,-0.0005,1.01125,-0.66,-0.44,-0.02,28650.0,-3130.0,-33470.0
32.764321,35.0164811,483.08,-0.05375,0.02075,1.01275,0.14,0.1,-0.08,28670.0,-3150.0,-33470.0
32.764321,35.0164811,483.08,-0.064,0.03175,1.003,-0.14,0.6,0.02,28660.0,-3120.0,-33470.0
32.764321,35.0164811,483.08,-0.0605,0.01175,1.006,-0.78,-0.22,-0.04,28670.0,-3140.0,-33480.0
32.764321,35.0164811,483.08,-0.0605,0.01125,1.01925,-0.44,-0.36,-0.02,28670.0,-3170.0,-33480.0
32.764321,35.0164811,483.08,-0.064,0.029,1.0115,-0.2,0.56,-0.06,28640.0,-3140.0,-33470.0
32.7643209,35.0164811,483.09,-0.05525,0.01875,0.9905,-0.72,-0.04,-0.02,28660.0,-3150.0,-33480.0
32.7643209,35.0164811,483.09,-0.042,0.00675,1.0145,-0.9,-0.8,-0.1,28680.0,-3170.0,-33490.0
32.7643209,35.0164811,483.09,-0.04425,0.0335,1.01825,-0.24,0.14,-0.04,28630.0,-3120.0,-33490.0
32.7643209,35.0164811,483.09,-0.05925,0.02925,0.9905,-0.76,0.74,0.0,28650.0,-3180.0,-33480.0
32.7643209,35.0164811,483.09,-0.05975,0.00175,0.9995,-1.28,-0.26,-0.02,28690.0,-3230.0,-33480.0
32.7643209,35.0164811,483.09,-0.05525,0.01675,1.01875,-0.58,-0.56,-0.06,28650.0,-3170.0,-33480.0
32.7643209,35.0164811,483.09,-0.056,0.0375,1.012,-0.54,0.48,-0.02,28580.0,-3100.0,-33480.0
32.7643209,35.0164811,483.09,-0.0495,0.01975,0.991,-1.4,0.06,0.02,28600.0,-3100.0,-33480.0
32.7643209,35.0164811,483.09,-0.041,-0.00025,1.0025,-1.32,-0.78,-0.02,28670.0,-3140.0,-33490.0
32.7643209,35.0164811,483.09,-0.04225,0.01675,1.00775,-0.62,0.1,-0.02,28720.0,-3190.0,-33510.0
32.7643209,35.0164811,483.09,-0.052,0.0215,0.993,-0.9,0.66,0.0,28710.0,-3200.0,-33520.0
32.7643209,35.0164811,483.09,-0.0555,0.00225,1.003,-1.52,-0.32,0.0,28690.0,-3160.0,-33520.0
32.7643209,35.0164811,483.09,-0.0535,0.00925,1.01025,-0.94,-0.38,-0.06,28680.0,-3130.0,-33520.0
32.7643209,35.0164811,483.09,-0.059,0.0125,0.9935,-0.84,0.38,0.06,28670.0,-3150.0,-33510.0
32.7643209,35.0164811,483.09,-0.04925,-0.0035,0.99325,-1.38,-0.08,0.04,28660.0,-3150.0,-33500.0
32.7643209,35.0164811,483.09,-0.03875,-0.002,1.001,-1.14,-0.8,0.04,28580.0,-3080.0,-33490.0
32.7643209,35.0164811,483.09,-0.0435,0.01225,0.993,-0.84,0.16,0.08,28570.0,-3080.0,-33500.0
32.7643209,35.0164811,483.09,-0.05325,-0.00075,0.985,-1.22,0.66,0.1,28640.0,-3170.0,-33510.0
32.7643209,35.0164811,483.09,-0.0575,-0.02375,0.99875,-1.34,-0.38,0.1,28660.0,-3170.0,-33500.0
32.7643209,35.0164811,483.09,-0.05525,-0.008,1.00275,-0.74,-0.36,0.0,28670.0,-3220.0,-33500.0
32.7643209,35.0164811,483.09,-0.057,0.009,0.9835,-0.62,0.26,0.06,28660.0,-3190.0,-33500.0
32.7643209,35.0164811,483.09,-0.05025,-0.01575,0.9855,-1.36,-0.16,0.12,28640.0,-3150.0,-33530.0
32.7643209,35.0164811,483.09,-0.04275,-0.02825,0.99325,-1.02,-0.62,0.08,28680.0,-3160.0,-33540.0
32.7643209,35.0164811,483.09,-0.051,-0.01175,0.9825,-0.44,0.2,0.18,28710.0,-3210.0,-33540.0
32.7643209,35.0164811,483.09,-0.0565,-0.01075,0.9815,-0.76,0.44,0.04,28670.0,-3180.0,-33540.0
32.7643209,35.0164811,483.09,-0.0555,-0.02475,0.99625,-0.9,-0.42,0.08,28640.0,-3190.0,-33530.0
32.7643209,35.0164811,483.09,-0.05725,-0.021,0.99275,-0.54,-0.22,0.06,28640.0,-3230.0,-33520.0
32.7643209,35.0164811,483.09,-0.0575,-0.01425,0.9735,-0.24,0.34,0.02,28640.0,-3180.0,-33520.0
32.7643209,35.0164811,483.09,-0.05075,-0.03,0.98275,-0.68,-0.26,-0.02,28600.0,-3170.0,-33510.0
32.7643209,35.0164811,483.09,-0.039,-0.02725,0.999,-0.46,-0.62,0.06,28590.0,-3190.0,-33510.0
32.7643209,35.0164811,483.09,-0.048,-0.007,0.97925,0.08,0.32,-0.02,28590.0,-3150.0,-33520.0
32.7643209,35.0164811,483.09,-0.05775,-0.02175,0.971,-0.3,0.48,-0.02,28630.0,-3190.0,-33520.0
32.7643209,35.0164811,483.09,-0.0555,-0.04275,0.99175,-0.42,-0.4,-0.06,28620.0,-3220.0,-33510.0
32.7643209,35.0164811,483.09,-0.05625,-0.02525,0.99575,0.32,-0.16,0.0,28590.0,-3180.0,-33510.0
32.7643209,35.0164811,483.09,-0.0545,-0.002,0.9795,0.44,0.32,-0.04,28600.0,-3160.0,-33510.0
32.7643209,35.0164811,483.09,-0.04475,-0.017,0.98275,-0.08,-0.3,-0.06,28590.0,-3180.0,-33510.0
32.7643209,35.0164811,483.09,-0.03875,-0.02975,0.9975,-0.02,-0.44,-0.02,28580.0,-3160.0,-33510.0
32.7643209,35.0164811,483.09,-0.044,-0.00975,0.98375,0.66,0.38,0.04,28550.0,-3110.0,-33510.0
32.7643209,35.0164811,483.09,-0.0545,-0.00575,0.98075,0.34,0.4,-0.02,28560.0,-3100.0,-33520.0
32.7643209,35.0164811,483.09,-0.05175,-0.0135,1.00675,-0.06,-0.36,0.0,28570.0,-3110.0,-33510.0
32.7643209,35.0164811,483.09,-0.052,0.0015,1.00625,0.46,-0.16,0.02,28550.0,-3090.0,-33520.0
32.7643209,35.0164811,483.09,-0.05525,0.00725,0.99,0.36,0.42,-0.02,28610.0,-3160.0,-33530.0
32.7643209,35.0164811,483.09,-0.0445,-0.00525,0.993,0.02,-0.26,-0.02,28650.0,-3210.0,-33530.0
32.7643209,35.0164811,483.09,-0.03625,-0.004,1.00925,0.32,-0.58,0.12,28610.0,-3180.0,-33520.0
32.7643209,35.0164811,483.09,-0.04175,0.018,1.001,0.54,0.36,0.0,28590.0,-3190.0,-33520.0
32.7643209,35.0164811,483.09,-0.05675,0.01175,0.9885,0.2,0.58,0.1,28580.0,-3190.0,-33510.0
32.7643209,35.0164811,483.09,-0.05725,-0.013,1.0065,-0.2,-0.36,0.04,28540.0,-3130.0,-33500.0
32.7643209,35.0164811,483.09,-0.0545,0.005,1.0165,0.54,-0.22,0.02,28590.0,-3190.0,-33510.0
32.7643209,35.0164811,483.09,-0.0585,0.027,0.995,0.58,0.42,0.06,28610.0,-3210.0,-33510.0
32.7643209,35.0164811,483.09,-0.046,0.01075,0.995,-0.14,-0.16,0.02,28600.0,-3160.0,-33520.0
32.7643209,35.0164811,483.09,-0.039,-0.0035,1.0075,0.06,-0.6,-0.02,28630.0,-3190.0,-33530.0
32.7643209,35.0164811,483.09,-0.0495,0.01725,1.001,0.6,0.46,0.02,28620.0,-3210.0,-33540.0
32.7643209,35.0164811,483.09,-0.06175,0.02375,0.99075,0.28,0.56,0.0,28620.0,-3180.0,-33530.0
32.7643209,35.0164811,483.09,-0.061,0.0045,1.0065,-0.2,-0.44,0.04,28670.0,-3270.0,-33500.0
32.7643209,35.0164811,483.09,-0.05625,0.01225,1.0135,0.34,-0.16,0.0,28730.0,-3390.0,-33480.0
32.7643209,35.0164811,483.09,-0.0615,0.02525,0.9895,0.38,0.64,-0.02,28740.0,-3400.0,-33470.0
32.7643209,35.0164811,483.09,-0.0525,0.0075,0.99075,-0.3,-0.16,0.02,28770.0,-3470.0,-33460.0
32.7643209,35.0164811,483.09,-0.04075,0.0045,1.0095,-0.08,-0.74,-0.02,28800.0,-3480.0,-33460.0
32.7643209,35.0164811,483.09,-0.04825,0.02375,1.002,0.4,0.36,0.04,28770.0,-3430.0,-33460.0
32.7643209,35.0164811,483.09,-0.06175,0.0135,0.98275,-0.26,0.78,0.02,28720.0,-3390.0,-33480.0
32.7643209,35.0164811,483.09,-0.06375,-0.01075,0.99625,-0.5,-0.44,0.02,28720.0,-3390.0,-33490.0
32.7643209,35.0164811,483.09,-0.05825,0.0015,1.011,0.12,-0.28,0.06,28710.0,-3370.0,-33520.0
32.7643209,35.0164811,483.09,-0.05525,0.023,0.99375,0.24,0.4,0.02,28620.0,-3250.0,-33520.0
32.7643209,35.0164811,483.09,-0.0525,0.004,0.9875,-0.54,-0.06,0.0,28610.0,-3230.0,-33520.0
32.7643209,35.0164811,483.09,-0.039,-0.013,0.99925,-0.36,-0.62,0.02,28620.0,-3270.0,-33520.0
32.7643209,35.0164811,483.09,-0.048,0.00225,0.99175,0.22,0.2,0.04,28590.0,-3250.0,-33510.0
32.7643209,35.0164811,483.09,-0.05725,0.00525,0.988,-0.04,0.62,-0.02,28600.0,-3260.0,-33510.0
32.7643209,35.0164811,483.09,-0.0565,-0.00675,0.99725,-0.38,-0.34,-0.02,28610.0,-3240.0,-33510.0
32.7643209,35.0164811,483.09,-0.05675,-0.005,1.00875,-0.02,-0.32,0.04,28600.0,-3250.0,-33510.0
32.7643209,35.0164811,483.09,-0.0555,0.00825,0.99525,0.06,0.5,0.06,28640.0,-3320.0,-33510.0
32.7643209,35.0164811,483.09,-0.04825,-0.0065,0.98275,-0.28,-0.26,0.02,28670.0,-3360.0,-33520.0
32.7643209,35.0164811,483.09,-0.035,-0.01525,1.003,-0.3,-0.72,-0.06,28610.0,-3240.0,-33520.0
32.7643209,35.0164811,483.09,-0.04,0.00775,1.00325,0.34,0.3,0.02,28560.0,-3190.0,-33520.0
32.7643209,35.0164811,483.09,-0.0565,0.00275,0.9865,-0.12,0.64,0.06,28610.0,-3270.0,-33510.0
32.7643209,35.0164811,483.09,-0.0575,-0.01925,0.9975,-0.48,-0.28,-0.06,28590.0,-3270.0,-33500.0
32.7643209,35.0164811,483.09,-0.0545,-0.00775,1.01325,0.16,-0.34,0.0,28590.0,-3280.0,-33500.0
32.7643209,35.0164811,483.09,-0.0535,0.01525,1.00125,0.3,0.44,0.0,28610.0,-3290.0,-33510.0
32.7643209,35.0164811,483.09,-0.04725,-0.001,0.985,-0.28,-0.1,0.0,28600.0,-3280.0,-33510.0
32.7643209,35.0164811,483.09,-0.04,-0.02275,1.001,-0.32,-0.6,-0.04,28590.0,-3270.0,-33510.0
32.7643209,35.0164811,483.09,-0.04525,0.00325,1.0075,0.52,0.32,-0.02,28570.0,-3280.0,-33500.0
32.7643209,35.0164811,483.1,-0.06025,0.0145,0.98775,0.16,0.76,0.02,28540.0,-3190.0,-33500.0
32.7643209,35.0164811,483.1,-0.05975,-0.01,0.9955,-0.56,-0.24,0.02,28570.0,-3200.0,-33520.0
32.7643209,35.0164811,483.1,-0.05475,-0.00675,1.01125,0.2,-0.4,0.02,28580.0,-3220.0,-33510.0
32.7643209,35.0164811,483.1,-0.061,0.009,0.998,0.3,0.52,0.04,28580.0,-3230.0,-33500.0
32.7643209,35.0164811,483.1,-0.0535,-0.00025,0.984,-0.3,0.08,-0.02,28570.0,-3210.0,-33500.0
32.7643209,35.0164811,483.1,-0.04125,-0.01025,1.0005,-0.2,-0.9,0.04,28520.0,-3180.0,-33500.0
32.7643209,35.0164811,483.1,-0.044,0.011,1.00775,0.3,0.22,0.0,28520.0,-3160.0,-33500.0
32.7643209,35.0164811,483.1,-0.05975,0.0115,0.98175,0.04,0.88,0.02,28540.0,-3130.0,-33510.0
32.7643209,35.0164811,483.1,-0.064,-0.0185,0.9865,-0.46,-0.24,0.02,28570.0,-3170.0,-33510.0
32.7643209,35.0164811,483.1,-0.0555,-0.00625,1.0155,0.24,-0.64,-0.04,28580.0,-3160.0,-33510.0
32.7643209,35.0164811,483.1,-0.0575,0.02575,1.00325,0.54,0.34,0.08,28570.0,-3050.0,-33520.0
32.7643209,35.0164811,483.1,-0.051,0.01225,0.9825,-0.36,0.12,0.0,28590.0,-3110.0,-33530.0
32.7643209,35.0164811,483.1,-0.04175,-0.014,0.9955,-0.36,-0.8,0.02,28630.0,-3200.0,-33530.0
32.7643209,35.0164811,483.1,-0.04625,0.00275,1.00575,0.38,0.16,0.02,28650.0,-3220.0,-33530.0
32.7643209,35.0164811,483.1,-0.0545,0.02025,0.9915,0.22,0.76,0.02,28680.0,-3270.0,-33540.0
32.7643209,35.0164811,483.1,-0.058,0.00125,0.9915,-0.5,-0.34,-0.02,28670.0,-3280.0,-33520.0
32.7643209,35.0164811,483.1,-0.05275,-0.0005,1.01475,-0.08,-0.46,0.02,28690.0,-3270.0,-33520.0
32.7643209,35.0164811,483.1,-0.056,0.01725,1.0005,0.36,0.48,0.04,28720.0,-3290.0,-33530.0
32.7643209,35.0164811,483.1,-0.05275,0.0025,0.983,-0.38,0.1,0.02,28720.0,-3300.0,-33530.0
32.7643209,35.0164811,483.1,-0.03775,-0.01025,1.0005,-0.28,-0.88,-0.06,28680.0,-3270.0,-33510.0
32.7643209,35.0164811,483.1,-0.0415,0.012,1.00675,0.38,0.06,-0.06,28680.0,-3290.0,-33510.0
32.7643209,35.0164811,483.1,-0.05575,0.014,0.99225,-0.08,0.96,0.0,28700.0,-3290.0,-33530.0
32.7643209,35.0164811,483.1,-0.059,-0.01675,0.98875,-0.52,-0.18,0.02,28670.0,-3250.0,-33520.0
32.7643209,35.0164811,483.1,-0.054,-0.0125,1.012,0.06,-0.7,-0.04,28670.0,-3230.0,-33510.0
32.7643209,35.0164811,483.1,-0.05075,0.02225,1.008,0.46,0.36,0.0,28660.0,-3210.0,-33510.0
32.7643209,35.0164811,483.1,-0.05075,0.00825,0.983,-0.32,0.22,0.04,28650.0,-3180.0,-33510.0
32.7643209,35.0164811,483.1,-0.04225,-0.01975,0.997,-0.52,-0.66,-0.04,28670.0,-3220.0,-33510.0
32.7643209,35.0164811,483.1,-0.048,-0.002,1.00625,0.38,0.06,-0.04,28670.0,-3240.0,-33510.0
32.7643209,35.0164811,483.1,-0.059,0.0125,0.99275,0.16,0.78,0.0,28650.0,-3210.0,-33510.0
32.7643209,35.0164811,483.1,-0.05725,-0.00575,0.99425,-0.46,-0.3,-0.02,28570.0,-3120.0,-33500.0
32.7643209,35.0164811,483.1,-0.05475,-0.00925,1.0125,-0.08,-0.58,0.0,28570.0,-3130.0,-33510.0
32.7643209,35.0164811,483.1,-0.0565,0.00875,1.001,0.32,0.54,0.0,28580.0,-3100.0,-33510.0
32.7643209,35.0164811,483.1,-0.05275,-0.00425,0.98125,-0.3,0.14,0.08,28600.0,-3130.0,-33510.0
32.7643209,35.0164811,483.1,-0.042,-0.0175,1.003,-0.34,-0.8,0.02,28650.0,-3170.0,-33510.0
32.7643209,35.0164811,483.1,-0.04325,0.00725,1.009,0.38,0.1,0.04,28640.0,-3150.0,-33510.0
32.7643209,35.0164811,483.1,-0.0605,0.009,0.98225,0.04,0.86,0.02,28560.0,-3060.0,-33500.0
32.7643209,35.0164811,483.1,-0.06075,-0.0195,0.9885,-0.52,-0.2,0.02,28570.0,-3100.0,-33510.0
32.7643209,35.0164811,483.1,-0.056,-0.015,1.0145,0.18,-0.6,-0.04,28600.0,-3150.0,-33520.0
32.7643209,35.0164811,483.1,-0.057,0.016,1.0025,0.54,0.5,0.0,28590.0,-3110.0,-33510.0
32.7643209,35.0164811,483.1,-0.04975,0.00975,0.9795,-0.14,0.14,-0.02,28620.0,-3160.0,-33510.0
32.7643209,35.0164811,483.1,-0.04175,-0.01775,0.99775,-0.4,-0.8,0.02,28620.0,-3170.0,-33510.0
32.7643209,35.0164811,483.1,-0.04125,-0.001,1.00625,0.44,0.14,0.06,28620.0,-3140.0,-33530.0
32.7643209,35.0164811,483.1,-0.05625,0.0155,0.98625,0.34,0.8,0.02,28670.0,-3180.0,-33540.0
32.7643209,35.0164811,483.1,-0.05925,-0.00175,0.996,-0.4,-0.12,0.02,28680.0,-3190.0,-33550.0
32.7643209,35.0164811,483.1,-0.05225,-0.00275,1.01325,0.04,-0.52,0.0,28660.0,-3180.0,-33530.0
32.7643209,35.0164811,483.1,-0.05675,0.011,0.9985,0.26,0.4,0.04,28650.0,-3240.0,-33520.0
32.7643209,35.0164811,483.1,-0.05325,0.005,0.98475,-0.1,0.28,0.06,28650.0,-3260.0,-33520.0
32.7643209,35.0164811,483.1,-0.0405,-0.01075,0.996,-0.14,-0.76,-0.04,28600.0,-3200.0,-33510.0
32.7643209,35.0164811,483.1,-0.0375,0.0045,1.0075,0.3,-0.1,-0.04,28590.0,-3180.0,-33510.0
32.7643209,35.0164811,483.1,-0.0525,0.01825,0.99275,0.2,0.92,0.02,28610.0,-3250.0,-33510.0
32.7643209,35.0164811,483.1,-0.06275,-0.0085,0.98925,-0.36,0.1,0.02,28620.0,-3240.0,-33510.0
32.7643209,35.0164811,483.1,-0.0545,-0.0145,1.00775,0.0,-0.64,0.02,28640.0,-3250.0,-33530.0
32.7643209,35.0164811,483.1,-0.0535,0.017,1.0055,0.6,0.18,0.02,28670.0,-3260.0,-33530.0
32.7643209,35.0164811,483.1,-0.05425,0.019,0.992,-0.02,0.48,-0.04,28670.0,-3230.0,-33530.0
32.7643209,35.0164811,483.1,-0.04525,-0.008,0.99025,-0.42,-0.46,0.04,28660.0,-3240.0,-33540.0
32.7643209,35.0164811,483.1,-0.0445,-0.0065,1.00175,0.08,-0.34,0.02,28640.0,-3270.0,-33520.0
32.7643209,35.0164811,483.1,-0.055,0.01825,1.0015,0.38,0.8,0.02,28620.0,-3260.0,-33510.0
32.7643209,35.0164811,483.1,-0.061,0.0095,0.9915,-0.16,0.1,0.04,28560.0,-3180.0,-33510.0
32.7643209,35.0164811,483.1,-0.056,-0.00675,1.00475,-0.3,-0.66,-0.06,28540.0,-3180.0,-33510.0
32.7643209,35.0164811,483.1,-0.05225,0.01275,1.0065,0.3,0.1,-0.02,28570.0,-3220.0,-33510.0
32.7643209,35.0164811,483.1,-0.058,0.01175,0.99075,0.0,0.54,0.02,28600.0,-3270.0,-33520.0
32.7643209,35.0164811,483.1,-0.04625,-0.008,0.991,-0.4,-0.46,-0.08,28620.0,-3290.0,-33530.0
32.7643209,35.0164811,483.1,-0.0405,0.0005,1.00325,0.14,-0.56,0.0,28610.0,-3280.0,-33520.0
32.7643209,35.0164811,483.1,-0.05225,0.0165,0.999,0.22,0.72,0.0,28580.0,-3240.0,-33510.0
32.7643209,35.0164811,483.1,-0.0615,-0.00025,0.98775,-0.4,0.42,-0.04,28600.0,-3250.0,-33510.0
32.7643209,35.0164811,483.1,-0.05925,-0.02125,0.99775,-0.36,-0.62,-0.02,28600.0,-3290.0,-33500.0
32.7643209,35.0164811,483.1,-0.049,0.00675,1.0085,0.44,-0.16,-0.04,28540.0,-3200.0,-33500.0
32.7643209,35.0164811,483.1,-0.052,0.02075,0.9915,0.16,0.48,-0.04,28500.0,-3200.0,-33500.0
32.7643209,35.0164811,483.1,-0.046,-0.011,0.9855,-0.6,-0.22,0.04,28580.0,-3290.0,-33510.0
32.7643209,35.0164811,483.1,-0.04275,-0.0185,0.99925,-0.06,-0.54,-0.02,28590.0,-3310.0,-33510.0
32.7643209,35.0164811,483.1,-0.0535,0.005,0.99475,0.5,0.48,-0.04,28640.0,-3350.0,-33510.0
32.7643209,35.0164811,483.1,-0.05925,0.00725,0.9915,0.0,0.46,0.0,28620.0,-3330.0,-33510.0
32.7643209,35.0164811,483.1,-0.056,-0.0135,0.999,-0.36,-0.6,0.02,28590.0,-3260.0,-33500.0
32.7643209,35.0164811,483.1,-0.05225,-0.008,1.00475,0.24,-0.14,-0.06,28600.0,-3260.0,-33510.0
32.7643209,35.0164811,483.1,-0.05525,0.007,0.9875,0.34,0.5,0.0,28610.0,-3270.0,-33500.0
32.7643209,35.0164811,483.1,-0.0505,-0.011,0.98775,-0.26,-0.24,0.04,28580.0,-3250.0,-33500.0
32.7643209,35.0164811,483.1,-0.039,-0.01625,1.00175,0.0,-0.68,0.04,28590.0,-3250.0,-33500.0
32.7643209,35.0164811,483.1,-0.0475,0.00175,0.99325,0.5,0.36,0.08,28580.0,-3260.0,-33510.0
32.7643209,35.0164811,483.1,-0.06075,-0.00725,0.9825,-0.08,0.64,0.06,28580.0,-3240.0,-33500.0
32.7643209,35.0164811,483.1,-0.0575,-0.03325,0.992,-0.08,-0.52,0.04,28600.0,-3290.0,-33490.0
32.7643209,35.0164811,483.1,-0.055,-0.0215,1.00375,0.62,-0.4,0.02,28670.0,-3360.0,-33480.0
32.7643209,35.0164811,483.1,-0.05125,0.004,0.98475,0.78,0.44,0.04,28730.0,-3410.0,-33490.0
32.7643209,35.0164811,483.1,-0.0455,-0.01925,0.97075,0.08,-0.18,0.1,28780.0,-3470.0,-33470.0
32.7643209,35.0164811,483.1,-0.03775,-0.04275,0.98925,0.36,-0.72,0.04,28810.0,-3490.0,-33460.0
32.7643209,35.0164811,483.1,-0.04675,-0.023,0.98425,1.2,0.26,0.08,28790.0,-3450.0,-33470.0
32.7643209,35.0164811,483.1,-0.05475,-0.01025,0.96925,1.04,0.48,0.06,28690.0,-3260.0,-33480.0
32.7643209,35.0164811,483.1,-0.04525,-0.031,0.98575,0.6,-0.52,0.04,28630.0,-3250.0,-33490.0
32.7643209,35.0164811,483.1,-0.04375,-0.02825,0.99425,1.2,-0.34,0.14,28640.0,-3240.0,-33490.0
32.7643209,35.0164811,483.1,-0.0485,-0.015,0.9745,1.54,0.6,0.14,28610.0,-3200.0,-33490.0
32.7643209,35.0164811,483.1,-0.04,-0.019,0.96575,1.06,-0.18,0.18,28600.0,-3200.0,-33490.0
32.7643209,35.0164811,483.1,-0.02775,-0.026,1.00225,1.08,-0.82,0.16,28580.0,-3150.0,-33500.0
32.7643209,35.0164811,483.1,-0.034,-0.00075,0.99425,1.82,0.46,0.18,28600.0,-3110.0,-33510.0
32.7643209,35.0164811,483.1,-0.053,0.0035,0.972,1.42,0.96,0.2,28660.0,-3190.0,-33520.0
32.7643209,35.0164811,483.1,-0.05225,-0.02125,0.99125,0.86,-0.3,0.1,28730.0,-3230.0,-33520.0
32.7643209,35.0164811,483.1,-0.04625,-0.01075,1.0185,1.66,-0.32,0.1,28720.0,-3180.0,-33520.0
32.7643209,35.0164811,483.1,-0.0535,0.02075,0.997,1.86,0.84,0.08,28720.0,-3170.0,-33520.0
32.7643209,35.0164811,483.1,-0.04925,0.02075,0.98575,1.04,0.34,0.1,28720.0,-3180.0,-33510.0
32.7643209,35.0164811,483.1,-0.043,-0.00825,1.009,0.92,-0.48,-0.08,28700.0,-3130.0,-33500.0
32.7643209,35.0164811,483.1,-0.0465,0.007,1.0105,1.48,0.5,0.02,28720.0,-3150.0,-33490.0
32.7643209,35.0164811,483.1,-0.06375,0.03175,0.996,1.56,1.04,-0.04,28730.0,-3130.0,-33480.0
32.7643209,35.0164811,483.1,-0.064,0.024,1.00625,0.82,0.04,-0.16,28700.0,-3080.0,-33490.0
32.7643209,35.0164811,483.1,-0.0565,0.02075,1.02925,0.94,-0.22,-0.14,28690.0,-3060.0,-33500.0
32.7643209,35.0164811,483.1,-0.063,0.03525,1.00625,1.32,0.74,-0.18,28720.0,-3120.0,-33500.0
32.7643209,35.0164811,483.1,-0.061,0.03475,0.99825,0.74,0.52,-0.18,28730.0,-3120.0,-33480.0
32.7643209,35.0164811,483.1,-0.049,0.02775,1.02075,0.5,-0.52,-0.2,28720.0,-3080.0,-33480.0
32.7643209,35.0164811,483.1,-0.047,0.04325,1.0245,0.9,0.18,-0.16,28730.0,-3100.0,-33480.0
32.7643209,35.0164811,483.1,-0.063,0.053,1.0005,0.68,1.04,-0.08,28730.0,-3060.0,-33480.0
32.7643209,35.0164811,483.1,-0.069,0.02975,1.00875,0.02,0.18,-0.1,28750.0,-3110.0,-33480.0
32.7643209,35.0164811,483.1,-0.06275,0.02175,1.035,0.28,-0.4,-0.18,28770.0,-3120.0,-33480.0
32.7643209,35.0164811,483.1,-0.05925,0.0525,1.0175,0.74,0.34,-0.06,28730.0,-3080.0,-33470.0
32.7643209,35.0164811,483.1,-0.06275,0.0555,1.0015,0.04,0.44,-0.02,28680.0,-2990.0,-33480.0
32.7643209,35.0164811,483.1,-0.0505,0.0265,1.014,-0.46,-0.44,0.0,28720.0,-3070.0,-33490.0
32.7643209,35.0164811,483.1,-0.05075,0.0225,1.02,-0.02,-0.18,0.0,28770.0,-3120.0,-33480.0
32.7643209,35.0164811,483.1,-0.06175,0.04425,0.9975,0.2,0.66,0.1,28730.0,-3080.0,-33480.0
32.7643209,35.0164811,483.1,-0.0625,0.0365,1.00025,-0.34,0.1,0.02,28720.0,-3080.0,-33470.0
32.7643209,35.0164811,483.1,-0.06025,0.0145,1.02075,-0.48,-0.56,0.18,28730.0,-3080.0,-33470.0
32.7643209,35.0164811,483.1,-0.0585,0.02425,1.0045,0.02,0.18,0.14,28730.0,-3050.0,-33480.0
32.7643209,35.0164811,483.1,-0.068,0.02675,0.978,-0.14,0.3,0.2,28760.0,-3100.0,-33480.0
32.7643209,35.0164811,483.1,-0.048,0.00575,0.99825,-0.7,-0.62,0.1,28740.0,-3120.0,-33480.0
32.7643209,35.0164811,483.1,-0.03975,0.00375,1.00875,-0.18,-0.58,0.2,28750.0,-3170.0,-33470.0
32.764321,35.0164811,483.09,-0.05075,0.02325,0.982,-0.06,0.58,0.08,28780.0,-3220.0,-33480.0
32.764321,35.0164811,483.09,-0.061,0.01175,0.97575,-0.56,0.28,0.1,28810.0,-3240.0,-33490.0
32.764321,35.0164811,483.09,-0.056,-0.017,1.0015,-0.62,-0.76,0.04,28760.0,-3160.0,-33490.0
32.764321,35.0164811,483.09,-0.05075,-0.00325,1.012,-0.1,-0.16,0.02,28680.0,-3090.0,-33480.0
32.764321,35.0164811,483.09,-0.05575,0.02675,0.9745,0.02,0.46,0.0,28660.0,-3090.0,-33480.0
32.764321,35.0164811,483.09,-0.0455,-0.00075,0.9805,-0.88,-0.36,-0.1,28690.0,-3140.0,-33470.0
32.764321,35.0164811,483.09,-0.03625,-0.02825,1.00825,-0.64,-0.56,-0.08,28720.0,-3220.0,-33470.0
32.764321,35.0164811,483.09,-0.045,-0.00775,0.9955,0.1,0.54,-0.06,28710.0,-3200.0,-33470.0
32.764321,35.0164811,483.09,-0.057,0.00375,0.9795,-0.24,0.56,-0.2,28680.0,-3110.0,-33470.0
32.764321,35.0164811,483.09,-0.04725,-0.0175,1.003,-0.78,-0.6,-0.2,28630.0,-3080.0,-33470.0
32.764321,35.0164811,483.09,-0.046,-0.02475,1.01725,-0.36,-0.12,-0.14,28650.0,-3140.0,-33480.0
32.764321,35.0164811,483.09,-0.0525,-0.00575,0.9825,0.16,0.78,-0.14,28670.0,-3180.0,-33480.0
32.764321,35.0164811,483.09,-0.05325,-0.01525,0.98275,-0.42,-0.04,-0.16,28620.0,-3090.0,-33470.0
32.764321,35.0164811,483.09,-0.035,-0.023,1.01475,-0.42,-0.72,-0.16,28620.0,-3120.0,-33490.0
32.764321,35.0164811,483.09,-0.03825,-0.00275,1.0085,0.22,0.28,-0.12,28690.0,-3180.0,-33500.0
32.764321,35.0164811,483.09,-0.05975,0.00025,0.9775,-0.06,0.9,-0.12,28740.0,-3220.0,-33510.0
32.764321,35.0164811,483.09,-0.058,-0.0215,0.99975,-0.4,-0.16,-0.08,28750.0,-3240.0,-33510.0
32.764321,35.0164811,483.09,-0.053,-0.01825,1.02225,0.22,-0.46,-0.06,28730.0,-3230.0,-33510.0
32.764321,35.0164811,483.09,-0.052,0.01375,1.001,0.62,0.56,0.0,28690.0,-3220.0,-33500.0
32.764321,35.0164811,483.09,-0.0585,0.013,0.98325,0.02,0.3,0.0,28690.0,-3260.0,-33490.0
32.764321,35.0164811,483.09,-0.0485,-0.0105,1.006,-0.24,-0.54,0.06,28690.0,-3230.0,-33480.0
32.7643209,35.0164811,483.09,-0.04825,-0.00075,1.00975,0.38,-0.04,0.04,28720.0,-3210.0,-33500.0
32.7643209,35.0164811,483.09,-0.06475,0.022,0.98725,0.56,0.7,0.08,28740.0,-3220.0,-33520.0
32.7643209,35.0164811,483.09,-0.066,0.0185,0.99625,-0.04,0.04,0.06,28760.0,-3260.0,-33510.0
32.7643209,35.0164811,483.09,-0.05875,0.00875,1.011,0.04,-0.54,0.06,28700.0,-3210.0,-33500.0
32.7643209,35.0164811,483.09,-0.06,0.02,1.00125,0.26,0.24,0.08,28660.0,-3210.0,-33490.0
32.7643209,35.0164811,483.09,-0.0645,0.02975,0.97975,0.24,0.48,0.08,28660.0,-3230.0,-33480.0
32.7643209,35.0164811,483.09,-0.054,0.013,0.992,-0.14,-0.64,0.02,28630.0,-3170.0,-33470.0
32.7643209,35.0164811,483.09,-0.0405,0.0135,1.005,0.02,-0.5,-0.02,28660.0,-3230.0,-33480.0
32.7643209,35.0164811,483.09,-0.052,0.03325,0.98825,0.28,0.54,0.12,28720.0,-3300.0,-33480.0
32.7643209,35.0164811,483.09,-0.06675,0.0215,0.9775,-0.22,0.4,0.04,28710.0,-3250.0,-33480.0
32.7643209,35.0164811,483.09,-0.057,-0.0045,0.9955,-0.3,-0.64,-0.06,28680.0,-3230.0,-33480.0
32.7643209,35.0164811,483.09,-0.0495,0.00575,1.0035,0.24,-0.36,-0.06,28650.0,-3230.0,-33470.0
32.7643209,35.0164811,483.09,-0.05325,0.03225,0.98775,0.26,0.56,0.02,28630.0,-3190.0,-33470.0
32.7643209,35.0164811,483.09,-0.0475,0.00525,0.97375,-0.38,-0.1,-0.1,28630.0,-3190.0,-33470.0
32.7643209,35.0164811,483.09,-0.0355,-0.02725,0.9845,-0.42,-0.68,-0.1,28630.0,-3190.0,-33470.0
32.7643209,35.0164811,483.09,-0.0415,-0.0085,0.9915,0.52,0.24,-0.02,28630.0,-3190.0,-33470.0
32.7643209,35.0164811,483.09,-0.05675,0.0095,0.97825,0.44,0.72,0.02,28590.0,-3080.0,-33470.0
32.7643209,35.0164811,483.09,-0.05175,-0.014,0.982,-0.2,-0.46,-0.1,28620.0,-3130.0,-33480.0
32.7643209,35.0164811,483.09,-0.04875,-0.02725,0.99975,0.12,-0.6,-0.02,28660.0,-3190.0,-33470.0
32.7643209,35.0164811,483.1,-0.054,-0.012,0.9815,0.78,0.62,0.02,28660.0,-3180.0,-33480.0
32.7643209,35.0164811,483.1,-0.05175,-0.01675,0.9685,0.36,0.08,0.1,28680.0,-3190.0,-33490.0
32.7643209,35.0164811,483.1,-0.038,-0.033,0.988,0.18,-0.86,0.04,28680.0,-3170.0,-33490.0
32.7643209,35.0164811,483.1,-0.039,-0.01275,0.9935,0.88,0.12,0.1,28620.0,-3110.0,-33480.0
32.7643209,35.0164811,483.1,-0.05525,0.00075,0.971,0.96,0.78,0.06,28640.0,-3120.0,-33470.0
32.7643209,35.0164811,483.1,-0.06075,-0.0115,0.99125,0.28,-0.22,0.12,28630.0,-3130.0,-33470.0
32.7643209,35.0164811,483.1,-0.05,0.0115,1.03,0.7,-0.72,0.06,28620.0,-3060.0,-33460.0
32.7643209,35.0164811,483.1,-0.0565,0.05625,1.0215,0.96,0.28,0.0,28630.0,-3090.0,-33470.0
32.7643209,35.0164811,483.1,-0.0555,0.06925,0.999,0.02,0.44,0.02,28660.0,-3120.0,-33470.0
32.7643209,35.0164811,483.1,-0.04725,0.0485,1.03375,-0.66,-0.62,-0.06,28650.0,-3080.0,-33460.0
32.7643209,35.0164811,483.1,-0.04675,0.0535,1.04225,-0.28,-0.12,-0.04,28670.0,-3100.0,-33470.0
32.7643209,35.0164811,483.1,-0.058,0.062,1.02125,-0.38,0.7,-0.1,28720.0,-3150.0,-33470.0
32.7643209,35.0164811,483.1,-0.067,0.0395,1.0155,-1.18,0.04,-0.12,28680.0,-3130.0,-33460.0
32.7643209,35.0164811,483.1,-0.05975,0.016,1.03425,-1.14,-0.54,-0.2,28670.0,-3130.0,-33460.0
32.7643209,35.0164811,483.1,-0.06325,0.015,1.0125,-0.64,0.14,-0.18,28690.0,-3130.0,-33480.0
32.7643209,35.0164811,483.1,-0.06225,-0.0035,0.99375,-0.78,0.3,-0.26,28690.0,-3090.0,-33490.0
32.7643209,35.0164811,483.1,-0.0535,-0.024,1.006,-0.74,-0.6,-0.28,28750.0,-3170.0,-33500.0
32.7643209,35.0164811,483.1,-0.046,-0.01725,1.0055,-0.02,-0.42,-0.2,28790.0,-3190.0,-33510.0
32.7643209,35.0164811,483.1,-0.055,-0.00575,0.989,0.2,0.44,-0.22,28770.0,-3130.0,-33490.0
32.7643209,35.0164811,483.1,-0.0635,-0.018,0.99325,0.06,0.22,-0.1,28660.0,-3050.0,-33480.0
32.7643209,35.0164812,483.09,-0.0565,-0.02525,1.016,0.18,-0.46,-0.1,28670.0,-3070.0,-33480.0
32.7643209,35.0164812,483.09,-0.0505,0.00475,0.99825,0.74,-0.1,-0.02,28760.0,-3130.0,-33490.0
32.7643209,35.0164812,483.09,-0.053,0.02175,0.986,0.5,0.28,0.02,28790.0,-3150.0,-33490.0
32.7643209,35.0164812,483.09,-0.0465,0.00725,1.0025,-0.1,-0.1,0.26,28780.0,-3180.0,-33490.0
32.7643209,35.0164812,483.09,-0.04275,0.00175,1.0075,0.0,-0.26,0.3,28750.0,-3210.0,-33470.0
32.7643209,35.0164812,483.09,-0.05075,0.0185,0.9885,0.14,0.28,0.3,28820.0,-3330.0,-33450.0
32.7643209,35.0164812,483.09,-0.05725,0.02425,0.998,-0.18,0.4,0.28,28840.0,-3420.0,-33440.0
32.7643209,35.0164812,483.09,-0.057,0.00925,1.01625,-0.7,-0.2,0.38,28880.0,-3470.0,-33430.0
32.7643209,35.0164812,483.09,-0.0525,0.01325,1.0015,-0.48,-0.04,0.3,28870.0,-3440.0,-33430.0
32.7643209,35.0164812,483.09,-0.05825,0.0185,0.98575,-0.34,0.24,0.16,28880.0,-3470.0,-33430.0
32.7643209,35.0164812,483.09,-0.0495,0.008,1.002,-0.64,0.04,0.12,28870.0,-3450.0,-33440.0
32.7643209,35.0164812,483.09,-0.0395,0.00275,1.015,-0.62,-0.3,0.04,28850.0,-3410.0,-33470.0
32.7643209,35.0164812,483.09,-0.04675,0.0135,0.98725,-0.24,0.14,0.08,28820.0,-3350.0,-33470.0
32.7643209,35.0164812,483.09,-0.0575,0.016,0.988,-0.4,0.52,-0.1,28750.0,-3300.0,-33470.0
32.7643209,35.0164812,483.09,-0.06125,-0.00375,1.0085,-0.6,-0.14,-0.18,28700.0,-3260.0,-33470.0
32.7643209,35.0164812,483.09,-0.05425,-0.003,1.01125,-0.34,-0.2,-0.28,28700.0,-3270.0,-33470.0
32.7643209,35.0164812,483.09,-0.05525,0.018,0.982,0.06,0.0,-0.26,28720.0,-3270.0,-33480.0
32.7643209,35.0164812,483.09,-0.051,0.00925,0.98375,-0.36,0.04,-0.3,28710.0,-3240.0,-33480.0
32.7643209,35.0164812,483.09,-0.04325,-0.0155,1.00725,-0.58,-0.28,-0.34,28700.0,-3220.0,-33470.0
32.7643209,35.0164812,483.09,-0.04825,-0.009,0.988,0.02,-0.08,-0.34,28670.0,-3210.0,-33470.0
32.7643208,35.0164813,483.11,-0.062,0.00375,0.97425,0.14,0.4,-0.2,28660.0,-3180.0,-33480.0
32.7643208,35.0164813,483.11,-0.05825,-0.00525,0.991,-0.28,-0.16,-0.1,28700.0,-3230.0,-33490.0
32.7643208,35.0164813,483.11,-0.05675,-0.0205,1.005,-0.28,-0.34,-0.08,28680.0,-3230.0,-33480.0
32.7643208,35.0164813,483.11,-0.05875,-0.01,0.97025,0.26,0.12,0.04,28620.0,-3160.0,-33470.0
32.7643208,35.0164813,483.11,-0.05925,-0.0065,0.96475,0.16,-0.06,0.06,28590.0,-3110.0,-33470.0
32.7643208,35.0164813,483.11,-0.045,-0.0155,0.99875,-0.1,-0.54,0.12,28560.0,-3150.0,-33470.0
32.7643208,35.0164813,483.11,-0.041,-0.00625,0.9925,0.28,-0.28,0.18,28540.0,-3110.0,-33470.0
32.7643208,35.0164813,483.11,-0.056,0.00725,0.96375,0.46,0.26,0.26,28530.0,-3090.0,-33470.0
32.7643208,35.0164813,483.11,-0.05825,-0.0005,0.979,0.18,0.1,0.28,28570.0,-3110.0,-33470.0
32.7643208,35.0164813,483.11,-0.0535,-0.01125,1.009,0.14,-0.52,0.28,28600.0,-3160.0,-33470.0
32.7643208,35.0164813,483.11,-0.047,0.01325,0.995,0.6,-0.14,0.18,28600.0,-3160.0,-33470.0
32.7643208,35.0164813,483.11,-0.0495,0.03425,0.97625,0.6,0.2,0.22,28600.0,-3180.0,-33480.0
32.7643208,35.0164813,483.11,-0.0405,0.0135,0.99275,-0.2,-0.32,0.18,28610.0,-3180.0,-33470.0
32.7643208,35.0164813,483.11,-0.034,-0.004,1.01075,-0.1,-0.42,0.12,28590.0,-3220.0,-33470.0
32.7643208,35.0164813,483.11,-0.04775,0.015,0.989,0.42,0.24,0.1,28620.0,-3280.0,-33470.0
32.7643208,35.0164813,483.11,-0.05325,0.029,0.99225,0.16,0.24,0.04,28670.0,-3310.0,-33480.0
32.7643208,35.0164813,483.11,-0.04875,0.01175,1.01925,-0.26,-0.42,-0.02,28660.0,-3270.0,-33490.0
32.7643208,35.0164813,483.11,-0.049,0.004,1.01525,-0.18,-0.16,-0.08,28680.0,-3260.0,-33500.0
32.7643208,35.0164813,483.11,-0.053,0.01625,0.9895,0.28,0.24,-0.08,28690.0,-3250.0,-33500.0
32.7643208,35.0164813,483.11,-0.04775,0.011,0.999,-0.12,-0.3,-0.2,28680.0,-3240.0,-33500.0
32.7643208,35.0164813,483.11,-0.0375,0.00225,1.027,-0.26,-0.4,-0.16,28720.0,-3320.0,-33500.0
32.7643208,35.0164813,483.1,-0.046,0.018,1.0085,0.16,0.24,-0.18,28710.0,-3290.0,-33510.0
32.7643208,35.0164813,483.1,-0.06475,0.0135,0.993,-0.14,0.5,-0.1,28640.0,-3210.0,-33500.0
32.7643208,35.0164813,483.1,-0.061,-0.00825,1.01225,-0.54,-0.3,-0.2,28570.0,-3200.0,-33480.0
32.7643208,35.0164813,483.1,-0.055,-0.00675,1.02675,-0.02,-0.44,-0.18,28630.0,-3280.0,-33480.0
32.7643208,35.0164813,483.1,-0.05725,0.015,0.99825,0.24,0.38,-0.14,28620.0,-3260.0,-33470.0
32.7643208,35.0164813,483.1,-0.05725,0.012,0.9905,-0.22,0.12,-0.12,28620.0,-3250.0,-33470.0
32.7643208,35.0164813,483.1,-0.05325,-0.01525,1.01225,-0.44,-0.38,-0.02,28600.0,-3250.0,-33470.0
32.7643208,35.0164813,483.1,-0.0495,-0.00875,1.00375,0.14,0.04,0.02,28600.0,-3200.0,-33470.0
32.7643208,35.0164813,483.1,-0.067,0.0105,0.9885,0.38,0.52,0.04,28630.0,-3230.0,-33470.0
32.7643208,35.0164813,483.1,-0.064,0.0085,0.9985,-0.14,-0.06,0.04,28640.0,-3250.0,-33470.0
32.7643208,35.0164813,483.1,-0.0575,-0.00125,1.0075,-0.12,-0.44,0.16,28630.0,-3210.0,-33480.0
32.7643208,35.0164813,483.1,-0.05725,0.01,0.99175,0.18,0.18,0.14,28550.0,-3170.0,-33470.0
32.7643208,35.0164813,483.1,-0.05575,0.01875,0.982,0.16,0.24,0.16,28560.0,-3160.0,-33470.0
32.7643208,35.0164813,483.1,-0.047,0.0035,0.9945,-0.32,-0.52,0.1,28580.0,-3190.0,-33470.0
32.7643208,35.0164813,483.1,-0.0385,0.007,1.001,-0.02,-0.28,0.14,28570.0,-3170.0,-33470.0
32.7643208,35.0164813,483.1,-0.05175,0.024,0.9785,0.26,0.54,0.16,28610.0,-3200.0,-33480.0
32.7643208,35.0164813,483.1,-0.06025,0.012,0.984,-0.26,0.26,0.12,28630.0,-3250.0,-33490.0
32.7643208,35.0164813,483.1,-0.05225,-0.00575,1.0045,-0.32,-0.52,0.08,28610.0,-3210.0,-33480.0
32.7643208,35.0164813,483.1,-0.046,0.00825,0.99675,0.2,-0.18,0.06,28610.0,-3210.0,-33480.0
32.7643208,35.0164813,483.1,-0.0485,0.0275,0.98325,0.12,0.32,-0.02,28630.0,-3190.0,-33480.0
32.7643208,35.0164812,483.09,-0.041,0.0095,0.988,-0.38,-0.22,0.02,28620.0,-3170.0,-33500.0
32.7643208,35.0164812,483.09,-0.038,-0.01225,1.0035,-0.38,-0.4,-0.04,28680.0,-3230.0,-33510.0
32.7643208,35.0164812,483.09,-0.04325,0.008,0.994,0.26,0.3,-0.02,28720.0,-3310.0,-33520.0
32.7643208,35.0164812,483.09,-0.0565,0.015,0.99175,0.12,0.46,-0.16,28670.0,-3240.0,-33500.0
32.7643208,35.0164812,483.09,-0.051,-0.002,1.00875,-0.44,-0.28,-0.16,28610.0,-3210.0,-33490.0
32.7643208,35.0164812,483.09,-0.04625,-0.00875,1.009,-0.1,-0.34,-0.14,28630.0,-3240.0,-33480.0
32.7643208,35.0164812,483.09,-0.05375,0.0075,0.99475,0.16,0.46,-0.12,28630.0,-3230.0,-33490.0
32.7643208,35.0164812,483.09,-0.05075,0.00325,0.99725,-0.12,0.16,-0.12,28650.0,-3240.0,-33480.0
32.7643208,35.0164812,483.09,-0.043,-0.0145,1.01,-0.24,-0.46,-0.1,28660.0,-3260.0,-33480.0
32.7643208,35.0164812,483.09,-0.04125,-0.00025,1.00225,0.12,0.08,-0.04,28670.0,-3240.0,-33480.0
32.7643208,35.0164812,483.09,-0.06075,0.0085,0.99125,0.18,0.74,0.04,28720.0,-3270.0,-33490.0
32.7643208,35.0164812,483.09,-0.065,-0.01525,1.0025,-0.38,0.12,-0.06,28690.0,-3250.0,-33480.0
32.7643208,35.0164812,483.09,-0.05675,-0.018,1.01225,0.14,-0.5,-0.02,28620.0,-3170.0,-33480.0
32.7643208,35.0164812,483.09,-0.05825,0.0145,1.0015,0.54,0.16,-0.02,28610.0,-3190.0,-33480.0
32.7643208,35.0164812,483.09,-0.0595,0.01525,0.98925,0.08,0.48,0.06,28610.0,-3200.0,-33480.0
32.7643208,35.0164812,483.09,-0.05225,-0.0135,0.99125,-0.32,-0.44,0.1,28630.0,-3140.0,-33490.0
32.7643208,35.0164812,483.09,-0.04875,-0.0085,1.0065,0.28,-0.28,0.08,28650.0,-3100.0,-33500.0
32.7643208,35.0164812,483.09,-0.0595,0.02425,0.9975,0.64,0.68,0.12,28670.0,-3120.0,-33510.0
32.7643208,35.0164812,483.09,-0.06675,0.01925,0.98625,-0.06,0.24,0.04,28680.0,-3160.0,-33510.0
32.7643208,35.0164812,483.09,-0.0565,-0.00275,1.00525,-0.16,-0.68,0.08,28670.0,-3120.0,-33520.0
32.7643208,35.0164812,483.09,-0.0545,0.01275,0.9995,0.32,-0.08,-0.02,28670.0,-3120.0,-33520.0
32.7643208,35.0164812,483.09,-0.06,0.02525,0.9845,0.18,0.5,0.12,28640.0,-3130.0,-33510.0
32.7643208,35.0164812,483.09,-0.0505,0.00925,0.992,-0.22,-0.42,0.0,28600.0,-3140.0,-33490.0
32.7643208,35.0164812,483.09,-0.039,0.007,1.005,-0.02,-0.68,-0.06,28620.0,-3180.0,-33480.0
32.7643208,35.0164812,483.09,-0.04475,0.02675,0.997,0.26,0.46,0.06,28610.0,-3180.0,-33470.0
32.7643208,35.0164812,483.09,-0.05875,0.01625,0.98225,-0.16,0.54,0.0,28560.0,-3080.0,-33470.0
32.7643208,35.0164812,483.09,-0.0525,-0.01125,0.999,-0.42,-0.58,-0.04,28560.0,-3140.0,-33470.0
32.7643208,35.0164812,483.09,-0.042,0.00525,1.00925,0.38,-0.44,-0.02,28640.0,-3220.0,-33480.0
32.7643208,35.0164812,483.09,-0.05025,0.0315,0.9945,0.32,0.58,-0.02,28600.0,-3180.0,-33480.0
32.7643208,35.0164812,483.09,-0.04725,0.0115,0.9845,-0.4,0.14,-0.08,28620.0,-3170.0,-33480.0
32.7643208,35.0164812,483.09,-0.03875,-0.0145,0.99725,-0.28,-0.72,-0.06,28630.0,-3180.0,-33480.0
32.7643208,35.0164812,483.09,-0.04275,0.00375,1.00875,0.3,0.22,-0.02,28590.0,-3140.0,-33480.0
32.7643208,35.0164812,483.09,-0.05525,0.0265,0.99225,0.26,0.88,0.06,28610.0,-3160.0,-33470.0
32.7643208,35.0164812,483.09,-0.05775,0.004,0.99325,-0.46,-0.28,-0.06,28620.0,-3220.0,-33480.0
32.7643208,35.0164812,483.09,-0.04775,-0.009,1.01375,-0.24,-0.52,0.0,28630.0,-3220.0,-33470.0
32.7643208,35.0164812,483.09,-0.05475,0.01475,0.99975,0.38,0.58,0.02,28680.0,-3270.0,-33480.0
32.7643208,35.0164812,483.09,-0.05675,0.0115,0.987,-0.22,0.38,0.08,28670.0,-3270.0,-33480.0
32.7643208,35.0164812,483.09,-0.0455,-0.011,0.9995,-0.4,-0.66,-0.06,28660.0,-3260.0,-33480.0
32.7643208,35.0164812,483.09,-0.04375,0.002,1.012,0.14,-0.16,0.1,28630.0,-3240.0,-33480.0
32.7643208,35.0164812,483.09,-0.06275,0.021,0.99175,0.14,0.98,0.1,28630.0,-3230.0,-33490.0
32.7643207,35.0164812,483.09,-0.067,-0.00475,0.984,-0.4,0.06,0.0,28690.0,-3250.0,-33500.0
32.7643207,35.0164812,483.09,-0.05525,-0.0225,1.015,-0.2,-0.82,-0.02,28660.0,-3230.0,-33500.0
32.7643207,35.0164812,483.09,-0.0515,0.01625,1.01025,0.64,0.26,-0.02,28630.0,-3220.0,-33490.0
32.7643207,35.0164812,483.09,-0.06025,0.026,0.97925,0.06,0.72,0.04,28610.0,-3180.0,-33480.0
32.7643207,35.0164812,483.09,-0.05075,-0.01,0.989,-0.68,-0.54,0.06,28550.0,-3120.0,-33470.0
32.7643207,35.0164812,483.09,-0.046,-0.0175,1.0105,0.16,-0.5,-0.06,28550.0,-3160.0,-33470.0
32.7643207,35.0164812,483.09,-0.0585,0.0175,0.99975,0.52,0.82,0.08,28600.0,-3230.0,-33480.0
32.7643207,35.0164812,483.09,-0.0625,0.01825,0.981,-0.1,0.26,-0.04,28590.0,-3210.0,-33480.0
32.7643207,35.0164812,483.09,-0.055,-0.01075,1.00475,-0.42,-0.84,-0.04,28620.0,-3220.0,-33480.0
32.7643207,35.0164812,483.09,-0.0465,-0.0015,1.01125,0.18,0.0,-0.02,28690.0,-3330.0,-33470.0
32.7643207,35.0164812,483.09,-0.05725,0.01875,0.984,0.32,0.68,0.04,28800.0,-3430.0,-33470.0
32.7643207,35.0164812,483.09,-0.049,0.00025,0.98725,-0.36,-0.34,-0.04,28840.0,-3510.0,-33450.0
32.7643207,35.0164812,483.09,-0.03575,-0.009,1.01175,-0.06,-0.84,-0.04,28820.0,-3520.0,-33430.0
32.7643207,35.0164812,483.09,-0.046,0.014,1.0,0.42,0.56,0.0,28770.0,-3480.0,-33420.0
32.7643207,35.0164812,483.09,-0.0605,0.013,0.9795,-0.08,0.76,-0.06,28770.0,-3480.0,-33410.0
32.7643207,35.0164812,483.09,-0.056,-0.01925,0.99375,-0.36,-0.68,-0.06,28750.0,-3450.0,-33430.0
32.7643207,35.0164812,483.09,-0.0445,-0.0095,1.0195,0.32,-0.46,-0.02,28700.0,-3310.0,-33460.0
32.7643207,35.0164812,483.09,-0.04925,0.03075,0.992,0.66,0.64,0.04,28630.0,-3220.0,-33480.0
32.7643207,35.0164812,483.09,-0.0515,0.014,0.975,-0.36,0.12,-0.1,28660.0,-3280.0,-33490.0
32.7643207,35.0164812,483.09,-0.03925,-0.01825,1.00175,-0.3,-0.68,0.02,28690.0,-3280.0,-33500.0
32.7643208,35.0164812,483.09,-0.044,0.00325,1.011,0.6,0.22,0.04,28720.0,-3330.0,-33510.0
32.7643208,35.0164812,483.09,-0.0615,0.0325,0.98875,0.44,0.96,-0.02,28700.0,-3310.0,-33500.0
32.7643208,35.0164812,483.09,-0.05825,0.01175,0.98975,-0.36,-0.32,0.0,28630.0,-3250.0,-33480.0
32.7643208,35.0164812,483.09,-0.0525,-0.00475,1.01425,-0.14,-0.72,0.02,28600.0,-3230.0,-33470.0
32.7643208,35.0164812,483.09,-0.053,0.019,1.003,0.42,0.54,0.06,28600.0,-3260.0,-33470.0
32.7643208,35.0164812,483.09,-0.05875,0.01925,0.97875,-0.08,0.38,-0.02,28620.0,-3270.0,-33470.0
32.7643208,35.0164812,483.09,-0.04425,-0.00125,1.00275,-0.4,-0.8,0.04,28600.0,-3260.0,-33460.0
32.7643208,35.0164812,483.09,-0.0435,0.0085,1.01525,0.22,-0.18,-0.02,28600.0,-3250.0,-33460.0
32.7643208,35.0164812,483.09,-0.0635,0.02525,0.98675,0.22,0.96,0.12,28620.0,-3260.0,-33460.0
32.7643208,35.0164812,483.09,-0.0665,0.00125,0.986,-0.52,0.02,-0.02,28590.0,-3220.0,-33470.0
32.7643208,35.0164812,483.09,-0.0565,-0.01225,1.0135,-0.12,-0.9,0.04,28580.0,-3200.0,-33470.0
32.7643208,35.0164812,483.09,-0.0505,0.017,1.01325,0.46,0.24,-0.04,28610.0,-3210.0,-33470.0
32.7643208,35.0164812,483.09,-0.056,0.0325,0.9795,0.04,0.5,0.0,28580.0,-3200.0,-33460.0
32.7643208,35.0164812,483.09,-0.04975,-0.0035,0.99125,-0.66,-0.58,-0.04,28600.0,-3220.0,-33460.0
32.7643208,35.0164812,483.09,-0.04225,-0.012,1.0105,-0.06,-0.42,-0.04,28610.0,-3220.0,-33460.0
32.7643208,35.0164812,483.09,-0.056,0.018,0.99475,0.56,0.74,0.04,28590.0,-3180.0,-33470.0
32.7643208,35.0164812,483.09,-0.06375,0.01875,0.98725,-0.14,0.36,-0.02,28660.0,-3230.0,-33470.0
32.7643208,35.0164812,483.09,-0.053,-0.0045,1.0015,-0.38,-0.76,-0.1,28720.0,-3290.0,-33470.0
32.7643208,35.0164812,483.09,-0.04925,-0.00125,1.0075,0.04,-0.08,0.02,28710.0,-3280.0,-33470.0
32.7643208,35.0164812,483.1,-0.054,0.01875,0.9855,0.24,0.64,0.02,28720.0,-3300.0,-33470.0
32.7643208,35.0164812,483.1,-0.0475,0.00025,0.9865,-0.3,-0.32,0.0,28740.0,-3310.0,-33490.0
32.7643208,35.0164812,483.1,-0.03525,-0.009,1.00825,-0.22,-0.72,0.02,28720.0,-3290.0,-33500.0
32.7643208,35.0164812,483.1,-0.04375,0.01625,1.0005,0.36,0.52,0.02,28720.0,-3300.0,-33510.0
32.7643208,35.0164812,483.1,-0.0625,0.01225,0.98025,-0.16,0.7,0.08,28740.0,-3310.0,-33520.0
32.7643208,35.0164812,483.1,-0.05375,-0.01625,0.99925,-0.4,-0.52,0.0,28720.0,-3280.0,-33520.0
32.7643208,35.0164812,483.1,-0.047,-0.0085,1.015,0.18,-0.52,0.08,28720.0,-3280.0,-33520.0
32.7643208,35.0164812,483.1,-0.049,0.02775,0.9965,0.42,0.64,0.0,28720.0,-3270.0,-33520.0
32.7643208,35.0164812,483.1,-0.05075,0.013,0.97775,-0.36,0.18,0.06,28720.0,-3270.0,-33520.0
32.7643208,35.0164812,483.1,-0.043,-0.02125,1.00225,-0.52,-0.74,-0.04,28760.0,-3270.0,-33520.0
32.7643208,35.0164812,483.1,-0.045,-0.0005,1.013,0.48,0.2,0.02,28770.0,-3250.0,-33520.0
32.7643208,35.0164812,483.1,-0.0635,0.0255,0.98625,0.44,0.82,0.02,28760.0,-3250.0,-33520.0
32.7643208,35.0164812,483.1,-0.05925,0.00375,0.99575,-0.52,-0.2,0.02,28720.0,-3190.0,-33520.0
32.7643208,35.0164812,483.1,-0.052,-0.01025,1.013,-0.16,-0.66,-0.04,28720.0,-3190.0,-33520.0
32.7643208,35.0164812,483.1,-0.055,0.0115,1.00275,0.38,0.52,0.02,28770.0,-3210.0,-33530.0
32.7643208,35.0164812,483.1,-0.05775,0.01625,0.98225,0.0,0.38,0.0,28760.0,-3210.0,-33530.0
32.7643208,35.0164812,483.1,-0.04525,-0.00875,1.0015,-0.42,-0.8,-0.04,28750.0,-3220.0,-33530.0
32.7643208,35.0164812,483.1,-0.04375,0.0005,1.01575,0.18,-0.16,0.0,28740.0,-3220.0,-33530.0
32.7643208,35.0164812,483.1,-0.06125,0.023,0.9865,0.38,0.98,0.06,28700.0,-3170.0,-33520.0
32.7643208,35.0164812,483.1,-0.07,-0.00275,0.98525,-0.46,0.1,0.04,28740.0,-3180.0,-33520.0
32.7643208,35.0164812,483.1,-0.054,-0.01875,1.01275,-0.08,-0.8,-0.04,28750.0,-3160.0,-33520.0
32.7643209,35.0164812,483.09,-0.0505,0.0115,1.01025,0.56,0.04,-0.02,28740.0,-3150.0,-33530.0
32.7643209,35.0164812,483.09,-0.0545,0.03125,0.97875,0.14,0.62,0.0,28780.0,-3200.0,-33530.0
32.7643209,35.0164812,483.09,-0.04725,-0.0045,0.984,-0.44,-0.58,0.04,28800.0,-3250.0,-33530.0
32.7643209,35.0164812,483.09,-0.04425,-0.01525,1.01075,0.04,-0.5,-0.04,28740.0,-3150.0,-33530.0
32.7643209,35.0164812,483.09,-0.054,0.02175,1.00175,0.7,0.78,0.12,28680.0,-3080.0,-33530.0
32.7643209,35.0164812,483.09,-0.066,0.024,0.98,0.0,0.46,0.02,28690.0,-3130.0,-33530.0
32.7643209,35.0164812,483.09,-0.051,-0.00425,1.00275,-0.5,-0.8,0.0,28710.0,-3120.0,-33530.0
32.7643209,35.0164812,483.09,-0.046,0.0025,1.01,0.26,-0.22,0.0,28730.0,-3130.0,-33520.0
32.7643209,35.0164812,483.09,-0.05175,0.0225,0.987,0.26,0.76,0.02,28730.0,-3120.0,-33520.0
32.7643209,35.0164812,483.09,-0.0475,0.00675,0.9845,-0.32,-0.24,0.02,28700.0,-3080.0,-33520.0
32.7643209,35.0164812,483.09,-0.0385,-0.0025,1.008,-0.16,-0.8,-0.02,28720.0,-3150.0,-33520.0
32.7643209,35.0164812,483.09,-0.046,0.01975,1.0075,0.3,0.58,0.02,28740.0,-3150.0,-33510.0
32.7643209,35.0164812,483.09,-0.0645,0.021,0.97875,-0.08,0.84,0.04,28720.0,-3120.0,-33520.0
32.7643209,35.0164812,483.09,-0.0585,-0.0115,0.9985,-0.58,-0.58,0.0,28670.0,-3100.0,-33500.0
32.7643209,35.0164812,483.09,-0.04425,-0.0015,1.01925,0.2,-0.64,-0.02,28630.0,-3090.0,-33490.0
32.7643209,35.0164812,483.09,-0.04875,0.03025,0.99925,0.34,0.68,0.04,28610.0,-3080.0,-33480.0
32.7643209,35.0164812,483.09,-0.051,0.015,0.97775,-0.4,0.28,0.0,28610.0,-3080.0,-33480.0
32.7643209,35.0164812,483.09,-0.04375,-0.01725,0.99975,-0.44,-0.8,-0.08,28640.0,-3140.0,-33490.0
32.7643209,35.0164812,483.09,-0.05025,-0.001,1.01325,0.3,0.18,0.04,28630.0,-3130.0,-33480.0
32.7643209,35.0164812,483.09,-0.06325,0.028,0.99075,0.24,0.9,-0.02,28590.0,-3060.0,-33480.0
32.7643209,35.0164812,483.09,-0.06525,0.0055,0.988,-0.48,-0.28,-0.02,28580.0,-3050.0,-33490.0
32.7643209,35.0164812,483.09,-0.04925,-0.0085,1.013,-0.26,-0.72,-0.08,28610.0,-3030.0,-33490.0
32.7643209,35.0164812,483.09,-0.052,0.01125,1.00275,0.44,0.44,0.0,28560.0,-3000.0,-33480.0
32.7643209,35.0164812,483.09,-0.0555,0.01275,0.9795,-0.12,0.44,-0.02,28580.0,-3070.0,-33480.0
32.7643209,35.0164812,483.09,-0.0435,-0.0125,0.9965,-0.44,-0.84,-0.04,28610.0,-3160.0,-33470.0
32.7643209,35.0164812,483.09,-0.044,-0.00275,1.00725,0.16,-0.24,0.0,28610.0,-3180.0,-33470.0
32.7643209,35.0164812,483.09,-0.06,0.01825,0.99,0.24,1.04,0.02,28640.0,-3230.0,-33470.0
32.7643209,35.0164812,483.09,-0.06625,-0.0045,0.97875,-0.32,0.02,0.06,28640.0,-3200.0,-33470.0
32.7643209,35.0164812,483.09,-0.053,-0.022,1.0115,-0.12,-0.92,0.02,28610.0,-3170.0,-33470.0
32.7643209,35.0164812,483.09,-0.047,0.0145,1.0095,0.68,0.08,0.04,28630.0,-3190.0,-33470.0
32.7643209,35.0164812,483.09,-0.05275,0.03125,0.98125,0.14,0.62,0.08,28680.0,-3250.0,-33480.0
32.7643209,35.0164812,483.09,-0.04575,-0.00375,0.99,-0.6,-0.5,-0.06,28630.0,-3210.0,-33470.0
32.7643209,35.0164812,483.09,-0.04225,-0.00925,1.01125,0.06,-0.54,0.02,28630.0,-3220.0,-33470.0
32.7643209,35.0164812,483.09,-0.05575,0.02125,1.00375,0.5,0.76,0.06,28650.0,-3260.0,-33470.0
32.7643209,35.0164812,483.09,-0.06175,0.02575,0.9885,-0.26,0.32,0.04,28640.0,-3240.0,-33470.0
32.7643209,35.0164812,483.09,-0.05425,-0.00475,1.0075,-0.5,-0.78,-0.04,28610.0,-3200.0,-33480.0
32.7643209,35.0164812,483.09,-0.04625,0.0055,1.01425,0.12,-0.1,0.02,28640.0,-3220.0,-33480.0
32.7643209,35.0164812,483.09,-0.05525,0.0225,0.9875,0.22,0.7,0.04,28620.0,-3190.0,-33470.0
32.7643209,35.0164812,483.09,-0.0495,0.00125,0.99075,-0.52,-0.34,-0.04,28630.0,-3220.0,-33470.0
32.7643209,35.0164812,483.09,-0.0395,-0.00725,1.01275,-0.16,-0.68,-0.06,28660.0,-3230.0,-33480.0
32.764321,35.0164811,483.08,-0.05225,0.016,1.0,0.38,0.58,0.06,28670.0,-3210.0,-33490.0
32.764321,35.0164811,483.08,-0.064,0.013,0.9805,-0.18,0.74,-0.08,28670.0,-3260.0,-33490.0
32.764321,35.0164811,483.08,-0.05825,-0.01725,0.99775,-0.4,-0.72,-0.04,28660.0,-3240.0,-33480.0
32.764321,35.0164811,483.08,-0.0485,-0.004,1.0175,0.32,-0.4,-0.1,28640.0,-3200.0,-33480.0
32.764321,35.0164811,483.08,-0.05275,0.03025,0.98775,0.54,0.76,-0.02,28580.0,-3150.0,-33470.0
32.764321,35.0164811,483.08,-0.0525,0.011,0.9745,-0.38,-0.06,0.04,28580.0,-3200.0,-33470.0
32.764321,35.0164811,483.08,-0.042,-0.0155,1.0045,-0.3,-0.74,-0.06,28630.0,-3250.0,-33470.0
32.764321,35.0164811,483.08,-0.05025,0.00675,1.004,0.46,0.38,-0.02,28620.0,-3220.0,-33470.0
32.764321,35.0164811,483.08,-0.063,0.0265,0.9825,0.16,0.8,0.06,28630.0,-3210.0,-33470.0
32.764321,35.0164811,483.08,-0.058,0.0065,0.99275,-0.48,-0.5,0.02,28680.0,-3240.0,-33490.0
32.764321,35.0164811,483.08,-0.0505,-0.00425,1.0135,-0.18,-0.54,0.0,28680.0,-3200.0,-33500.0
32.764321,35.0164811,483.08,-0.0545,0.0175,0.99475,0.18,0.6,0.1,28700.0,-3200.0,-33500.0
32.764321,35.0164811,483.08,-0.0555,0.012,0.98,-0.26,0.18,0.02,28700.0,-3210.0,-33500.0
32.764321,35.0164811,483.08,-0.04125,-0.01125,1.00575,-0.48,-0.86,0.02,28670.0,-3170.0,-33500.0
32.764321,35.0164811,483.08,-0.04075,0.005,1.0075,0.26,0.02,0.02,28640.0,-3160.0,-33490.0
32.764321,35.0164811,483.08,-0.06125,0.0155,0.9835,0.08,0.88,0.08,28670.0,-3210.0,-33480.0
32.764321,35.0164811,483.08,-0.061,-0.008,0.992,-0.44,-0.02,0.04,28700.0,-3220.0,-33450.0
32.764321,35.0164811,483.08,-0.05,-0.02,1.016,-0.04,-0.84,-0.02,28750.0,-3290.0,-33440.0
32.764321,35.0164811,483.08,-0.049,0.01575,1.0075,0.56,0.38,-0.06,28810.0,-3420.0,-33430.0
32.764321,35.0164811,483.08,-0.05225,0.0245,0.9805,0.12,0.52,-0.06,28860.0,-3430.0,-33430.0
32.764321,35.0164811,483.08,-0.0465,-0.012,0.9945,-0.5,-0.6,0.04,28900.0,-3500.0,-33440.0
32.764321,35.0164811,483.08,-0.04075,-0.00975,1.01675,0.16,-0.26,-0.02,28830.0,-3380.0,-33450.0
32.764321,35.0164811,483.08,-0.057,0.021,0.998,0.48,0.8,0.06,28710.0,-3260.0,-33450.0
32.764321,35.0164811,483.08,-0.05925,0.01325,0.99125,-0.32,0.18,-0.02,28650.0,-3170.0,-33460.0
32.764321,35.0164811,483.08,-0.0495,-0.01375,1.01,-0.4,-0.78,-0.1,28660.0,-3150.0,-33460.0
32.764321,35.0164811,483.08,-0.05075,-0.00375,1.00725,0.24,0.16,0.08,28660.0,-3120.0,-33470.0
32.764321,35.0164811,483.08,-0.05625,0.0055,0.97975,0.24,0.72,0.08,28610.0,-3040.0,-33470.0
32.764321,35.0164811,483.08,-0.0495,-0.021,0.9805,-0.26,-0.54,0.06,28600.0,-3040.0,-33470.0
32.764321,35.0164811,483.08,-0.04,-0.026,1.003,0.2,-0.5,0.04,28610.0,-3080.0,-33470.0
32.764321,35.0164811,483.08,-0.05125,0.00075,0.9845,0.86,0.78,0.02,28660.0,-3130.0,-33470.0
32.764321,35.0164811,483.08,-0.06375,-0.0085,0.97025,0.2,0.58,0.04,28680.0,-3140.0,-33470.0
32.764321,35.0164811,483.08,-0.053,-0.02775,0.996,0.2,-0.78,-0.06,28680.0,-3110.0,-33470.0
32.764321,35.0164811,483.08,-0.0455,0.00325,1.009,1.06,-0.2,0.0,28650.0,-3070.0,-33470.0
32.764321,35.0164811,483.08,-0.04725,0.03375,0.9885,0.84,0.76,0.06,28660.0,-3100.0,-33470.0
32.764321,35.0164811,483.08,-0.04225,0.011,0.9795,0.02,-0.16,0.06,28690.0,-3120.0,-33470.0
32.764321,35.0164811,483.08,-0.037,-0.00875,1.008,0.08,-0.58,0.04,28680.0,-3080.0,-33470.0
32.764321,35.0164811,483.08,-0.044,0.01825,1.00875,0.84,0.7,0.16,28700.0,-3090.0,-33480.0
32.764321,35.0164811,483.08,-0.0575,0.027,0.9915,0.3,0.74,0.12,28730.0,-3150.0,-33470.0
32.764321,35.0164811,483.08,-0.05275,0.00725,1.0045,-0.36,-0.46,0.1,28690.0,-3090.0,-33470.0
32.764321,35.0164811,483.08,-0.048,0.01125,1.014,0.32,-0.16,0.16,28660.0,-3070.0,-33470.0
32.764321,35.0164811,483.08,-0.05575,0.0195,0.9945,0.4,0.76,0.06,28710.0,-3070.0,-33490.0
32.764321,35.0164811,483.08,-0.04975,0.00925,0.996,-0.12,0.02,0.06,28690.0,-3030.0,-33480.0
32.764321,35.0164811,483.08,-0.0445,0.00875,1.017,0.14,-0.6,0.04,28720.0,-3070.0,-33470.0
32.764321,35.0164811,483.08,-0.0515,0.0285,1.00725,0.54,0.62,0.04,28720.0,-3080.0,-33470.0
32.764321,35.0164811,483.08,-0.068,0.0225,0.98725,0.18,0.86,0.04,28680.0,-3040.0,-33470.0
32.764321,35.0164811,483.08,-0.068,-0.00025,1.0085,-0.2,-0.32,-0.06,28680.0,-3030.0,-33470.0
32.764321,35.0164811,483.08,-0.0595,0.0135,1.019,0.5,-0.3,-0.02,28710.0,-3060.0,-33470.0
32.764321,35.0164811,483.08,-0.06225,0.04375,0.996,0.54,0.52,0.02,28740.0,-3070.0,-33470.0
32.764321,35.0164811,483.08,-0.059,0.02925,0.99875,-0.3,0.1,-0.08,28740.0,-3080.0,-33480.0
32.764321,35.0164811,483.08,-0.0515,0.0095,1.0055,-0.32,-0.54,-0.06,28710.0,-3030.0,-33470.0
32.764321,35.0164811,483.08,-0.055,0.01825,1.00175,0.08,0.22,-0.02,28730.0,-3050.0,-33490.0
32.764321,35.0164811,483.08,-0.065,0.0335,0.99475,0.04,0.6,0.02,28740.0,-3060.0,-33500.0
32.764321,35.0164811,483.08,-0.06825,0.01675,1.00775,-0.6,-0.2,-0.02,28760.0,-3080.0,-33500.0
32.764321,35.0164811,483.08,-0.05775,0.00875,1.0085,-0.44,-0.44,0.0,28790.0,-3110.0,-33500.0
32.764321,35.0164811,483.08,-0.059,0.01975,0.994,-0.14,0.2,0.06,28740.0,-3090.0,-33490.0
32.764321,35.0164811,483.08,-0.05725,0.00925,0.98825,-0.46,0.1,0.02,28730.0,-3090.0,-33490.0
32.764321,35.0164811,483.08,-0.04275,-0.0005,1.01,-0.64,-0.56,-0.06,28710.0,-3100.0,-33490.0
32.764321,35.0164811,483.08,-0.045,0.0125,1.00025,-0.1,-0.14,0.02,28670.0,-3080.0,-33490.0
32.764321,35.0164811,483.08,-0.0545,0.02225,0.986,-0.18,0.64,-0.02,28690.0,-3130.0,-33480.0
32.764321,35.0164811,483.08,-0.0585,0.002,1.00075,-0.62,-0.08,-0.02,28680.0,-3120.0,-33480.0
32.7643211,35.016481,483.07,-0.051,-0.0025,1.01625,-0.48,-0.46,-0.02,28660.0,-3040.0,-33500.0
32.7643211,35.016481,483.07,-0.0475,0.02475,1.00175,0.16,0.08,-0.1,28680.0,-3070.0,-33510.0
32.7643211,35.016481,483.07,-0.04975,0.02625,0.9825,-0.42,0.12,-0.02,28720.0,-3160.0,-33510.0
32.7643211,35.016481,483.07,-0.04025,-0.0005,1.00475,-0.9,-0.34,0.02,28680.0,-3120.0,-33490.0
32.7643211,35.016481,483.07,-0.043,-0.004,0.9985,-0.36,-0.02,0.0,28670.0,-3120.0,-33490.0
32.7643211,35.016481,483.07,-0.05525,0.008,0.98425,-0.16,0.56,0.0,28680.0,-3150.0,-33480.0
32.7643211,35.016481,483.07,-0.05675,0.00325,0.98875,-0.52,0.02,-0.02,28640.0,-3110.0,-33480.0
32.7643211,35.016481,483.07,-0.0505,-0.0115,1.00625,-0.64,-0.46,-0.06,28670.0,-3150.0,-33480.0
32.7643211,35.016481,483.07,-0.05225,-0.0065,0.988,-0.18,0.16,-0.02,28700.0,-3170.0,-33490.0
32.7643211,35.016481,483.07,-0.05475,-0.00225,0.97225,-0.08,0.28,0.0,28680.0,-3140.0,-33490.0
32.7643211,35.016481,483.07,-0.0465,-0.01775,0.99675,-0.44,-0.42,-0.08,28630.0,-3140.0,-33490.0
32.7643211,35.016481,483.07,-0.03725,-0.0125,1.00025,-0.1,-0.32,0.04,28620.0,-3190.0,-33480.0
32.7643211,35.016481,483.07,-0.052,-0.00075,0.97625,0.2,0.44,0.04,28610.0,-3170.0,-33480.0
32.7643211,35.016481,483.07,-0.0595,-0.00875,0.97725,-0.2,0.34,0.04,28630.0,-3160.0,-33470.0
32.7643211,35.016481,483.07,-0.05525,-0.0275,1.006,-0.24,-0.44,-0.04,28650.0,-3170.0,-33470.0
32.7643211,35.016481,483.07,-0.053,-0.01375,0.998,0.26,-0.1,-0.02,28630.0,-3180.0,-33480.0
32.7643211,35.016481,483.07,-0.052,0.01225,0.97775,0.44,0.3,0.0,28610.0,-3180.0,-33480.0
32.7643211,35.016481,483.07,-0.05125,-0.005,0.986,-0.16,-0.2,0.04,28640.0,-3190.0,-33480.0
32.7643211,35.016481,483.07,-0.039,-0.02575,1.00525,-0.2,-0.26,0.0,28620.0,-3160.0,-33480.0
32.7643211,35.016481,483.07,-0.0515,-0.0045,0.98875,0.6,0.32,0.04,28600.0,-3120.0,-33490.0
32.7643211,35.016481,483.08,-0.06125,0.015,0.986,0.42,0.48,0.02,28650.0,-3170.0,-33500.0
32.7643211,35.016481,483.08,-0.05525,0.00075,1.011,-0.18,-0.32,0.0,28680.0,-3210.0,-33500.0
32.7643211,35.016481,483.08,-0.05325,-0.0055,1.01375,0.12,-0.32,0.06,28660.0,-3180.0,-33490.0
32.7643211,35.016481,483.08,-0.0595,0.01525,0.992,0.46,0.48,0.06,28660.0,-3180.0,-33480.0
32.7643211,35.016481,483.08,-0.056,0.01675,0.98675,0.14,0.0,0.04,28680.0,-3220.0,-33470.0
32.7643211,35.016481,483.08,-0.04125,-0.001,1.02425,-0.24,-0.66,0.02,28690.0,-3230.0,-33480.0
32.7643211,35.016481,483.08,-0.0455,0.01575,1.01425,0.34,0.14,0.02,28710.0,-3240.0,-33470.0
32.7643211,35.016481,483.08,-0.063,0.02925,0.98375,0.28,0.74,0.06,28700.0,-3240.0,-33480.0
32.7643211,35.016481,483.08,-0.06075,0.0065,1.00075,-0.44,-0.3,0.0,28660.0,-3200.0,-33480.0
32.7643211,35.016481,483.08,-0.05075,-0.003,1.03125,-0.06,-0.6,0.0,28660.0,-3180.0,-33480.0
32.7643211,35.016481,483.08,-0.05725,0.02825,1.00925,0.48,0.4,0.02,28680.0,-3170.0,-33480.0
32.7643211,35.016481,483.08,-0.05675,0.04025,0.97775,-0.04,0.2,-0.02,28660.0,-3090.0,-33490.0
32.7643211,35.016481,483.08,-0.04825,0.004,1.005,-0.6,-0.74,-0.02,28660.0,-3100.0,-33500.0
32.7643211,35.016481,483.08,-0.04225,0.0005,1.01975,0.12,-0.1,0.02,28740.0,-3180.0,-33510.0
32.7643211,35.016481,483.08,-0.059,0.0305,0.985,0.5,0.72,0.02,28750.0,-3190.0,-33510.0
32.7643211,35.016481,483.08,-0.06075,0.0275,0.98425,-0.34,0.02,-0.02,28760.0,-3230.0,-33500.0
32.7643211,35.016481,483.08,-0.04875,0.00425,1.01625,-0.44,-0.72,-0.08,28770.0,-3210.0,-33500.0
32.7643211,35.016481,483.08,-0.05425,0.015,1.0065,0.0,0.18,0.04,28720.0,-3130.0,-33490.0
32.7643211,35.016481,483.08,-0.0605,0.02975,0.97275,0.04,0.58,0.02,28710.0,-3140.0,-33490.0
32.7643211,35.0164811,483.07,-0.04775,0.01525,0.989,-0.54,-0.68,0.02,28710.0,-3140.0,-33490.0
32.7643211,35.0164811,483.07,-0.035,0.0085,1.02025,-0.42,-0.64,0.0,28700.0,-3100.0,-33500.0
32.7643211,35.0164811,483.07,-0.04975,0.035,0.99725,0.08,0.84,0.14,28670.0,-3090.0,-33500.0
32.7643211,35.0164811,483.07,-0.06675,0.0265,0.97375,-0.64,0.6,0.1,28690.0,-3110.0,-33490.0
32.7643211,35.0164811,483.07,-0.05425,0.0025,1.01575,-0.88,-0.78,0.02,28710.0,-3120.0,-33490.0
32.7643211,35.0164811,483.07,-0.04975,0.01625,1.0245,-0.26,-0.2,-0.04,28670.0,-3050.0,-33480.0
32.7643211,35.0164811,483.07,-0.058,0.04175,0.996,-0.4,0.76,-0.02,28630.0,-3040.0,-33480.0
32.7643211,35.0164811,483.07,-0.05425,0.0255,0.9845,-1.12,-0.26,-0.02,28660.0,-3050.0,-33480.0
32.7643211,35.0164811,483.07,-0.04275,-0.00475,1.0245,-1.22,-0.78,-0.02,28680.0,-3080.0,-33490.0
32.7643211,35.0164811,483.07,-0.0495,0.01425,1.01925,-0.42,0.56,0.0,28730.0,-3130.0,-33490.0
32.7643211,35.0164811,483.07,-0.0645,0.029,0.99075,-0.62,0.62,-0.08,28770.0,-3160.0,-33500.0
32.7643211,35.0164811,483.07,-0.057,0.0085,1.00975,-1.42,-0.58,-0.12,28750.0,-3110.0,-33510.0
32.7643211,35.0164811,483.07,-0.05,-0.002,1.03325,-1.08,-0.5,-0.06,28710.0,-3110.0,-33500.0
32.7643211,35.0164811,483.07,-0.06225,0.013,0.99975,-0.56,0.7,-0.06,28690.0,-3110.0,-33490.0
32.7643211,35.0164811,483.07,-0.0575,0.0115,0.992,-1.04,-0.04,-0.08,28690.0,-3070.0,-33490.0
32.7643211,35.0164811,483.07,-0.04,-0.0035,1.0215,-1.24,-1.08,-0.12,28680.0,-3100.0,-33490.0
32.7643211,35.0164811,483.07,-0.04075,0.009,1.02325,-0.88,0.16,-0.08,28690.0,-3110.0,-33500.0
32.7643211,35.0164811,483.07,-0.06,0.0245,0.9805,-0.74,0.88,0.02,28640.0,-3040.0,-33490.0
32.7643211,35.0164811,483.07,-0.06275,-0.005,0.998,-1.58,-0.38,0.04,28610.0,-3030.0,-33500.0
32.7643211,35.0164811,483.07,-0.0495,-0.01,1.03,-1.16,-0.7,-0.06,28690.0,-3110.0,-33500.0
32.7643211,35.0164811,483.07,-0.05375,0.01975,1.00625,-0.58,0.42,0.04,28700.0,-3110.0,-33510.0
32.7643211,35.0164811,483.08,-0.0575,0.02375,0.97675,-1.16,0.34,0.02,28720.0,-3100.0,-33520.0
32.7643211,35.0164811,483.08,-0.04675,-0.01175,1.003,-1.64,-0.76,0.04,28750.0,-3200.0,-33500.0
32.7643211,35.0164811,483.08,-0.0425,-0.01675,1.0105,-1.04,-0.2,0.08,28740.0,-3260.0,-33470.0
32.7643211,35.0164811,483.08,-0.056,0.0065,0.98625,-0.54,0.68,0.1,28770.0,-3340.0,-33460.0
32.7643211,35.0164811,483.08,-0.062,0.0035,0.98675,-1.16,0.02,0.06,28780.0,-3380.0,-33450.0
32.7643211,35.0164811,483.08,-0.05275,-0.0175,1.0145,-1.28,-0.64,0.02,28780.0,-3370.0,-33450.0
32.7643211,35.0164811,483.08,-0.0525,-0.00825,0.9925,-0.56,0.1,0.14,28750.0,-3360.0,-33450.0
32.7643211,35.0164811,483.08,-0.0605,-0.0075,0.97225,-0.68,0.34,0.1,28700.0,-3330.0,-33470.0
32.7643211,35.0164811,483.08,-0.048,-0.01425,0.997,-0.92,-0.5,0.04,28670.0,-3290.0,-33480.0
32.7643211,35.0164811,483.08,-0.04225,-0.01025,1.00675,-0.66,-0.44,0.1,28660.0,-3260.0,-33500.0
32.7643211,35.0164811,483.08,-0.05175,0.004,0.97675,-0.36,0.5,0.14,28670.0,-3280.0,-33510.0
32.7643211,35.0164811,483.08,-0.06225,-0.009,0.978,-0.84,0.24,0.08,28640.0,-3280.0,-33510.0
32.7643211,35.0164811,483.08,-0.05775,-0.02275,1.00925,-0.9,-0.58,0.04,28650.0,-3250.0,-33520.0
32.7643211,35.0164811,483.08,-0.05175,-0.0055,1.0,-0.48,-0.18,0.04,28660.0,-3270.0,-33530.0
32.7643211,35.0164811,483.08,-0.05725,0.01375,0.97275,-0.4,0.26,0.06,28660.0,-3260.0,-33530.0
32.7643211,35.0164811,483.08,-0.05025,-0.008,0.9885,-1.04,-0.28,-0.02,28650.0,-3250.0,-33540.0
32.7643211,35.0164811,483.08,-0.0435,-0.02525,0.9985,-0.86,-0.52,0.0,28680.0,-3290.0,-33540.0
32.7643211,35.0164811,483.08,-0.051,-0.01575,0.97725,-0.3,0.2,0.0,28690.0,-3350.0,-33530.0
32.7643211,35.0164811,483.08,-0.05875,-0.00475,0.9785,-0.34,0.24,-0.04,28630.0,-3290.0,-33520.0
32.7643211,35.0164811,483.08,-0.05625,-0.01725,1.0005,-0.68,-0.48,-0.08,28600.0,-3290.0,-33520.0
32.7643211,35.0164811,483.07,-0.05175,-0.02125,0.9945,-0.48,-0.26,-0.04,28610.0,-3300.0,-33530.0
32.7643211,35.0164811,483.07,-0.055,-0.01375,0.9675,-0.04,0.16,-0.08,28610.0,-3300.0,-33530.0
32.7643211,35.0164811,483.07,-0.0505,-0.02025,0.9845,-0.32,-0.22,-0.04,28560.0,-3290.0,-33520.0
32.7643211,35.0164811,483.07,-0.0375,-0.02575,1.0055,-0.3,-0.58,-0.04,28540.0,-3230.0,-33510.0
32.7643211,35.0164811,483.07,-0.04175,-0.0105,0.981,0.2,0.0,-0.06,28520.0,-3180.0,-33510.0
32.7643211,35.0164811,483.07,-0.05475,-0.0075,0.969,0.08,0.4,0.04,28500.0,-3200.0,-33510.0
32.7643211,35.0164811,483.07,-0.0545,-0.0255,0.99675,-0.2,-0.18,-0.02,28500.0,-3240.0,-33510.0
32.7643211,35.0164811,483.07,-0.052,-0.02875,1.00575,0.04,-0.36,0.0,28520.0,-3230.0,-33510.0
32.7643211,35.0164811,483.07,-0.0485,0.0015,0.98075,0.56,0.02,0.04,28500.0,-3170.0,-33510.0
32.7643211,35.0164811,483.07,-0.05,0.00625,0.98075,0.22,0.06,0.06,28530.0,-3220.0,-33510.0
32.7643211,35.0164811,483.07,-0.03825,-0.018,1.00325,-0.24,-0.38,0.12,28600.0,-3300.0,-33530.0
32.7643211,35.0164811,483.07,-0.037,-0.0125,0.9955,0.34,-0.08,0.04,28610.0,-3340.0,-33520.0
32.7643211,35.0164811,483.07,-0.049,0.008,0.9825,0.48,0.34,0.04,28600.0,-3370.0,-33520.0
32.7643211,35.0164811,483.07,-0.052,0.01025,1.00225,0.06,0.18,0.12,28580.0,-3400.0,-33510.0
32.7643211,35.0164811,483.07,-0.051,-0.00325,1.014,-0.08,-0.3,0.04,28600.0,-3380.0,-33510.0
32.7643211,35.0164811,483.07,-0.05,0.005,0.9945,0.28,0.06,0.06,28600.0,-3410.0,-33520.0
32.7643211,35.0164811,483.07,-0.05475,0.01175,0.98175,0.28,0.3,0.08,28620.0,-3420.0,-33520.0
32.7643211,35.0164811,483.07,-0.0425,0.0,1.009,-0.06,-0.32,0.0,28590.0,-3390.0,-33510.0
32.7643211,35.0164811,483.07,-0.03625,0.0035,1.01275,0.16,-0.34,0.02,28610.0,-3390.0,-33510.0
32.7643211,35.0164811,483.07,-0.04875,0.02,0.98875,0.26,0.48,0.08,28630.0,-3390.0,-33520.0
32.7643211,35.016481,483.07,-0.0595,0.00925,0.98975,-0.08,0.48,0.0,28650.0,-3390.0,-33540.0
32.7643211,35.016481,483.07,-0.05475,-0.01125,1.015,-0.16,-0.44,0.04,28660.0,-3400.0,-33550.0
32.7643211,35.016481,483.07,-0.0555,-0.00025,1.01325,0.26,-0.06,-0.06,28700.0,-3420.0,-33560.0
32.7643211,35.016481,483.07,-0.058,0.0275,0.98525,0.4,0.36,0.0,28720.0,-3420.0,-33560.0
32.7643211,35.016481,483.07,-0.05325,0.00875,0.99125,-0.28,-0.16,-0.02,28700.0,-3430.0,-33550.0
32.7643211,35.016481,483.07,-0.043,-0.01275,1.01225,-0.28,-0.42,-0.06,28650.0,-3410.0,-33530.0
32.7643211,35.016481,483.07,-0.05125,0.007,0.997,0.42,0.42,-0.02,28600.0,-3370.0,-33520.0
32.7643211,35.016481,483.07,-0.06525,0.02,0.98625,0.14,0.56,0.02,28550.0,-3320.0,-33510.0
32.7643211,35.016481,483.07,-0.059,0.00325,1.00775,-0.34,-0.36,0.0,28580.0,-3340.0,-33520.0
32.7643211,35.016481,483.07,-0.058,-0.00525,1.01025,-0.12,-0.28,0.0,28660.0,-3410.0,-33510.0
32.7643211,35.016481,483.07,-0.0605,0.01475,0.986,0.28,0.48,0.0,28740.0,-3470.0,-33500.0
32.7643211,35.016481,483.07,-0.05925,0.00775,0.98275,-0.2,-0.08,-0.04,28680.0,-3400.0,-33500.0
32.7643211,35.016481,483.07,-0.0445,-0.0105,1.0075,-0.38,-0.66,0.0,28610.0,-3270.0,-33510.0
32.7643211,35.016481,483.07,-0.04275,0.00675,1.00375,0.22,0.06,0.04,28530.0,-3170.0,-33520.0
32.7643211,35.016481,483.07,-0.06175,0.01775,0.982,0.06,0.68,0.06,28550.0,-3170.0,-33530.0
32.7643211,35.016481,483.07,-0.06225,-0.007,0.99375,-0.54,-0.14,0.06,28580.0,-3170.0,-33540.0
32.7643211,35.016481,483.07,-0.05275,-0.01675,1.01,-0.08,-0.64,0.04,28600.0,-3170.0,-33540.0
32.7643211,35.016481,483.07,-0.05025,0.0125,0.9995,0.4,0.12,-0.04,28610.0,-3190.0,-33550.0
32.7643211,35.016481,483.07,-0.05275,0.0205,0.98275,-0.1,0.34,-0.04,28580.0,-3180.0,-33540.0
32.7643211,35.016481,483.07,-0.04525,-0.013,0.9935,-0.52,-0.54,0.0,28540.0,-3120.0,-33530.0
32.7643212,35.016481,483.07,-0.03875,-0.01725,1.00825,-0.02,-0.4,0.06,28570.0,-3180.0,-33540.0
32.7643212,35.016481,483.07,-0.05325,0.01275,0.99425,0.38,0.6,0.08,28610.0,-3220.0,-33540.0
32.7643212,35.016481,483.07,-0.05825,0.0075,0.991,-0.28,0.28,-0.02,28570.0,-3180.0,-33530.0
32.7643212,35.016481,483.07,-0.048,-0.01275,1.007,-0.42,-0.76,0.06,28560.0,-3160.0,-33520.0
32.7643212,35.016481,483.07,-0.047,-0.00525,1.007,0.1,0.06,-0.08,28580.0,-3180.0,-33520.0
32.7643212,35.016481,483.07,-0.0535,0.00725,0.9905,0.06,0.6,-0.04,28590.0,-3170.0,-33520.0
32.7643212,35.016481,483.07,-0.04525,-0.01125,0.989,-0.32,-0.36,0.0,28590.0,-3190.0,-33510.0
32.7643212,35.016481,483.07,-0.03525,-0.01775,1.01125,-0.12,-0.68,-0.06,28640.0,-3250.0,-33520.0
32.7643212,35.016481,483.07,-0.04425,0.0085,1.0005,0.4,0.66,0.0,28610.0,-3200.0,-33520.0
32.7643212,35.016481,483.07,-0.0635,0.002,0.98175,-0.14,0.74,0.0,28620.0,-3210.0,-33520.0
32.7643212,35.016481,483.07,-0.05575,-0.02575,1.0005,-0.42,-0.58,-0.02,28620.0,-3200.0,-33530.0
32.7643212,35.016481,483.07,-0.04825,-0.014,1.0135,0.32,-0.32,-0.06,28550.0,-3130.0,-33520.0
32.7643212,35.016481,483.07,-0.0535,0.01875,0.99675,0.44,0.68,0.02,28580.0,-3180.0,-33520.0
32.7643212,35.016481,483.07,-0.05325,0.0065,0.98125,-0.26,0.12,0.0,28640.0,-3250.0,-33520.0
32.7643212,35.016481,483.07,-0.0445,-0.026,0.99875,-0.38,-0.72,0.0,28600.0,-3190.0,-33520.0
32.7643212,35.016481,483.07,-0.0465,-0.00575,1.00525,0.46,0.26,0.06,28540.0,-3090.0,-33520.0
32.7643212,35.016481,483.07,-0.064,0.01975,0.9865,0.4,0.82,0.06,28560.0,-3130.0,-33530.0
32.7643212,35.016481,483.07,-0.062,0.00025,0.9955,-0.42,-0.38,-0.02,28590.0,-3170.0,-33520.0
32.7643212,35.016481,483.07,-0.05225,-0.011,1.01075,-0.1,-0.68,-0.02,28620.0,-3230.0,-33520.0
32.7643212,35.016481,483.07,-0.05775,0.0085,0.997,0.38,0.48,0.06,28610.0,-3230.0,-33520.0
32.7643212,35.016481,483.06,-0.05825,0.01125,0.98275,0.0,0.4,0.02,28620.0,-3180.0,-33540.0
32.7643212,35.016481,483.06,-0.04475,-0.01,0.9965,-0.32,-0.86,-0.02,28620.0,-3160.0,-33540.0
32.7643212,35.016481,483.06,-0.0415,0.00075,1.01025,0.18,-0.24,0.02,28620.0,-3180.0,-33530.0
32.7643212,35.016481,483.06,-0.0575,0.02275,0.989,0.32,0.86,0.02,28620.0,-3190.0,-33530.0
32.7643212,35.016481,483.06,-0.06625,-0.00125,0.9855,-0.44,0.08,0.02,28550.0,-3110.0,-33520.0
32.7643212,35.016481,483.06,-0.05275,-0.01825,1.013,-0.16,-0.86,-0.06,28530.0,-3130.0,-33530.0
32.7643212,35.016481,483.06,-0.0495,0.013,1.00925,0.54,0.06,-0.06,28580.0,-3210.0,-33520.0
32.7643212,35.016481,483.06,-0.05525,0.0285,0.98625,0.14,0.56,0.06,28610.0,-3240.0,-33520.0
32.7643212,35.016481,483.06,-0.04675,-0.00525,0.98875,-0.56,-0.48,-0.02,28640.0,-3270.0,-33520.0
32.7643212,35.016481,483.06,-0.039,-0.016,1.0085,-0.04,-0.54,-0.06,28640.0,-3230.0,-33520.0
32.7643212,35.016481,483.06,-0.04875,0.015,1.00075,0.48,0.64,0.04,28640.0,-3180.0,-33540.0
32.7643212,35.016481,483.06,-0.05925,0.0175,0.987,-0.08,0.44,-0.02,28620.0,-3210.0,-33530.0
32.7643212,35.016481,483.06,-0.05375,-0.0095,1.00625,-0.52,-0.66,-0.04,28590.0,-3230.0,-33520.0
32.7643212,35.016481,483.06,-0.049,-0.0025,1.00875,0.12,-0.18,-0.02,28570.0,-3210.0,-33520.0
32.7643212,35.016481,483.06,-0.05825,0.01425,0.98775,0.2,0.7,0.0,28580.0,-3220.0,-33520.0
32.7643212,35.016481,483.06,-0.04725,-0.002,0.9885,-0.34,-0.24,0.02,28600.0,-3240.0,-33540.0
32.7643212,35.016481,483.06,-0.035,-0.013,1.007,-0.26,-0.8,0.04,28580.0,-3170.0,-33540.0
32.7643212,35.016481,483.06,-0.0425,0.00825,1.00375,0.26,0.5,-0.04,28560.0,-3190.0,-33550.0
32.7643212,35.016481,483.06,-0.05925,0.01025,0.98225,-0.06,0.82,0.06,28580.0,-3230.0,-33540.0
32.7643212,35.016481,483.06,-0.05925,-0.0205,0.99675,-0.5,-0.5,0.02,28560.0,-3220.0,-33540.0
32.7643213,35.0164811,483.06,-0.0485,-0.01375,1.0165,0.06,-0.5,-0.04,28610.0,-3300.0,-33550.0
32.7643213,35.0164811,483.06,-0.05425,0.021,0.995,0.46,0.62,-0.04,28630.0,-3300.0,-33540.0
32.7643213,35.0164811,483.06,-0.05375,0.00675,0.981,-0.36,0.18,0.02,28570.0,-3260.0,-33520.0
32.7643213,35.0164811,483.06,-0.043,-0.02375,0.99925,-0.46,-0.84,0.04,28550.0,-3260.0,-33520.0
32.7643213,35.0164811,483.06,-0.04525,-0.00875,1.00825,0.4,0.1,0.02,28550.0,-3250.0,-33510.0
32.7643213,35.0164811,483.06,-0.05925,0.01925,0.99175,0.32,0.82,0.06,28560.0,-3230.0,-33510.0
32.7643213,35.0164811,483.06,-0.06075,-0.00075,0.98875,-0.36,-0.26,-0.02,28540.0,-3210.0,-33520.0
32.7643213,35.0164811,483.06,-0.05275,-0.01875,1.01225,-0.3,-0.6,-0.08,28620.0,-3320.0,-33500.0
32.7643213,35.0164811,483.06,-0.05475,0.00525,1.0,0.36,0.48,0.04,28710.0,-3440.0,-33480.0
32.7643213,35.0164811,483.06,-0.0605,0.00725,0.982,-0.02,0.4,-0.02,28710.0,-3430.0,-33470.0
32.7643213,35.0164811,483.06,-0.044,-0.015,0.999,-0.4,-0.78,-0.02,28740.0,-3490.0,-33470.0
32.7643213,35.0164811,483.06,-0.04025,-0.00475,1.00975,0.22,-0.26,-0.04,28760.0,-3560.0,-33460.0
32.7643213,35.0164811,483.06,-0.0575,0.015,0.991,0.26,0.98,0.12,28710.0,-3500.0,-33460.0
32.7643213,35.0164811,483.06,-0.063,-0.00575,0.98275,-0.36,0.1,0.02,28640.0,-3420.0,-33480.0
32.7643213,35.0164811,483.06,-0.055,-0.025,1.0105,-0.2,-0.88,0.02,28610.0,-3340.0,-33490.0
32.7643213,35.0164811,483.06,-0.04825,0.00925,1.01125,0.54,0.08,-0.04,28570.0,-3310.0,-33510.0
32.7643213,35.0164811,483.06,-0.05525,0.0245,0.983,0.26,0.58,0.04,28610.0,-3350.0,-33520.0
32.7643213,35.0164811,483.06,-0.04675,-0.011,0.987,-0.64,-0.5,0.0,28650.0,-3380.0,-33520.0
32.7643213,35.0164811,483.06,-0.04025,-0.0165,1.0105,0.1,-0.56,0.0,28560.0,-3270.0,-33510.0
32.7643213,35.0164811,483.05,-0.05375,0.016,0.99875,0.64,0.72,0.04,28510.0,-3210.0,-33510.0
32.7643213,35.0164811,483.05,-0.05925,0.018,0.9875,-0.1,0.42,0.02,28560.0,-3260.0,-33530.0
32.7643213,35.0164811,483.05,-0.054,-0.01125,1.001,-0.4,-0.78,0.02,28590.0,-3290.0,-33520.0
32.7643213,35.0164811,483.05,-0.04825,-0.00075,1.01225,0.16,-0.14,-0.02,28610.0,-3330.0,-33510.0
32.7643213,35.0164811,483.05,-0.056,0.019,0.98575,0.3,0.68,0.04,28600.0,-3330.0,-33510.0
32.7643213,35.0164811,483.05,-0.0505,-0.001,0.986,-0.38,-0.24,0.04,28550.0,-3250.0,-33510.0
32.7643213,35.0164811,483.05,-0.0365,-0.00975,1.01025,-0.16,-0.74,0.04,28560.0,-3220.0,-33510.0
32.7643213,35.0164811,483.05,-0.0465,0.01375,0.99975,0.38,0.54,0.02,28570.0,-3250.0,-33510.0
32.7643213,35.0164811,483.05,-0.0635,0.01125,0.983,-0.12,0.84,0.06,28580.0,-3250.0,-33510.0
32.7643213,35.0164811,483.05,-0.0575,-0.01875,0.9965,-0.38,-0.56,0.02,28510.0,-3170.0,-33500.0
32.7643213,35.0164811,483.05,-0.0475,-0.00675,1.0155,0.26,-0.5,-0.02,28490.0,-3160.0,-33510.0
32.7643213,35.0164811,483.05,-0.0505,0.027,0.99775,0.4,0.62,0.0,28510.0,-3180.0,-33520.0
32.7643213,35.0164811,483.05,-0.053,0.00825,0.9785,-0.38,0.18,0.0,28550.0,-3200.0,-33510.0
32.7643213,35.0164811,483.05,-0.0425,-0.023,1.001,-0.48,-0.8,-0.02,28580.0,-3240.0,-33510.0
32.7643213,35.0164811,483.05,-0.04475,-0.00075,1.00775,0.48,0.14,-0.02,28590.0,-3220.0,-33510.0
32.7643213,35.0164811,483.05,-0.0615,0.021,0.98925,0.18,0.88,0.06,28560.0,-3210.0,-33510.0
32.7643213,35.0164811,483.05,-0.05875,-0.0005,0.992,-0.52,-0.28,0.0,28600.0,-3240.0,-33520.0
32.7643213,35.0164811,483.05,-0.0535,-0.01225,1.0095,-0.12,-0.66,-0.02,28600.0,-3230.0,-33530.0
32.7643213,35.0164811,483.05,-0.055,0.00725,1.00325,0.28,0.52,0.02,28600.0,-3180.0,-33540.0
32.7643213,35.0164811,483.05,-0.055,0.00875,0.983,-0.1,0.28,-0.04,28600.0,-3200.0,-33540.0
32.7643213,35.0164811,483.05,-0.0425,-0.01525,0.99875,-0.46,-0.84,-0.04,28630.0,-3220.0,-33540.0
32.7643214,35.0164811,483.04,-0.038,-0.001,1.011,0.18,-0.08,0.02,28610.0,-3190.0,-33550.0
32.7643214,35.0164811,483.04,-0.05925,0.01425,0.98775,0.22,0.92,0.02,28590.0,-3150.0,-33550.0
32.7643214,35.0164811,483.04,-0.06425,-0.01175,0.98675,-0.5,0.08,0.02,28600.0,-3140.0,-33560.0
32.7643214,35.0164811,483.04,-0.054,-0.023,1.0115,-0.04,-0.9,-0.04,28580.0,-3110.0,-33550.0
32.7643214,35.0164811,483.04,-0.05075,0.012,1.0105,0.48,0.22,0.04,28600.0,-3190.0,-33530.0
32.7643214,35.0164811,483.04,-0.0535,0.0225,0.9845,0.0,0.6,0.04,28590.0,-3210.0,-33530.0
32.7643214,35.0164811,483.04,-0.0465,-0.019,0.9845,-0.68,-0.6,0.0,28590.0,-3170.0,-33520.0
32.7643214,35.0164811,483.04,-0.04075,-0.0185,1.011,0.06,-0.4,-0.04,28630.0,-3170.0,-33520.0
32.7643214,35.0164811,483.04,-0.0545,0.01675,0.9995,0.56,0.82,0.04,28660.0,-3210.0,-33530.0
32.7643214,35.0164811,483.04,-0.06375,0.0115,0.98725,-0.3,0.28,0.0,28660.0,-3210.0,-33530.0
32.7643214,35.0164811,483.04,-0.0525,-0.0145,1.0055,-0.42,-0.76,0.0,28670.0,-3220.0,-33540.0
32.7643214,35.0164811,483.04,-0.05,-0.0015,1.00725,0.3,0.0,-0.04,28640.0,-3230.0,-33530.0
32.7643214,35.0164811,483.04,-0.0555,0.0135,0.98825,0.18,0.66,0.0,28610.0,-3210.0,-33520.0
32.7643214,35.0164811,483.04,-0.046,-0.008,0.9875,-0.38,-0.46,0.02,28600.0,-3220.0,-33510.0
32.7643214,35.0164811,483.04,-0.03875,-0.00975,1.012,-0.04,-0.72,0.06,28590.0,-3230.0,-33510.0
32.7643214,35.0164811,483.04,-0.04725,0.0165,1.00025,0.42,0.74,0.02,28580.0,-3220.0,-33510.0
32.7643214,35.0164811,483.04,-0.065,0.00325,0.97925,-0.22,0.68,0.0,28580.0,-3210.0,-33520.0
32.7643214,35.0164811,483.04,-0.0565,-0.025,1.001,-0.42,-0.7,-0.02,28620.0,-3210.0,-33520.0
32.7643214,35.0164811,483.04,-0.04925,-0.0015,1.01425,0.52,-0.32,0.02,28630.0,-3210.0,-33520.0
32.7643214,35.0164811,483.04,-0.054,0.028,0.99375,0.3,0.66,0.08,28610.0,-3230.0,-33530.0
32.7643215,35.0164811,483.04,-0.04975,0.0015,0.9825,-0.5,-0.04,0.02,28630.0,-3240.0,-33540.0
32.7643215,35.0164811,483.04,-0.0415,-0.02125,1.002,-0.24,-0.8,-0.02,28630.0,-3220.0,-33530.0
32.7643215,35.0164811,483.04,-0.047,0.00375,1.008,0.52,0.5,-0.04,28580.0,-3190.0,-33520.0
32.7643215,35.0164811,483.04,-0.0605,0.02175,0.98775,0.16,0.76,0.0,28580.0,-3200.0,-33520.0
32.7643215,35.0164811,483.04,-0.05925,-0.005,0.9965,-0.46,-0.54,0.06,28570.0,-3210.0,-33510.0
32.7643215,35.0164811,483.04,-0.051,-0.00625,1.01275,0.02,-0.44,-0.04,28560.0,-3200.0,-33510.0
32.7643215,35.0164811,483.04,-0.0595,0.01325,0.99375,0.28,0.68,0.0,28570.0,-3230.0,-33510.0
32.7643215,35.0164811,483.04,-0.0535,0.0005,0.985,-0.3,0.04,0.0,28600.0,-3240.0,-33520.0
32.7643215,35.0164811,483.04,-0.0395,-0.01225,1.0025,-0.22,-0.88,-0.06,28580.0,-3190.0,-33510.0
32.7643215,35.0164811,483.04,-0.04125,0.00825,1.00825,0.26,0.16,0.02,28580.0,-3230.0,-33520.0
32.7643215,35.0164811,483.04,-0.05975,0.017,0.9865,0.1,0.96,0.06,28610.0,-3260.0,-33530.0
32.7643215,35.0164811,483.04,-0.06375,-0.0175,0.98775,-0.52,-0.36,-0.02,28600.0,-3260.0,-33520.0
32.7643215,35.0164811,483.04,-0.0515,-0.017,1.01475,0.12,-0.76,-0.02,28590.0,-3280.0,-33520.0
32.7643215,35.0164811,483.04,-0.05175,0.02175,1.0025,0.56,0.4,0.02,28570.0,-3250.0,-33520.0
32.7643215,35.0164811,483.04,-0.0545,0.01425,0.982,-0.32,0.4,-0.02,28540.0,-3190.0,-33510.0
32.7643215,35.0164811,483.04,-0.04275,-0.01975,0.99325,-0.5,-0.74,-0.04,28510.0,-3130.0,-33520.0
32.7643215,35.0164811,483.04,-0.042,-0.0095,1.00575,0.26,-0.14,0.04,28550.0,-3160.0,-33530.0
32.7643215,35.0164811,483.04,-0.05525,0.02025,0.9965,0.38,0.92,0.04,28590.0,-3210.0,-33540.0
32.7643215,35.0164811,483.04,-0.058,0.004,0.9895,-0.4,-0.08,-0.02,28600.0,-3260.0,-33550.0
32.7643215,35.0164811,483.04,-0.053,-0.014,1.0095,-0.28,-0.74,0.0,28640.0,-3280.0,-33550.0
32.7643215,35.0164811,483.03,-0.05225,0.00675,1.00375,0.38,0.36,0.04,28640.0,-3280.0,-33560.0
32.7643215,35.0164811,483.03,-0.0595,0.00825,0.98225,-0.08,0.48,0.02,28660.0,-3280.0,-33560.0
32.7643215,35.0164811,483.03,-0.04275,-0.0155,0.99625,-0.42,-0.76,0.0,28640.0,-3280.0,-33540.0
32.7643215,35.0164811,483.03,-0.0355,-0.00325,1.00875,0.26,-0.42,0.0,28620.0,-3260.0,-33540.0
32.7643215,35.0164811,483.03,-0.0515,0.0175,0.99275,0.28,0.92,0.0,28550.0,-3200.0,-33520.0
32.7643215,35.0164811,483.03,-0.06125,-0.00325,0.984,-0.4,0.28,0.04,28550.0,-3230.0,-33520.0
32.7643215,35.0164811,483.03,-0.0575,-0.02475,1.00625,-0.18,-0.8,0.0,28580.0,-3300.0,-33510.0
32.7643215,35.0164811,483.03,-0.0515,0.00725,1.014,0.5,0.0,-0.06,28570.0,-3260.0,-33520.0
32.7643215,35.0164811,483.03,-0.058,0.02675,0.9855,0.2,0.7,0.02,28560.0,-3240.0,-33530.0
32.7643215,35.0164811,483.03,-0.04975,-0.01075,0.98425,-0.64,-0.38,0.0,28540.0,-3220.0,-33530.0
32.7643215,35.0164811,483.03,-0.03875,-0.019,1.00725,0.04,-0.64,-0.04,28550.0,-3200.0,-33540.0
32.7643215,35.0164811,483.03,-0.049,0.01225,0.9985,0.54,0.6,-0.04,28570.0,-3230.0,-33530.0
32.7643215,35.0164811,483.03,-0.05825,0.0155,0.98975,-0.1,0.46,-0.02,28580.0,-3250.0,-33520.0
32.7643215,35.0164811,483.03,-0.05525,-0.01,1.0015,-0.34,-0.64,-0.06,28530.0,-3220.0,-33510.0
32.7643215,35.0164811,483.03,-0.054,-0.00325,1.01125,0.12,-0.16,-0.02,28530.0,-3240.0,-33510.0
32.7643215,35.0164811,483.03,-0.06175,0.016,0.98925,0.32,0.74,0.02,28560.0,-3280.0,-33520.0
32.7643215,35.0164811,483.03,-0.0545,-0.00425,0.98325,-0.38,-0.26,0.0,28570.0,-3290.0,-33510.0
32.7643215,35.0164811,483.03,-0.03675,-0.012,1.01175,-0.14,-0.88,-0.04,28610.0,-3310.0,-33510.0
32.7643215,35.0164811,483.03,-0.04175,0.01425,1.00275,0.44,0.5,0.02,28590.0,-3300.0,-33510.0
32.7643215,35.0164811,483.03,-0.0595,0.01025,0.98425,-0.26,0.84,0.04,28580.0,-3260.0,-33510.0
32.7643216,35.0164811,483.02,-0.0565,-0.0215,0.9955,-0.44,-0.58,0.0,28620.0,-3310.0,-33530.0
32.7643216,35.0164811,483.02,-0.0515,-0.00925,1.01475,0.28,-0.5,-0.04,28620.0,-3300.0,-33530.0
32.7643216,35.0164811,483.02,-0.0555,0.02625,0.99925,0.48,0.7,-0.02,28560.0,-3270.0,-33520.0
32.7643216,35.0164811,483.02,-0.05525,0.00875,0.979,-0.32,0.1,0.0,28540.0,-3250.0,-33510.0
32.7643216,35.0164811,483.02,-0.044,-0.0235,1.00025,-0.36,-0.84,-0.08,28550.0,-3260.0,-33510.0
32.7643216,35.0164811,483.02,-0.042,-0.00125,1.008,0.48,0.16,0.02,28590.0,-3280.0,-33510.0
32.7643216,35.0164811,483.02,-0.0585,0.021,0.98925,0.3,0.82,0.04,28600.0,-3320.0,-33510.0
32.7643216,35.0164811,483.02,-0.056,-0.00125,0.99375,-0.5,-0.34,-0.02,28600.0,-3300.0,-33510.0
32.7643216,35.0164811,483.02,-0.0515,-0.01075,1.009,-0.14,-0.64,0.02,28550.0,-3270.0,-33510.0
32.7643216,35.0164811,483.02,-0.05725,0.00875,1.00125,0.26,0.58,0.04,28530.0,-3200.0,-33510.0
32.7643216,35.0164811,483.02,-0.05675,0.00675,0.98175,-0.18,0.34,0.04,28540.0,-3220.0,-33520.0
32.7643216,35.0164811,483.02,-0.04275,-0.01575,0.99975,-0.36,-0.96,0.0,28570.0,-3230.0,-33510.0
32.7643216,35.0164811,483.02,-0.03625,0.00175,1.01125,0.28,-0.14,0.02,28560.0,-3260.0,-33510.0
32.7643216,35.0164811,483.02,-0.055,0.0175,0.989,0.14,0.96,0.02,28630.0,-3370.0,-33480.0
32.7643216,35.0164811,483.02,-0.06225,-0.012,0.9845,-0.52,0.04,0.04,28670.0,-3430.0,-33470.0
32.7643216,35.0164811,483.02,-0.0525,-0.02175,1.01275,0.0,-0.82,-0.04,28670.0,-3400.0,-33470.0
32.7643216,35.0164811,483.02,-0.05225,0.013,1.009,0.6,0.28,0.04,28730.0,-3430.0,-33470.0
32.7643216,35.0164811,483.02,-0.054,0.02125,0.987,-0.06,0.58,-0.02,28770.0,-3450.0,-33480.0
32.7643216,35.0164811,483.02,-0.04575,-0.01525,0.98625,-0.6,-0.64,-0.04,28730.0,-3400.0,-33490.0
32.7643216,35.0164811,483.02,-0.04,-0.017,1.0095,0.1,-0.38,0.02,28680.0,-3320.0,-33520.0
32.7643216,35.0164811,483.02,-0.05275,0.01675,0.9985,0.56,0.86,0.08,28690.0,-3310.0,-33530.0
32.7643216,35.0164811,483.02,-0.06175,0.01,0.9865,-0.28,0.28,-0.04,28670.0,-3230.0,-33540.0
32.7643216,35.0164811,483.02,-0.054,-0.01425,1.00775,-0.32,-0.76,-0.04,28650.0,-3200.0,-33540.0
32.7643216,35.0164811,483.02,-0.0525,0.002,1.00625,0.38,0.08,0.04,28630.0,-3190.0,-33540.0
32.7643216,35.0164811,483.02,-0.05925,0.013,0.98725,0.12,0.68,0.0,28600.0,-3170.0,-33520.0
32.7643216,35.0164811,483.02,-0.04725,-0.0085,0.98775,-0.38,-0.48,-0.06,28620.0,-3220.0,-33520.0
32.7643216,35.0164811,483.02,-0.038,-0.01,1.01075,-0.04,-0.76,0.02,28620.0,-3200.0,-33510.0
32.7643216,35.0164811,483.02,-0.048,0.016,1.0,0.36,0.74,0.06,28610.0,-3160.0,-33510.0
32.7643216,35.0164811,483.02,-0.06325,0.00325,0.98075,-0.26,0.58,0.04,28610.0,-3220.0,-33510.0
32.7643216,35.0164811,483.02,-0.05875,-0.02475,1.0015,-0.38,-0.7,-0.06,28640.0,-3270.0,-33520.0
32.7643216,35.0164811,483.02,-0.049,-0.00125,1.01425,0.46,-0.34,0.0,28640.0,-3240.0,-33530.0
32.7643216,35.0164811,483.02,-0.05675,0.0265,0.99125,0.38,0.66,0.04,28590.0,-3190.0,-33530.0
