Lat_GNSS,Long_GNSS,Height_GNSS,Acc_X,Acc_Y,Acc_Z,Gyro_X,Gyro_Y,Gyro_Z,Magn_X,Magn_Y,Magn_Z
32.7588716,35.0228544,478.09,-0.06225,0.035,1.011,0.3,0.02,0.02,22330.0,17910.0,-34200.0
32.7588716,35.0228544,478.09,-0.0655,0.0595,0.9965,0.44,0.58,0.02,22260.0,18060.0,-34190.0
32.7588716,35.0228544,478.09,-0.05925,0.043,0.98425,-0.18,0.32,0.02,22260.0,18010.0,-34200.0
32.7588716,35.0228544,478.09,-0.05925,0.0235,0.96125,0.16,-0.52,-0.06,22270.0,17980.0,-34200.0
32.7588716,35.0228544,478.09,-0.055,0.05425,1.00825,0.76,0.24,-0.04,22270.0,17970.0,-34200.0
32.7588716,35.0228544,478.09,-0.06475,0.0575,1.03,-0.1,1.02,-0.02,22330.0,17910.0,-34200.0
32.7588716,35.0228544,478.09,-0.076,0.026,0.98925,-0.22,0.26,0.02,22340.0,17940.0,-34200.0
32.7588716,35.0228544,478.09,-0.067,0.035,0.97525,0.1,-0.82,-0.04,22310.0,18030.0,-34190.0
32.7588716,35.0228544,478.09,-0.0605,0.07025,0.99525,0.46,-0.24,0.04,22300.0,18070.0,-34190.0
32.7588716,35.0228544,478.09,-0.06,0.05975,1.00125,0.02,0.5,0.02,22310.0,18060.0,-34190.0
32.7588716,35.0228544,478.09,-0.06225,0.0235,0.98775,-0.48,0.16,-0.06,22300.0,18060.0,-34190.0
32.7588716,35.0228544,478.09,-0.0635,0.045,0.9925,0.42,-0.3,-0.04,22270.0,18160.0,-34190.0
32.7588716,35.0228544,478.09,-0.06675,0.0725,0.99975,0.24,0.34,0.04,22290.0,18130.0,-34180.0
32.7588716,35.0228544,478.09,-0.06825,0.0485,0.998,-0.26,0.36,-0.02,22330.0,18010.0,-34190.0
32.7588716,35.0228544,478.09,-0.06825,0.028,0.99825,-0.2,-0.18,0.04,22350.0,17960.0,-34190.0
32.7588716,35.0228544,478.09,-0.06675,0.052,0.9935,0.3,-0.2,0.02,22320.0,17910.0,-34200.0
32.7588716,35.0228544,478.09,-0.06125,0.06125,0.99125,0.06,0.12,0.02,22310.0,17910.0,-34210.0
32.7588716,35.0228544,478.09,-0.05525,0.036,0.99275,-0.42,-0.2,-0.06,22330.0,17900.0,-34210.0
32.7588716,35.0228544,478.09,-0.05575,0.0335,0.998,0.02,-0.34,0.0,22350.0,17900.0,-34200.0
32.7588716,35.0228544,478.09,-0.06375,0.06125,0.9985,0.38,0.22,-0.04,22340.0,17880.0,-34200.0
32.7588716,35.0228544,478.09,-0.0675,0.04675,0.9905,-0.26,0.38,-0.04,22310.0,17880.0,-34200.0
32.7588716,35.0228544,478.09,-0.064,0.0185,0.996,-0.28,-0.3,-0.02,22330.0,18050.0,-34190.0
32.7588716,35.0228544,478.09,-0.0595,0.043,1.00625,0.36,-0.38,0.02,22320.0,18100.0,-34180.0
32.7588716,35.0228544,478.09,-0.06,0.0685,0.9985,0.26,0.36,0.04,22320.0,17940.0,-34190.0
32.7588716,35.0228544,478.09,-0.057,0.03725,0.9845,-0.58,0.12,-0.02,22340.0,17810.0,-34200.0
32.7588716,35.0228544,478.09,-0.055,0.01475,0.99325,-0.22,-0.42,0.0,22330.0,17810.0,-34200.0
32.7588716,35.0228544,478.09,-0.058,0.05125,1.00875,0.54,0.0,0.06,22310.0,17830.0,-34210.0
32.7588716,35.0228544,478.09,-0.06525,0.062,0.9985,0.1,0.62,0.04,22320.0,17790.0,-34210.0
32.7588716,35.0228544,478.09,-0.067,0.02775,0.98575,-0.56,0.06,0.02,22370.0,17810.0,-34200.0
32.7588716,35.0228544,478.09,-0.065,0.0275,0.99925,0.04,-0.48,0.02,22340.0,17780.0,-34200.0
32.7588716,35.0228544,478.09,-0.0645,0.058,1.00575,0.38,0.12,0.0,22340.0,17770.0,-34210.0
32.7588716,35.0228544,478.08,-0.0595,0.04625,0.991,-0.24,0.28,0.02,22310.0,17910.0,-34200.0
32.7588716,35.0228544,478.08,-0.05525,0.02425,0.989,-0.3,-0.48,0.04,22280.0,18030.0,-34190.0
32.7588716,35.0228544,478.08,-0.05825,0.048,1.0005,0.32,-0.18,0.04,22250.0,17940.0,-34200.0
32.7588716,35.0228544,478.08,-0.06875,0.05825,0.99775,0.08,0.56,0.0,22270.0,17820.0,-34210.0
32.7588716,35.0228544,478.08,-0.0715,0.02775,0.989,-0.38,0.14,-0.02,22270.0,17790.0,-34210.0
32.7588716,35.0228544,478.08,-0.0675,0.027,0.997,0.04,-0.7,0.02,22250.0,17800.0,-34210.0
32.7588716,35.0228544,478.08,-0.064,0.066,1.005,0.44,-0.18,-0.04,22290.0,17750.0,-34210.0
32.7588716,35.0228544,478.08,-0.062,0.06225,0.99275,-0.2,0.24,0.04,22300.0,17760.0,-34210.0
32.7588716,35.0228544,478.08,-0.06025,0.02325,0.9855,-0.5,-0.28,0.0,22310.0,17760.0,-34210.0
32.7588716,35.0228544,478.08,-0.05975,0.0345,0.99975,0.14,-0.52,0.02,22320.0,17740.0,-34210.0
32.7588716,35.0228544,478.08,-0.06425,0.068,1.0045,0.3,0.2,0.02,22310.0,17830.0,-34200.0
32.7588716,35.0228544,478.08,-0.06625,0.05025,0.992,-0.38,0.16,-0.06,22310.0,17790.0,-34200.0
32.7588716,35.0228544,478.08,-0.06675,0.024,0.99425,-0.4,-0.54,-0.04,22280.0,17770.0,-34210.0
32.7588716,35.0228544,478.08,-0.06425,0.046,1.00325,0.26,-0.42,-0.08,22270.0,17760.0,-34210.0
32.7588716,35.0228544,478.08,-0.06175,0.0595,0.99375,0.1,0.14,-0.04,22230.0,17790.0,-34220.0
32.7588716,35.0228544,478.08,-0.0545,0.035,0.98975,-0.5,-0.36,0.06,22220.0,17870.0,-34210.0
32.7588716,35.0228544,478.08,-0.053,0.036,1.002,-0.02,-0.6,-0.02,22240.0,17910.0,-34200.0
32.7588716,35.0228544,478.08,-0.06125,0.06575,1.00125,0.24,0.16,0.08,22220.0,17910.0,-34210.0
32.7588716,35.0228544,478.08,-0.06725,0.05,0.989,-0.38,0.2,0.06,22220.0,17890.0,-34210.0
32.7588716,35.0228544,478.08,-0.06425,0.0235,0.99975,-0.46,-0.64,-0.02,22260.0,17870.0,-34210.0
32.7588716,35.0228544,478.09,-0.06,0.05175,1.012,0.24,-0.56,0.08,22260.0,18010.0,-34200.0
32.7588716,35.0228544,478.09,-0.06125,0.07725,0.994,0.16,0.2,0.0,22230.0,18020.0,-34200.0
32.7588716,35.0228544,478.09,-0.06025,0.0405,0.98025,-0.76,-0.14,0.08,22230.0,17960.0,-34200.0
32.7588716,35.0228544,478.09,-0.05775,0.02,1.00125,-0.48,-0.66,0.08,22330.0,17770.0,-34220.0
32.7588716,35.0228544,478.09,-0.06225,0.057,1.007,0.34,-0.06,0.08,22430.0,17560.0,-34230.0
32.7588716,35.0228544,478.09,-0.067,0.06275,0.98575,-0.26,0.44,0.02,22500.0,17450.0,-34230.0
32.7588716,35.0228544,478.09,-0.06825,0.02825,0.9895,-0.76,-0.34,0.06,22550.0,17420.0,-34230.0
32.7588716,35.0228544,478.09,-0.06625,0.02925,1.006,-0.04,-0.56,0.02,22520.0,17400.0,-34240.0
32.7588716,35.0228544,478.09,-0.067,0.0545,0.99275,0.26,0.22,0.08,22480.0,17480.0,-34230.0
32.7588716,35.0228544,478.09,-0.0605,0.04025,0.9795,-0.44,0.04,0.0,22420.0,17650.0,-34220.0
32.7588716,35.0228544,478.09,-0.054,0.024,0.999,-0.38,-0.72,-0.06,22420.0,17830.0,-34200.0
32.7588716,35.0228544,478.09,-0.05775,0.0475,1.00375,0.3,-0.04,0.06,22390.0,17860.0,-34200.0
32.7588716,35.0228544,478.09,-0.06775,0.05,0.982,-0.02,0.58,0.08,22360.0,17850.0,-34200.0
32.7588716,35.0228544,478.09,-0.06775,0.021,0.9875,-0.5,-0.16,0.02,22320.0,17880.0,-34210.0
32.7588716,35.0228544,478.09,-0.06325,0.026,1.01125,0.24,-0.5,0.02,22330.0,17870.0,-34210.0
32.7588716,35.0228544,478.09,-0.06225,0.06275,1.001,0.44,0.26,-0.02,22360.0,17870.0,-34210.0
32.7588716,35.0228544,478.09,-0.06075,0.0515,0.981,-0.36,0.24,0.14,22290.0,17980.0,-34210.0
32.7588716,35.0228544,478.09,-0.0555,0.01875,0.9955,-0.46,-0.42,-0.02,22260.0,18020.0,-34200.0
32.7588716,35.0228544,478.09,-0.05475,0.0385,1.008,0.3,-0.08,0.04,22300.0,18040.0,-34200.0
32.7588716,35.0228544,478.09,-0.06375,0.06525,0.99575,0.3,0.58,0.02,22310.0,18050.0,-34200.0
32.7588715,35.0228545,478.07,-0.067,0.045,0.99275,-0.44,0.06,0.02,22340.0,18130.0,-34180.0
32.7588715,35.0228545,478.07,-0.0645,0.02775,1.00675,-0.2,-0.48,-0.04,22330.0,18250.0,-34170.0
32.7588715,35.0228545,478.07,-0.06625,0.05175,1.00175,0.28,0.3,0.04,22280.0,18280.0,-34170.0
32.7588715,35.0228545,478.07,-0.06575,0.0565,0.9885,-0.06,0.32,0.02,22300.0,18190.0,-34180.0
32.7588715,35.0228545,478.07,-0.05425,0.03225,0.9975,-0.46,-0.5,-0.08,22330.0,18120.0,-34180.0
32.7588715,35.0228545,478.07,-0.051,0.0415,1.0075,0.08,-0.34,-0.04,22310.0,18060.0,-34200.0
32.7588715,35.0228545,478.07,-0.065,0.06275,0.991,0.26,0.72,0.04,22240.0,18100.0,-34200.0
32.7588715,35.0228545,478.07,-0.06875,0.039,0.985,-0.36,0.22,-0.02,22290.0,18080.0,-34190.0
32.7588715,35.0228545,478.07,-0.0635,0.022,1.009,-0.18,-0.7,-0.04,22330.0,18040.0,-34190.0
32.7588715,35.0228545,478.07,-0.06325,0.05425,1.00725,0.46,0.12,-0.06,22370.0,17990.0,-34190.0
32.7588715,35.0228545,478.07,-0.0655,0.0675,0.978,0.1,0.48,-0.02,22360.0,18080.0,-34180.0
32.7588715,35.0228545,478.07,-0.059,0.03225,0.98375,-0.56,-0.46,-0.02,22320.0,18060.0,-34190.0
32.7588715,35.0228545,478.07,-0.05475,0.0265,1.00975,0.02,-0.44,0.02,22310.0,17980.0,-34200.0
32.7588715,35.0228545,478.07,-0.06325,0.05975,0.99425,0.54,0.54,0.0,22330.0,18000.0,-34200.0
32.7588715,35.0228545,478.07,-0.0655,0.05675,0.979,-0.28,0.26,0.0,22350.0,17970.0,-34200.0
32.7588715,35.0228545,478.07,-0.062,0.03,1.004,-0.5,-0.64,0.02,22350.0,17970.0,-34200.0
32.7588715,35.0228545,478.07,-0.063,0.04175,1.0095,0.2,0.12,0.06,22330.0,17930.0,-34200.0
32.7588715,35.0228545,478.07,-0.06825,0.06,0.98025,0.22,0.58,0.02,22320.0,18030.0,-34190.0
32.7588715,35.0228545,478.07,-0.058,0.04025,0.98475,-0.54,-0.48,0.0,22300.0,18140.0,-34180.0
32.7588715,35.0228545,478.07,-0.0495,0.03325,1.014,-0.24,-0.6,-0.1,22330.0,18050.0,-34190.0
32.7588716,35.0228545,478.07,-0.06025,0.058,0.99975,0.28,0.66,0.1,22330.0,18160.0,-34180.0
32.7588716,35.0228545,478.07,-0.0705,0.051,0.9775,-0.28,0.56,0.02,22280.0,18180.0,-34180.0
32.7588716,35.0228545,478.07,-0.06425,0.02225,1.0035,-0.6,-0.66,0.0,22330.0,18040.0,-34190.0
32.7588716,35.0228545,478.07,-0.0585,0.0375,1.0195,0.24,-0.24,0.0,22360.0,17970.0,-34190.0
32.7588716,35.0228545,478.07,-0.06425,0.06725,0.988,0.24,0.7,0.02,22350.0,17950.0,-34200.0
32.7588716,35.0228545,478.07,-0.06075,0.04425,0.97925,-0.56,-0.04,0.0,22330.0,17940.0,-34200.0
32.7588716,35.0228545,478.07,-0.05325,0.01825,1.0105,-0.5,-0.68,-0.04,22320.0,17940.0,-34200.0
32.7588716,35.0228545,478.07,-0.06025,0.04625,1.00825,0.4,0.42,-0.04,22310.0,17970.0,-34190.0
32.7588716,35.0228545,478.07,-0.071,0.06125,0.98175,0.04,0.64,-0.02,22360.0,17930.0,-34190.0
32.7588716,35.0228545,478.07,-0.06575,0.034,0.998,-0.58,-0.46,-0.02,22360.0,17950.0,-34190.0
32.7588716,35.0228545,478.07,-0.06125,0.02925,1.01925,-0.12,-0.28,-0.04,22300.0,18100.0,-34190.0
32.7588716,35.0228545,478.07,-0.06725,0.0545,0.9915,0.3,0.64,0.06,22250.0,18060.0,-34190.0
32.7588716,35.0228545,478.07,-0.0645,0.04775,0.977,-0.34,0.04,-0.06,22340.0,17940.0,-34190.0
32.7588716,35.0228545,478.07,-0.05225,0.0285,1.01125,-0.48,-0.8,0.0,22350.0,17920.0,-34190.0
32.7588716,35.0228545,478.07,-0.05775,0.0475,1.01325,0.18,0.22,0.02,22340.0,17890.0,-34200.0
32.7588716,35.0228545,478.07,-0.0755,0.0585,0.9775,-0.06,0.84,0.06,22340.0,17930.0,-34190.0
32.7588716,35.0228545,478.07,-0.073,0.03075,0.98975,-0.74,-0.34,-0.08,22320.0,17990.0,-34190.0
32.7588716,35.0228545,478.07,-0.0605,0.02775,1.02475,-0.16,-0.74,0.02,22340.0,17980.0,-34190.0
32.7588716,35.0228545,478.07,-0.0625,0.06375,1.00625,0.32,0.5,0.02,22340.0,17990.0,-34190.0
32.7588716,35.0228545,478.07,-0.06425,0.06525,0.97675,-0.32,0.32,-0.04,22320.0,18010.0,-34190.0
32.7588715,35.0228545,478.08,-0.05525,0.03,1.00075,-0.74,-0.76,-0.04,22340.0,18050.0,-34180.0
32.7588715,35.0228545,478.08,-0.0565,0.03675,1.02125,-0.1,-0.14,-0.02,22350.0,18080.0,-34170.0
32.7588715,35.0228545,478.08,-0.07,0.07,0.987,0.26,0.84,0.06,22370.0,17980.0,-34180.0
32.7588715,35.0228545,478.08,-0.06825,0.056,0.98225,-0.62,-0.1,-0.04,22310.0,17970.0,-34190.0
32.7588715,35.0228545,478.08,-0.061,0.03325,1.01525,-0.68,-0.7,-0.04,22340.0,17910.0,-34190.0
32.7588715,35.0228545,478.08,-0.06325,0.049,1.00525,0.02,0.36,0.0,22360.0,17890.0,-34190.0
32.7588715,35.0228545,478.08,-0.06775,0.0595,0.9705,-0.1,0.4,-0.02,22350.0,17890.0,-34190.0
32.7588715,35.0228545,478.08,-0.05575,0.03875,0.99025,-0.72,-0.62,-0.06,22340.0,17890.0,-34190.0
32.7588715,35.0228545,478.08,-0.05175,0.03725,1.01875,-0.38,-0.46,-0.02,22330.0,17910.0,-34200.0
32.7588715,35.0228545,478.08,-0.066,0.0565,0.989,-0.02,0.74,-0.04,22290.0,17950.0,-34200.0
32.7588715,35.0228545,478.08,-0.07375,0.041,0.9735,-0.64,0.2,0.04,22320.0,18050.0,-34180.0
32.7588715,35.0228545,478.08,-0.066,0.02125,1.004,-0.6,-0.76,-0.08,22320.0,18140.0,-34170.0
32.7588715,35.0228545,478.08,-0.06175,0.04225,1.01025,0.08,-0.16,-0.06,22270.0,18090.0,-34180.0
32.7588715,35.0228545,478.08,-0.0665,0.06025,0.97675,-0.04,0.54,0.0,22300.0,18010.0,-34190.0
32.7588715,35.0228545,478.08,-0.061,0.03225,0.97625,-0.8,-0.36,-0.02,22320.0,17970.0,-34190.0
32.7588715,35.0228545,478.08,-0.054,0.01475,1.005,-0.4,-0.56,-0.06,22350.0,17930.0,-34190.0
32.7588715,35.0228545,478.08,-0.0585,0.03975,0.99375,0.3,0.38,0.02,22370.0,17970.0,-34180.0
32.7588715,35.0228545,478.08,-0.065,0.04675,0.97525,-0.1,0.38,0.02,22360.0,17980.0,-34190.0
32.7588715,35.0228545,478.08,-0.06175,0.02575,0.99475,-0.52,-0.54,0.0,22330.0,18100.0,-34180.0
32.7588715,35.0228545,478.08,-0.0605,0.02725,1.0025,0.0,-0.2,0.04,22310.0,18130.0,-34180.0
32.7588715,35.0228546,478.07,-0.066,0.04475,0.98025,0.32,0.46,0.06,22320.0,18190.0,-34170.0
32.7588715,35.0228546,478.07,-0.059,0.035,0.98075,-0.32,-0.24,-0.04,22320.0,18250.0,-34170.0
32.7588715,35.0228546,478.07,-0.0485,0.023,1.00525,-0.26,-0.64,-0.04,22330.0,18160.0,-34180.0
32.7588715,35.0228546,478.07,-0.0515,0.0405,0.9955,0.24,0.26,0.04,22330.0,18080.0,-34180.0
32.7588715,35.0228546,478.07,-0.06425,0.0445,0.975,-0.04,0.58,0.04,22350.0,18000.0,-34190.0
32.7588715,35.0228546,478.07,-0.06175,0.019,0.9965,-0.44,-0.32,-0.04,22380.0,17970.0,-34190.0
32.7588715,35.0228546,478.07,-0.05625,0.0175,1.01475,0.12,-0.38,0.04,22360.0,17990.0,-34190.0
32.7588715,35.0228546,478.07,-0.05725,0.0505,0.994,0.56,0.4,0.0,22330.0,18010.0,-34190.0
32.7588715,35.0228546,478.07,-0.0605,0.0485,0.98575,-0.12,0.16,0.02,22340.0,18030.0,-34190.0
32.7588715,35.0228546,478.07,-0.05425,0.01625,1.009,-0.4,-0.42,-0.02,22350.0,18020.0,-34190.0
32.7588715,35.0228546,478.07,-0.052,0.028,1.0115,0.44,0.02,-0.04,22360.0,18120.0,-34180.0
32.7588715,35.0228546,478.07,-0.06375,0.06425,0.999,0.52,0.58,-0.06,22310.0,18110.0,-34190.0
32.7588715,35.0228546,478.07,-0.066,0.054,0.99975,-0.3,0.02,0.0,22330.0,18060.0,-34190.0
32.7588715,35.0228546,478.07,-0.063,0.0285,1.019,-0.38,-0.4,-0.02,22370.0,18070.0,-34180.0
32.7588715,35.0228546,478.07,-0.06675,0.04925,1.0085,0.34,0.3,-0.04,22380.0,18070.0,-34180.0
32.7588715,35.0228546,478.07,-0.07275,0.06625,0.99175,0.08,0.4,-0.06,22390.0,18030.0,-34190.0
32.7588715,35.0228546,478.07,-0.06425,0.04025,1.00325,-0.52,-0.4,-0.02,22380.0,18060.0,-34190.0
32.7588715,35.0228546,478.07,-0.0585,0.0395,1.019,-0.18,-0.34,-0.1,22360.0,18080.0,-34190.0
32.7588715,35.0228546,478.07,-0.071,0.07,1.004,0.16,0.62,0.0,22380.0,18060.0,-34190.0
32.7588715,35.0228546,478.07,-0.0785,0.05925,0.9945,-0.64,0.36,-0.12,22330.0,18090.0,-34200.0
32.7588715,35.0228545,478.08,-0.07,0.03625,1.02125,-0.68,-0.72,-0.08,22290.0,18250.0,-34190.0
32.7588715,35.0228545,478.08,-0.06475,0.0615,1.0295,-0.14,-0.18,-0.08,22280.0,18330.0,-34180.0
32.7588715,35.0228545,478.08,-0.07175,0.08675,1.003,-0.4,0.6,-0.04,22290.0,18220.0,-34190.0
32.7588715,35.0228545,478.08,-0.07,0.05325,1.00225,-1.3,-0.2,-0.04,22280.0,18230.0,-34190.0
32.7588715,35.0228545,478.08,-0.06175,0.03475,1.023,-1.0,-0.66,-0.1,22270.0,18200.0,-34200.0
32.7588715,35.0228545,478.08,-0.06525,0.06075,1.01275,-0.34,0.24,-0.02,22250.0,18230.0,-34190.0
32.7588715,35.0228545,478.08,-0.0725,0.0605,0.99125,-0.88,0.44,-0.04,22230.0,18250.0,-34200.0
32.7588715,35.0228545,478.08,-0.0735,0.032,1.00675,-1.26,-0.56,-0.04,22220.0,18240.0,-34190.0
32.7588715,35.0228545,478.08,-0.07125,0.03475,1.014,-0.6,-0.36,-0.08,22330.0,18070.0,-34200.0
32.7588715,35.0228545,478.08,-0.07675,0.05075,0.9875,-0.2,0.36,0.02,22420.0,17910.0,-34200.0
32.7588715,35.0228545,478.08,-0.0715,0.038,0.98675,-0.78,-0.38,-0.12,22490.0,17910.0,-34200.0
32.7588715,35.0228545,478.08,-0.061,0.031,1.004,-0.62,-0.9,-0.14,22520.0,17810.0,-34200.0
32.7588715,35.0228545,478.08,-0.064,0.04975,0.989,0.06,-0.02,-0.1,22530.0,17680.0,-34210.0
32.7588715,35.0228545,478.08,-0.07525,0.04375,0.978,-0.4,0.24,-0.04,22500.0,17700.0,-34210.0
32.7588715,35.0228545,478.08,-0.076,0.025,0.9955,-0.54,-0.64,0.0,22390.0,17860.0,-34210.0
32.7588715,35.0228545,478.08,-0.068,0.035,1.0035,-0.08,-0.74,0.02,22300.0,18080.0,-34200.0
32.7588715,35.0228545,478.08,-0.06625,0.06075,0.97175,0.08,-0.06,0.0,22210.0,18260.0,-34190.0
32.7588715,35.0228545,478.08,-0.06375,0.04775,0.9775,-0.62,-0.44,0.12,22200.0,18250.0,-34190.0
32.7588715,35.0228545,478.08,-0.05775,0.0265,0.9955,-0.72,-0.86,0.06,22210.0,18250.0,-34180.0
32.7588715,35.0228545,478.08,-0.05875,0.03825,0.9835,-0.18,-0.4,0.12,22190.0,18230.0,-34190.0
32.7588715,35.0228545,478.08,-0.064,0.053,0.97,-0.3,-0.2,0.06,22200.0,18340.0,-34180.0
32.7588715,35.0228545,478.08,-0.05975,0.04,0.9935,-0.92,-0.62,0.08,22200.0,18430.0,-34160.0
32.7588715,35.0228545,478.08,-0.056,0.02325,1.0,-0.86,-0.8,0.12,22180.0,18500.0,-34160.0
32.7588715,35.0228545,478.08,-0.05725,0.03,0.971,-0.36,-0.4,0.08,22140.0,18420.0,-34170.0
32.7588715,35.0228545,478.08,-0.0495,0.0365,0.97325,-0.58,-0.5,0.0,22160.0,18370.0,-34170.0
32.7588715,35.0228545,478.08,-0.038,0.0165,1.00525,-0.82,-0.88,-0.04,22200.0,18260.0,-34180.0
32.7588715,35.0228545,478.08,-0.0405,0.01625,0.9955,-0.46,-0.5,-0.04,22220.0,18200.0,-34170.0
32.7588715,35.0228545,478.08,-0.05225,0.0315,0.97075,-0.14,0.0,0.0,22230.0,18150.0,-34170.0
32.7588715,35.0228545,478.08,-0.05275,0.02025,0.98475,-0.42,-0.32,-0.08,22220.0,18230.0,-34170.0
32.7588715,35.0228545,478.08,-0.0475,-0.0035,1.01175,-0.44,-0.56,-0.06,22230.0,18180.0,-34170.0
32.7588715,35.0228545,478.08,-0.04675,0.019,0.99,0.3,-0.26,-0.14,22240.0,18230.0,-34160.0
32.7588715,35.0228545,478.08,-0.0485,0.04175,0.9745,0.26,-0.02,-0.1,22240.0,18220.0,-34160.0
32.7588715,35.0228545,478.08,-0.04475,0.01675,0.99425,-0.46,-0.4,-0.06,22250.0,18120.0,-34170.0
32.7588715,35.0228545,478.08,-0.04225,0.0045,1.00475,-0.1,-0.28,-0.06,22250.0,18110.0,-34170.0
32.7588715,35.0228545,478.08,-0.048,0.0325,0.981,0.68,0.24,-0.08,22250.0,18090.0,-34180.0
32.7588715,35.0228545,478.08,-0.0545,0.041,0.98275,0.22,0.16,0.02,22240.0,18060.0,-34170.0
32.7588715,35.0228545,478.08,-0.05625,0.02,1.00625,-0.18,-0.12,0.0,22290.0,18010.0,-34170.0
32.7588715,35.0228545,478.08,-0.05475,0.0235,1.0005,0.34,-0.02,0.02,22270.0,18050.0,-34170.0
32.7588715,35.0228545,478.08,-0.05825,0.0485,0.98,0.58,0.32,0.04,22210.0,18150.0,-34170.0
32.7588715,35.0228545,478.08,-0.05625,0.04,0.98925,-0.2,0.08,0.08,22200.0,18150.0,-34170.0
32.7588715,35.0228546,478.08,-0.04925,0.02575,1.004,0.04,-0.2,0.0,22210.0,18240.0,-34160.0
32.7588715,35.0228546,478.08,-0.0525,0.0465,0.99025,0.52,0.3,0.08,22220.0,18270.0,-34160.0
32.7588715,35.0228546,478.08,-0.0665,0.061,0.98175,0.26,0.58,0.12,22220.0,18180.0,-34170.0
32.7588715,35.0228546,478.08,-0.0695,0.033,0.998,-0.22,0.14,0.0,22230.0,18120.0,-34180.0
32.7588715,35.0228546,478.08,-0.0635,0.02625,1.00975,0.18,-0.3,0.06,22220.0,18130.0,-34180.0
32.7588715,35.0228546,478.08,-0.063,0.064,0.99475,0.56,0.26,0.04,22230.0,18120.0,-34180.0
32.7588715,35.0228546,478.08,-0.06625,0.06825,0.9815,0.0,0.32,0.02,22210.0,18110.0,-34180.0
32.7588715,35.0228546,478.08,-0.05975,0.03025,0.998,-0.42,-0.32,0.02,22180.0,18130.0,-34190.0
32.7588715,35.0228546,478.08,-0.059,0.031,1.0105,0.18,-0.16,-0.02,22180.0,18110.0,-34180.0
32.7588715,35.0228546,478.08,-0.07025,0.06575,0.993,0.58,0.58,0.04,22220.0,18110.0,-34180.0
32.7588715,35.0228546,478.08,-0.07175,0.05975,0.9905,-0.08,0.14,0.02,22230.0,18210.0,-34170.0
32.7588715,35.0228546,478.08,-0.063,0.0315,1.0135,-0.4,-0.62,0.08,22230.0,18160.0,-34170.0
32.7588715,35.0228546,478.08,-0.06425,0.04325,1.0085,0.34,0.06,0.0,22220.0,18120.0,-34180.0
32.7588715,35.0228546,478.08,-0.068,0.06225,0.98225,0.24,0.42,-0.06,22190.0,18150.0,-34180.0
32.7588715,35.0228546,478.08,-0.057,0.041,0.99425,-0.4,-0.52,-0.02,22200.0,18100.0,-34190.0
32.7588715,35.0228546,478.08,-0.04975,0.0325,1.02,-0.2,-0.5,-0.08,22210.0,18170.0,-34180.0
32.7588715,35.0228546,478.08,-0.0595,0.05675,0.999,0.28,0.58,0.0,22180.0,18330.0,-34170.0
32.7588715,35.0228546,478.08,-0.07075,0.0525,0.975,-0.26,0.36,-0.02,22160.0,18360.0,-34160.0
32.7588715,35.0228546,478.08,-0.0635,0.02125,1.0035,-0.6,-0.68,-0.02,22160.0,18290.0,-34170.0
32.7588715,35.0228546,478.08,-0.05575,0.029,1.0175,0.18,-0.26,0.0,22160.0,18300.0,-34170.0
32.7588715,35.0228545,478.09,-0.061,0.063,0.98675,0.32,0.54,0.02,22150.0,18390.0,-34170.0
32.7588715,35.0228545,478.09,-0.05825,0.04375,0.97725,-0.5,-0.02,0.08,22120.0,18410.0,-34170.0
32.7588715,35.0228545,478.09,-0.05,0.01325,1.0045,-0.46,-0.64,0.0,22110.0,18340.0,-34170.0
32.7588715,35.0228545,478.09,-0.05175,0.03475,1.0055,0.38,0.22,0.02,22140.0,18320.0,-34180.0
32.7588715,35.0228545,478.09,-0.064,0.057,0.981,0.16,0.64,0.08,22170.0,18240.0,-34180.0
32.7588715,35.0228545,478.09,-0.06275,0.031,0.98725,-0.56,-0.26,0.0,22160.0,18210.0,-34180.0
32.7588715,35.0228545,478.09,-0.05775,0.0175,1.01,-0.1,-0.44,0.04,22150.0,18220.0,-34190.0
32.7588715,35.0228545,478.09,-0.0615,0.04475,0.9975,0.4,0.46,0.06,22180.0,18190.0,-34190.0
32.7588715,35.0228545,478.09,-0.06075,0.047,0.979,-0.18,0.16,0.04,22200.0,18180.0,-34180.0
32.7588715,35.0228545,478.09,-0.04975,0.02225,0.995,-0.52,-0.66,0.0,22210.0,18180.0,-34190.0
32.7588715,35.0228545,478.09,-0.04725,0.03,1.00675,0.18,-0.12,0.04,22220.0,18270.0,-34170.0
32.7588715,35.0228545,478.09,-0.064,0.05175,0.98825,0.24,0.8,0.04,22240.0,18320.0,-34160.0
32.7588715,35.0228545,478.09,-0.07,0.03025,0.9855,-0.44,0.08,0.04,22250.0,18220.0,-34170.0
32.7588715,35.0228545,478.09,-0.06075,0.01275,1.0095,-0.12,-0.68,-0.02,22280.0,18170.0,-34170.0
32.7588715,35.0228545,478.09,-0.056,0.045,1.0065,0.52,0.12,-0.04,22320.0,18170.0,-34170.0
32.7588715,35.0228545,478.09,-0.062,0.059,0.984,0.06,0.56,0.0,22300.0,18200.0,-34170.0
32.7588715,35.0228545,478.09,-0.0585,0.024,0.9875,-0.52,-0.28,0.0,22290.0,18240.0,-34170.0
32.7588715,35.0228545,478.09,-0.05375,0.01425,1.0065,0.12,-0.38,0.02,22260.0,18220.0,-34170.0
32.7588715,35.0228545,478.09,-0.064,0.0515,1.00175,0.64,0.52,0.04,22260.0,18210.0,-34170.0
32.7588715,35.0228545,478.09,-0.07125,0.053,0.99025,-0.04,0.42,0.06,22290.0,18090.0,-34180.0
32.7588715,35.0228546,478.09,-0.06425,0.0225,1.001,-0.44,-0.56,-0.04,22300.0,18240.0,-34170.0
32.7588715,35.0228546,478.09,-0.05975,0.03175,1.00675,0.28,-0.14,0.02,22270.0,18380.0,-34150.0
32.7588715,35.0228546,478.09,-0.064,0.054,0.99175,0.36,0.54,0.02,22260.0,18300.0,-34160.0
32.7588715,35.0228546,478.09,-0.06,0.038,0.986,-0.3,-0.14,0.04,22320.0,18210.0,-34160.0
32.7588715,35.0228546,478.09,-0.052,0.0255,1.00575,-0.12,-0.66,-0.02,22330.0,18170.0,-34170.0
32.7588715,35.0228546,478.09,-0.059,0.05475,1.00525,0.42,0.44,0.06,22300.0,18130.0,-34180.0
32.7588715,35.0228546,478.09,-0.0725,0.053,0.98625,-0.06,0.64,0.04,22310.0,18120.0,-34170.0
32.7588715,35.0228546,478.09,-0.06825,0.021,0.99125,-0.38,-0.46,0.02,22310.0,18120.0,-34180.0
32.7588715,35.0228546,478.09,-0.05525,0.0335,1.00875,0.4,-0.58,0.0,22290.0,18110.0,-34180.0
32.7588715,35.0228546,478.09,-0.05725,0.0695,0.99825,0.5,0.46,0.08,22320.0,18080.0,-34180.0
32.7588715,35.0228546,478.09,-0.06,0.05175,0.98175,-0.34,0.1,-0.02,22300.0,18200.0,-34170.0
32.7588715,35.0228546,478.09,-0.05425,0.02025,0.99525,-0.4,-0.66,-0.06,22270.0,18170.0,-34180.0
32.7588715,35.0228546,478.09,-0.05525,0.044,1.006,0.48,0.02,-0.02,22310.0,18130.0,-34180.0
32.7588715,35.0228546,478.09,-0.0665,0.06525,0.992,0.16,0.76,0.04,22320.0,18090.0,-34180.0
32.7588715,35.0228546,478.09,-0.06525,0.03925,0.988,-0.46,-0.12,-0.02,22270.0,18110.0,-34190.0
32.7588715,35.0228546,478.09,-0.057,0.027,1.00275,-0.16,-0.64,-0.04,22270.0,18100.0,-34180.0
32.7588715,35.0228546,478.09,-0.05775,0.05075,1.00225,0.32,0.34,0.1,22300.0,18140.0,-34170.0
32.7588715,35.0228546,478.09,-0.059,0.049,0.98625,-0.18,0.38,-0.02,22290.0,18190.0,-34170.0
32.7588715,35.0228546,478.09,-0.0495,0.02425,0.992,-0.48,-0.72,-0.06,22280.0,18150.0,-34170.0
32.7588715,35.0228546,478.09,-0.0485,0.037,1.00375,0.22,-0.14,-0.02,22270.0,18130.0,-34180.0
32.7588715,35.0228546,478.1,-0.065,0.054,0.99225,0.22,0.86,0.06,22250.0,18230.0,-34170.0
32.7588715,35.0228546,478.1,-0.0715,0.027,0.9865,-0.58,0.18,0.02,22260.0,18240.0,-34160.0
32.7588715,35.0228546,478.1,-0.06125,0.0145,1.00325,-0.08,-0.8,-0.1,22290.0,18120.0,-34170.0
32.7588715,35.0228546,478.1,-0.0555,0.05025,1.008,0.44,0.1,0.0,22260.0,18130.0,-34170.0
32.7588715,35.0228546,478.1,-0.05975,0.05675,0.989,0.0,0.58,0.02,22230.0,18100.0,-34180.0
32.7588715,35.0228546,478.1,-0.05725,0.0185,0.9865,-0.54,-0.34,0.0,22270.0,18120.0,-34170.0
32.7588715,35.0228546,478.1,-0.054,0.02075,1.003,0.14,-0.42,0.0,22280.0,18100.0,-34170.0
32.7588715,35.0228546,478.1,-0.064,0.057,1.0015,0.54,0.68,0.04,22300.0,18050.0,-34170.0
32.7588715,35.0228546,478.1,-0.0695,0.04625,0.991,-0.32,0.28,-0.04,22300.0,18090.0,-34170.0
32.7588715,35.0228546,478.1,-0.065,0.01925,1.0005,-0.34,-0.64,0.0,22270.0,18080.0,-34180.0
32.7588715,35.0228546,478.1,-0.062,0.03725,1.005,0.34,0.0,0.0,22250.0,18180.0,-34170.0
32.7588715,35.0228546,478.1,-0.0655,0.053,0.99,0.18,0.56,-0.02,22250.0,18130.0,-34170.0
32.7588715,35.0228546,478.1,-0.05825,0.03,0.988,-0.42,-0.38,-0.06,22280.0,18090.0,-34170.0
32.7588715,35.0228546,478.1,-0.05075,0.02825,1.00375,-0.1,-0.58,0.0,22260.0,18030.0,-34180.0
32.7588715,35.0228546,478.1,-0.06,0.05375,0.99975,0.4,0.58,0.08,22390.0,17780.0,-34190.0
32.7588715,35.0228546,478.1,-0.07125,0.03975,0.98675,-0.28,0.44,0.06,22500.0,17590.0,-34200.0
32.7588715,35.0228546,478.1,-0.066,0.01325,0.99725,-0.38,-0.74,0.04,22510.0,17560.0,-34190.0
32.7588715,35.0228546,478.1,-0.0565,0.0395,1.008,0.54,-0.38,0.0,22560.0,17560.0,-34190.0
32.7588715,35.0228546,478.1,-0.0595,0.067,0.99225,0.32,0.52,0.04,22580.0,17610.0,-34190.0
32.7588715,35.0228546,478.1,-0.05925,0.03525,0.9825,-0.54,-0.08,0.02,22480.0,17720.0,-34190.0
32.7588715,35.0228546,478.1,-0.053,0.0145,0.99975,-0.14,-0.64,-0.08,22370.0,17970.0,-34170.0
32.7588715,35.0228546,478.1,-0.05725,0.05,1.0045,0.56,0.24,-0.02,22330.0,18190.0,-34150.0
32.7588715,35.0228546,478.1,-0.06525,0.05975,0.99025,-0.02,0.66,0.02,22250.0,18290.0,-34150.0
32.7588715,35.0228546,478.1,-0.0625,0.029,0.99325,-0.46,-0.38,-0.02,22280.0,18330.0,-34140.0
32.7588715,35.0228546,478.1,-0.05675,0.03025,1.006,0.18,-0.42,0.04,22290.0,18330.0,-34140.0
32.7588715,35.0228546,478.1,-0.06075,0.05475,0.99525,0.32,0.58,0.1,22250.0,18210.0,-34160.0
32.7588715,35.0228546,478.1,-0.05875,0.0425,0.98475,-0.32,0.08,0.02,22250.0,18180.0,-34160.0
32.7588715,35.0228546,478.1,-0.0485,0.0255,0.99975,-0.2,-0.74,0.0,22200.0,18150.0,-34170.0
32.7588715,35.0228546,478.1,-0.05175,0.04875,1.00525,0.3,0.2,0.02,22200.0,18100.0,-34180.0
32.7588715,35.0228546,478.1,-0.06825,0.055,0.9885,0.06,0.84,0.04,22230.0,18080.0,-34170.0
32.7588715,35.0228546,478.1,-0.0695,0.0225,0.989,-0.5,-0.28,0.0,22240.0,18180.0,-34160.0
32.7588715,35.0228546,478.1,-0.0585,0.025,1.00825,0.08,-0.64,-0.04,22230.0,18230.0,-34160.0
32.7588715,35.0228546,478.1,-0.058,0.0635,1.00425,0.54,0.4,0.0,22240.0,18120.0,-34170.0
32.7588715,35.0228546,478.1,-0.0605,0.05325,0.984,-0.34,0.4,0.0,22240.0,18100.0,-34170.0
32.7588715,35.0228546,478.1,-0.0565,0.01625,0.99275,-0.54,-0.58,-0.04,22240.0,18070.0,-34180.0
32.7588715,35.0228546,478.1,-0.05475,0.0355,1.00775,0.38,-0.14,-0.06,22230.0,18100.0,-34180.0
32.7588715,35.0228546,478.1,-0.0655,0.06475,0.99675,0.4,0.76,0.06,22250.0,18020.0,-34180.0
32.7588715,35.0228546,478.1,-0.0685,0.04,0.98825,-0.5,0.04,0.02,22240.0,18120.0,-34170.0
32.7588715,35.0228546,478.1,-0.06275,0.0205,1.0045,-0.26,-0.58,-0.04,22240.0,18220.0,-34160.0
32.7588715,35.0228546,478.1,-0.06375,0.047,1.00475,0.46,0.32,0.02,22240.0,18240.0,-34150.0
32.7588715,35.0228546,478.1,-0.0645,0.05175,0.98625,-0.06,0.42,0.02,22260.0,18310.0,-34140.0
32.7588715,35.0228546,478.1,-0.0545,0.025,0.9905,-0.52,-0.64,0.0,22220.0,18360.0,-34150.0
32.7588715,35.0228546,478.1,-0.0495,0.03425,1.006,0.22,-0.32,0.0,22230.0,18240.0,-34160.0
32.7588715,35.0228546,478.1,-0.06375,0.05475,0.99625,0.24,0.82,0.06,22230.0,18150.0,-34170.0
32.7588715,35.0228546,478.1,-0.071,0.0285,0.98475,-0.46,0.2,0.02,22230.0,18150.0,-34170.0
32.7588715,35.0228546,478.1,-0.0625,0.014,1.00275,-0.08,-0.76,-0.08,22250.0,18120.0,-34170.0
32.7588715,35.0228546,478.1,-0.05525,0.05025,1.0085,0.6,0.02,-0.02,22250.0,18110.0,-34170.0
32.7588715,35.0228546,478.1,-0.05875,0.0605,0.98725,-0.02,0.64,0.06,22230.0,18150.0,-34180.0
32.7588715,35.0228546,478.1,-0.05775,0.01975,0.98375,-0.66,-0.34,0.02,22200.0,18150.0,-34180.0
32.7588715,35.0228546,478.1,-0.0525,0.01775,1.00225,0.16,-0.48,0.0,22240.0,18140.0,-34170.0
32.7588715,35.0228546,478.1,-0.06,0.0575,1.002,0.6,0.62,0.02,22220.0,18260.0,-34160.0
32.7588715,35.0228546,478.1,-0.066,0.0515,0.98925,-0.2,0.3,0.02,22230.0,18270.0,-34160.0
32.7588715,35.0228546,478.1,-0.06175,0.021,0.99725,-0.44,-0.58,-0.02,22260.0,18190.0,-34170.0
32.7588715,35.0228546,478.1,-0.058,0.03525,1.0055,0.32,-0.12,0.02,22230.0,18180.0,-34170.0
32.7588715,35.0228546,478.1,-0.0625,0.05475,0.99,0.22,0.6,0.02,22270.0,18140.0,-34170.0
32.7588715,35.0228546,478.1,-0.05625,0.032,0.9875,-0.44,-0.36,0.0,22300.0,18180.0,-34170.0
32.7588715,35.0228546,478.1,-0.04875,0.02825,1.004,0.02,-0.58,-0.04,22260.0,18250.0,-34170.0
32.7588715,35.0228546,478.1,-0.0585,0.0565,1.001,0.4,0.62,0.02,22260.0,18250.0,-34160.0
32.7588715,35.0228546,478.1,-0.07175,0.0435,0.98575,-0.3,0.64,0.04,22290.0,18190.0,-34160.0
32.7588715,35.0228546,478.1,-0.067,0.0135,0.99675,-0.38,-0.62,0.02,22300.0,18230.0,-34160.0
32.7588715,35.0228546,478.1,-0.0555,0.03675,1.0095,0.54,-0.4,0.0,22250.0,18340.0,-34150.0
32.7588715,35.0228546,478.1,-0.0575,0.0685,0.9935,0.4,0.64,0.0,22250.0,18390.0,-34150.0
32.7588715,35.0228546,478.1,-0.06,0.03775,0.983,-0.58,0.1,-0.02,22280.0,18320.0,-34150.0
32.7588715,35.0228546,478.1,-0.05475,0.0125,1.0,-0.24,-0.58,-0.04,22280.0,18270.0,-34160.0
32.7588715,35.0228546,478.1,-0.0595,0.0475,1.005,0.68,0.24,0.02,22260.0,18190.0,-34170.0
32.7588715,35.0228546,478.1,-0.06925,0.0625,0.98975,0.02,0.64,0.0,22270.0,18190.0,-34170.0
32.7588715,35.0228546,478.1,-0.067,0.02975,0.993,-0.54,-0.38,-0.04,22250.0,18190.0,-34170.0
32.7588715,35.0228546,478.1,-0.059,0.02575,1.00725,0.08,-0.48,-0.04,22290.0,18140.0,-34170.0
32.7588715,35.0228546,478.1,-0.062,0.05375,0.9975,0.48,0.5,0.0,22300.0,18140.0,-34170.0
32.7588715,35.0228546,478.1,-0.06025,0.04375,0.9845,-0.28,0.12,0.02,22280.0,18160.0,-34170.0
32.7588715,35.0228546,478.1,-0.0495,0.02325,1.0,-0.3,-0.78,0.0,22270.0,18320.0,-34160.0
32.7588715,35.0228546,478.1,-0.051,0.0455,1.0055,0.32,0.08,0.04,22270.0,18380.0,-34150.0
32.7588715,35.0228546,478.1,-0.06875,0.0565,0.98675,-0.02,0.9,0.02,22260.0,18250.0,-34160.0
32.7588715,35.0228546,478.1,-0.07175,0.0245,0.988,-0.48,-0.16,-0.04,22300.0,18150.0,-34170.0
32.7588715,35.0228546,478.1,-0.0595,0.02075,1.009,0.1,-0.76,0.02,22290.0,18130.0,-34170.0
32.7588715,35.0228546,478.1,-0.05625,0.06125,1.0045,0.62,0.3,0.04,22280.0,18170.0,-34170.0
32.7588715,35.0228546,478.1,-0.0605,0.05875,0.98275,-0.2,0.46,0.04,22270.0,18240.0,-34160.0
32.7588715,35.0228546,478.1,-0.05475,0.0165,0.9895,-0.6,-0.6,-0.04,22280.0,18170.0,-34170.0
32.7588715,35.0228546,478.1,-0.05075,0.02775,1.00675,0.28,-0.34,-0.02,22230.0,18190.0,-34170.0
32.7588715,35.0228546,478.1,-0.06225,0.06375,0.99575,0.5,0.72,-0.02,22210.0,18170.0,-34170.0
32.7588715,35.0228546,478.1,-0.0675,0.04775,0.986,-0.42,0.18,0.0,22260.0,18230.0,-34160.0
32.7588715,35.0228546,478.1,-0.06225,0.01925,1.0035,-0.4,-0.7,0.0,22250.0,18300.0,-34150.0
32.7588715,35.0228546,478.1,-0.06075,0.04075,1.006,0.32,0.08,0.04,22250.0,18280.0,-34150.0
32.7588715,35.0228546,478.1,-0.06525,0.0545,0.986,0.12,0.56,-0.04,22230.0,18220.0,-34160.0
32.7588715,35.0228546,478.1,-0.05525,0.0275,0.98925,-0.52,-0.54,0.0,22240.0,18150.0,-34170.0
32.7588715,35.0228546,478.1,-0.045,0.027,1.0075,-0.06,-0.58,0.0,22240.0,18100.0,-34170.0
32.7588715,35.0228546,478.1,-0.05675,0.055,0.999,0.4,0.78,0.0,22240.0,18110.0,-34170.0
32.7588715,35.0228546,478.1,-0.07025,0.0405,0.98375,-0.28,0.58,0.02,22250.0,18060.0,-34180.0
32.7588715,35.0228546,478.1,-0.06525,0.0105,1.0,-0.36,-0.72,-0.08,22230.0,18120.0,-34170.0
32.7588715,35.0228546,478.1,-0.05775,0.036,1.01225,0.4,-0.22,0.0,22270.0,18090.0,-34170.0
32.7588715,35.0228546,478.1,-0.06375,0.067,0.992,0.36,0.7,0.04,22290.0,18130.0,-34160.0
32.7588715,35.0228546,478.1,-0.063,0.034,0.9805,-0.56,-0.04,0.0,22290.0,18070.0,-34170.0
32.7588715,35.0228546,478.1,-0.05225,0.01125,1.001,-0.24,-0.7,0.02,22270.0,18040.0,-34170.0
32.7588715,35.0228546,478.1,-0.05425,0.04675,1.0075,0.64,0.34,0.0,22250.0,18010.0,-34170.0
32.7588715,35.0228546,478.1,-0.066,0.06025,0.98875,0.04,0.7,0.06,22260.0,17990.0,-34180.0
32.7588715,35.0228546,478.1,-0.06575,0.0275,0.99225,-0.52,-0.4,-0.02,22280.0,17980.0,-34180.0
32.7588715,35.0228546,478.1,-0.05975,0.0245,1.00775,0.04,-0.5,0.04,22280.0,17990.0,-34180.0
32.7588715,35.0228546,478.1,-0.065,0.0555,0.9965,0.46,0.54,-0.02,22230.0,18080.0,-34170.0
32.7588715,35.0228546,478.1,-0.0635,0.04475,0.9825,-0.28,0.14,0.02,22250.0,18040.0,-34170.0
32.7588715,35.0228546,478.1,-0.05125,0.0205,1.0,-0.38,-0.82,-0.02,22300.0,18020.0,-34170.0
32.7588714,35.0228546,478.1,-0.05075,0.043,1.008,0.36,0.06,0.06,22270.0,18140.0,-34160.0
32.7588714,35.0228546,478.1,-0.0665,0.05775,0.9885,0.2,0.86,0.02,22280.0,18130.0,-34160.0
32.7588714,35.0228546,478.1,-0.069,0.026,0.9875,-0.48,-0.22,0.08,22270.0,18030.0,-34170.0
32.7588714,35.0228546,478.1,-0.057,0.018,1.00875,0.04,-0.74,0.02,22240.0,18060.0,-34170.0
32.7588714,35.0228546,478.1,-0.056,0.0585,1.00275,0.62,0.34,0.02,22260.0,17980.0,-34180.0
32.7588714,35.0228546,478.1,-0.06175,0.0575,0.98075,-0.14,0.5,-0.04,22290.0,17990.0,-34170.0
32.7588714,35.0228546,478.1,-0.057,0.01825,0.991,-0.54,-0.56,-0.04,22290.0,18010.0,-34170.0
32.7588714,35.0228546,478.1,-0.0525,0.02675,1.00825,0.26,-0.36,0.04,22270.0,18060.0,-34170.0
32.7588714,35.0228546,478.1,-0.06375,0.06375,0.99525,0.46,0.72,0.04,22240.0,18030.0,-34170.0
32.7588714,35.0228546,478.1,-0.0685,0.0485,0.9855,-0.3,0.14,0.02,22240.0,18040.0,-34180.0
32.7588714,35.0228546,478.1,-0.05975,0.0185,1.00275,-0.34,-0.72,0.02,22210.0,18120.0,-34170.0
32.7588714,35.0228546,478.1,-0.05625,0.041,1.0065,0.4,0.1,0.1,22220.0,18090.0,-34170.0
32.7588714,35.0228546,478.1,-0.062,0.058,0.986,0.22,0.68,0.04,22230.0,18030.0,-34180.0
32.7588714,35.0228546,478.1,-0.0555,0.03075,0.98825,-0.5,-0.42,-0.02,22240.0,18040.0,-34180.0
32.7588714,35.0228546,478.1,-0.04925,0.02575,1.00825,-0.02,-0.58,0.02,22310.0,18000.0,-34170.0
32.7588714,35.0228546,478.1,-0.062,0.05575,0.99825,0.4,0.72,0.0,22320.0,18010.0,-34170.0
32.7588714,35.0228546,478.1,-0.07425,0.04575,0.98125,-0.32,0.5,0.08,22250.0,18100.0,-34170.0
32.7588714,35.0228546,478.1,-0.066,0.01525,0.99875,-0.36,-0.78,0.02,22250.0,18080.0,-34170.0
32.7588714,35.0228546,478.1,-0.054,0.036,1.01325,0.44,-0.34,0.04,22260.0,18090.0,-34170.0
32.7588714,35.0228546,478.1,-0.059,0.0675,0.992,0.36,0.7,-0.02,22360.0,17890.0,-34180.0
32.7588714,35.0228546,478.1,-0.06075,0.038,0.97975,-0.5,0.02,0.0,22440.0,17810.0,-34180.0
32.7588715,35.0228546,478.1,-0.0525,0.0115,1.00225,-0.24,-0.74,-0.06,22460.0,17870.0,-34170.0
32.7588715,35.0228546,478.1,-0.05625,0.04675,1.00775,0.54,0.32,0.0,22470.0,17900.0,-34170.0
32.7588715,35.0228546,478.1,-0.069,0.06475,0.9875,0.12,0.74,0.04,22460.0,17780.0,-34180.0
32.7588715,35.0228546,478.1,-0.06825,0.03025,0.99075,-0.64,-0.36,-0.02,22430.0,17800.0,-34180.0
32.7588715,35.0228546,478.1,-0.05925,0.021,1.01025,-0.02,-0.54,0.02,22350.0,17970.0,-34190.0
32.7588715,35.0228546,478.1,-0.062,0.0535,0.99875,0.42,0.5,0.02,22290.0,18050.0,-34180.0
32.7588715,35.0228546,478.1,-0.06125,0.048,0.98175,-0.2,0.2,0.06,22280.0,18050.0,-34180.0
32.7588715,35.0228546,478.1,-0.0495,0.02025,0.99875,-0.48,-0.8,-0.02,22250.0,18090.0,-34180.0
32.7588715,35.0228546,478.1,-0.04825,0.03675,1.0085,0.34,-0.02,0.0,22260.0,18080.0,-34180.0
32.7588715,35.0228546,478.1,-0.06625,0.056,0.9885,0.22,0.9,0.02,22250.0,18180.0,-34170.0
32.7588715,35.0228546,478.1,-0.0715,0.0285,0.98575,-0.46,-0.08,0.0,22240.0,18260.0,-34160.0
32.7588715,35.0228546,478.1,-0.05925,0.01475,1.00925,-0.02,-0.86,0.0,22240.0,18270.0,-34160.0
32.7588715,35.0228546,478.1,-0.0575,0.0535,1.0065,0.58,0.24,0.02,22270.0,18220.0,-34160.0
32.7588715,35.0228546,478.1,-0.06425,0.0605,0.98275,0.0,0.56,0.06,22270.0,18190.0,-34170.0
32.7588715,35.0228546,478.1,-0.058,0.0195,0.9875,-0.62,-0.52,-0.06,22280.0,18200.0,-34170.0
32.7588715,35.0228546,478.1,-0.0485,0.021,1.00875,0.18,-0.48,0.0,22290.0,18140.0,-34170.0
32.7588715,35.0228546,478.1,-0.0585,0.06075,1.00025,0.5,0.7,-0.02,22280.0,18200.0,-34170.0
32.7588715,35.0228546,478.1,-0.06725,0.05225,0.9835,-0.3,0.38,0.04,22270.0,18280.0,-34160.0
32.7588715,35.0228546,478.1,-0.06275,0.0185,1.0,-0.46,-0.7,-0.02,22290.0,18210.0,-34160.0
32.7588714,35.0228546,478.11,-0.059,0.036,1.00975,0.3,0.02,0.04,22280.0,18320.0,-34150.0
32.7588714,35.0228546,478.11,-0.066,0.06075,0.9885,0.28,0.66,-0.04,22270.0,18410.0,-34140.0
32.7588714,35.0228546,478.11,-0.05975,0.0365,0.985,-0.44,-0.32,0.02,22270.0,18350.0,-34150.0
32.7588714,35.0228546,478.11,-0.0485,0.022,1.0055,-0.2,-0.66,0.0,22270.0,18300.0,-34150.0
32.7588714,35.0228546,478.11,-0.0545,0.052,1.00175,0.48,0.52,-0.02,22250.0,18290.0,-34160.0
32.7588714,35.0228546,478.11,-0.06975,0.05125,0.98375,-0.08,0.72,0.0,22260.0,18230.0,-34160.0
32.7588714,35.0228546,478.11,-0.066,0.0175,0.99575,-0.4,-0.56,0.0,22310.0,18210.0,-34160.0
32.7588714,35.0228546,478.11,-0.0555,0.029,1.0135,0.28,-0.54,-0.06,22280.0,18180.0,-34170.0
32.7588714,35.0228546,478.11,-0.06175,0.06725,0.99475,0.42,0.7,0.04,22290.0,18190.0,-34160.0
32.7588714,35.0228546,478.11,-0.064,0.0465,0.97875,-0.42,0.26,0.0,22290.0,18170.0,-34170.0
32.7588714,35.0228546,478.11,-0.05525,0.0125,0.9995,-0.44,-0.74,-0.04,22280.0,18290.0,-34160.0
32.7588714,35.0228546,478.11,-0.0535,0.039,1.00925,0.52,0.04,0.0,22280.0,18230.0,-34160.0
32.7588714,35.0228546,478.11,-0.0665,0.06475,0.99025,0.24,0.8,0.08,22270.0,18160.0,-34170.0
32.7588714,35.0228546,478.11,-0.0675,0.0355,0.98975,-0.54,-0.28,-0.04,22240.0,18150.0,-34170.0
32.7588714,35.0228546,478.11,-0.05775,0.0185,1.00825,-0.12,-0.56,-0.04,22260.0,18120.0,-34180.0
32.7588714,35.0228546,478.11,-0.0595,0.05,0.99975,0.48,0.42,0.0,22280.0,18110.0,-34170.0
32.7588714,35.0228546,478.11,-0.06325,0.05275,0.981,-0.08,0.4,0.04,22260.0,18170.0,-34170.0
32.7588714,35.0228546,478.11,-0.054,0.022,0.994,-0.46,-0.68,0.0,22220.0,18230.0,-34160.0
32.7588714,35.0228546,478.11,-0.0505,0.031,1.0095,0.14,-0.28,-0.04,22190.0,18240.0,-34160.0
32.7588714,35.0228546,478.11,-0.06675,0.0575,0.991,0.28,0.86,0.04,22200.0,18220.0,-34170.0
32.7588714,35.0228546,478.11,-0.0715,0.035,0.982,-0.4,0.12,0.04,22190.0,18330.0,-34160.0
32.7588714,35.0228546,478.11,-0.05825,0.0135,1.0055,-0.24,-0.86,-0.12,22190.0,18380.0,-34150.0
32.7588714,35.0228546,478.11,-0.05225,0.04775,1.009,0.58,0.04,0.06,22220.0,18300.0,-34160.0
32.7588714,35.0228546,478.11,-0.061,0.0635,0.9845,0.1,0.64,0.04,22200.0,18250.0,-34160.0
32.7588714,35.0228546,478.11,-0.059,0.0255,0.98375,-0.64,-0.38,0.02,22230.0,18140.0,-34170.0
32.7588714,35.0228546,478.11,-0.05125,0.0165,1.00925,0.08,-0.54,-0.04,22250.0,18080.0,-34170.0
32.7588714,35.0228546,478.11,-0.0595,0.05775,1.00325,0.6,0.62,0.02,22250.0,18080.0,-34170.0
32.7588714,35.0228546,478.11,-0.06875,0.058,0.9835,-0.16,0.46,0.04,22280.0,18030.0,-34170.0
32.7588714,35.0228546,478.11,-0.063,0.02075,0.996,-0.52,-0.72,-0.04,22270.0,18020.0,-34180.0
32.7588714,35.0228546,478.11,-0.05725,0.0295,1.01125,0.16,-0.14,-0.02,22230.0,18050.0,-34180.0
32.7588714,35.0228546,478.11,-0.06375,0.05825,0.99325,0.4,0.74,0.02,22250.0,18140.0,-34160.0
32.7588714,35.0228546,478.11,-0.05925,0.0405,0.98375,-0.36,-0.1,-0.06,22290.0,18200.0,-34150.0
32.7588714,35.0228546,478.11,-0.0485,0.02225,1.00475,-0.24,-0.86,-0.02,22270.0,18080.0,-34160.0
32.7588714,35.0228546,478.11,-0.0535,0.0485,1.00525,0.42,0.44,-0.04,22260.0,18050.0,-34170.0
32.7588714,35.0228546,478.11,-0.071,0.0515,0.98375,-0.02,0.76,0.08,22260.0,18000.0,-34180.0
32.7588714,35.0228546,478.11,-0.0685,0.01775,0.99125,-0.46,-0.5,-0.04,22220.0,18030.0,-34180.0
32.7588714,35.0228546,478.11,-0.05625,0.0265,1.01275,0.22,-0.6,-0.06,22240.0,18110.0,-34170.0
32.7588714,35.0228546,478.11,-0.06,0.066,1.00075,0.56,0.62,0.06,22250.0,18080.0,-34170.0
32.7588714,35.0228546,478.11,-0.064,0.05,0.97925,-0.32,0.28,0.1,22220.0,18080.0,-34170.0
32.7588714,35.0228546,478.11,-0.0555,0.01275,0.994,-0.44,-0.78,0.0,22250.0,18020.0,-34170.0
32.7588714,35.0228546,478.11,-0.05225,0.036,1.009,0.48,-0.06,0.0,22280.0,18100.0,-34160.0
32.7588714,35.0228546,478.11,-0.0655,0.06575,0.994,0.34,0.86,0.02,22270.0,18180.0,-34150.0
32.7588714,35.0228546,478.11,-0.068,0.03875,0.98675,-0.5,-0.14,0.02,22250.0,18090.0,-34170.0
32.7588714,35.0228546,478.11,-0.0605,0.0205,1.0055,-0.26,-0.7,0.0,22260.0,18100.0,-34160.0
32.7588714,35.0228546,478.11,-0.0615,0.049,1.00425,0.56,0.4,-0.02,22230.0,18050.0,-34170.0
32.7588714,35.0228546,478.11,-0.0645,0.053,0.9835,-0.14,0.44,0.04,22280.0,18010.0,-34180.0
32.7588714,35.0228546,478.11,-0.0535,0.02525,0.9915,-0.46,-0.66,-0.04,22290.0,18000.0,-34170.0
32.7588714,35.0228546,478.11,-0.048,0.0335,1.00725,0.14,-0.24,0.0,22260.0,18010.0,-34180.0
32.7588714,35.0228546,478.11,-0.0635,0.05675,0.99525,0.22,0.94,0.08,22210.0,18010.0,-34180.0
32.7588714,35.0228546,478.11,-0.07075,0.033,0.985,-0.42,0.2,0.04,22240.0,17960.0,-34180.0
32.7588714,35.0228546,478.11,-0.05975,0.014,1.0035,-0.16,-0.86,-0.02,22260.0,18070.0,-34170.0
32.7588714,35.0228546,478.11,-0.054,0.04875,1.00925,0.52,0.0,0.0,22230.0,18080.0,-34180.0
32.7588714,35.0228546,478.11,-0.061,0.063,0.98675,0.04,0.74,0.02,22240.0,18020.0,-34180.0
32.7588714,35.0228546,478.11,-0.05925,0.023,0.984,-0.62,-0.3,-0.06,22270.0,17980.0,-34180.0
32.7588714,35.0228546,478.11,-0.052,0.01675,1.0055,0.08,-0.58,0.0,22260.0,18020.0,-34180.0
32.7588714,35.0228546,478.11,-0.05975,0.05675,1.00325,0.58,0.58,0.0,22260.0,18050.0,-34180.0
32.7588714,35.0228546,478.11,-0.06725,0.05325,0.987,-0.18,0.44,0.06,22240.0,18100.0,-34170.0
32.7588714,35.0228546,478.11,-0.06225,0.0205,0.99625,-0.48,-0.68,-0.04,22210.0,18150.0,-34170.0
32.7588714,35.0228546,478.11,-0.05775,0.03225,1.00775,0.28,-0.16,0.04,22220.0,18100.0,-34170.0
32.7588714,35.0228546,478.11,-0.06425,0.055,0.99225,0.3,0.68,0.02,22270.0,18050.0,-34170.0
32.7588714,35.0228546,478.12,-0.059,0.03475,0.986,-0.4,-0.24,-0.02,22250.0,18200.0,-34170.0
32.7588714,35.0228546,478.12,-0.0485,0.0245,1.00375,-0.16,-0.74,0.04,22230.0,18270.0,-34160.0
32.7588714,35.0228546,478.12,-0.05525,0.05275,1.00325,0.38,0.54,0.0,22240.0,18140.0,-34170.0
32.7588714,35.0228546,478.12,-0.07075,0.047,0.9845,-0.16,0.72,0.06,22270.0,18090.0,-34170.0
32.7588714,35.0228546,478.12,-0.068,0.0145,0.99275,-0.4,-0.56,-0.02,22310.0,18050.0,-34170.0
32.7588714,35.0228546,478.12,-0.05725,0.032,1.01025,0.32,-0.54,0.0,22310.0,18090.0,-34170.0
32.7588714,35.0228546,478.12,-0.06075,0.0675,0.99725,0.5,0.62,0.04,22300.0,18120.0,-34170.0
32.7588714,35.0228546,478.12,-0.062,0.0435,0.98025,-0.4,0.16,0.02,22280.0,18140.0,-34170.0
32.7588714,35.0228546,478.12,-0.05475,0.0135,0.99525,-0.32,-0.74,-0.02,22290.0,18120.0,-34170.0
32.7588714,35.0228546,478.12,-0.05525,0.043,1.007,0.52,0.14,0.0,22280.0,18160.0,-34170.0
32.7588714,35.0228546,478.12,-0.06675,0.06275,0.99225,0.26,0.82,-0.04,22240.0,18250.0,-34160.0
32.7588714,35.0228546,478.12,-0.0665,0.03425,0.9895,-0.54,-0.3,-0.02,22270.0,18180.0,-34170.0
32.7588714,35.0228546,478.12,-0.0595,0.026,1.00625,-0.06,-0.62,-0.04,22290.0,18110.0,-34170.0
32.7588714,35.0228546,478.12,-0.06175,0.054,1.0005,0.44,0.58,-0.04,22310.0,18080.0,-34170.0
32.7588714,35.0228546,478.12,-0.062,0.047,0.984,-0.18,0.28,0.06,22320.0,18100.0,-34170.0
32.7588714,35.0228546,478.12,-0.05075,0.023,0.99525,-0.42,-0.82,-0.06,22300.0,18170.0,-34170.0
32.7588714,35.0228546,478.12,-0.04925,0.0435,1.00725,0.3,-0.1,-0.02,22280.0,18230.0,-34170.0
32.7588714,35.0228546,478.12,-0.066,0.058,0.99225,0.18,0.98,0.08,22270.0,18270.0,-34160.0
32.7588714,35.0228546,478.12,-0.0705,0.0265,0.9865,-0.54,-0.12,0.02,22280.0,18260.0,-34160.0
32.7588714,35.0228546,478.12,-0.059,0.0185,1.00675,-0.06,-0.78,-0.04,22250.0,18250.0,-34170.0
32.7588714,35.0228546,478.12,-0.05525,0.058,1.00725,0.52,0.26,0.02,22270.0,18320.0,-34160.0
32.7588714,35.0228546,478.12,-0.0605,0.05775,0.98575,-0.16,0.54,0.02,22270.0,18420.0,-34140.0
32.7588714,35.0228546,478.12,-0.0565,0.0175,0.98925,-0.6,-0.48,-0.02,22240.0,18460.0,-34140.0
32.7588714,35.0228546,478.12,-0.05225,0.0275,1.006,0.26,-0.3,-0.04,22240.0,18370.0,-34150.0
32.7588714,35.0228546,478.12,-0.06325,0.0615,0.99925,0.48,0.74,0.04,22330.0,18170.0,-34160.0
32.7588714,35.0228546,478.12,-0.068,0.04425,0.988,-0.38,0.26,0.0,22470.0,17870.0,-34170.0
32.7588714,35.0228546,478.12,-0.06225,0.019,1.001,-0.38,-0.72,0.04,22560.0,17760.0,-34170.0
32.7588714,35.0228546,478.12,-0.061,0.04175,1.00525,0.4,0.18,0.02,22580.0,17670.0,-34180.0
32.7588714,35.0228546,478.12,-0.0645,0.05375,0.98725,0.1,0.5,0.02,22560.0,17660.0,-34190.0
32.7588714,35.0228546,478.12,-0.056,0.02675,0.98875,-0.48,-0.52,0.02,22530.0,17660.0,-34200.0
32.7588714,35.0228546,478.12,-0.04825,0.02975,1.00525,0.1,-0.52,0.02,22450.0,17920.0,-34180.0
32.7588714,35.0228546,478.12,-0.06125,0.05475,0.9975,0.36,0.76,0.0,22350.0,18060.0,-34180.0
32.7588714,35.0228546,478.12,-0.07225,0.03525,0.984,-0.3,0.46,0.04,22320.0,18070.0,-34180.0
32.7588714,35.0228546,478.12,-0.06475,0.01225,0.99925,-0.26,-0.74,0.0,22300.0,18160.0,-34160.0
32.7588714,35.0228546,478.12,-0.056,0.0425,1.00925,0.54,-0.22,0.08,22330.0,18130.0,-34170.0
32.7588714,35.0228546,478.12,-0.06025,0.064,0.991,0.2,0.68,0.02,22300.0,18130.0,-34170.0
32.7588714,35.0228546,478.12,-0.05875,0.028,0.982,-0.6,-0.24,-0.04,22280.0,18110.0,-34170.0
32.7588714,35.0228546,478.12,-0.052,0.0155,1.00175,-0.08,-0.64,-0.06,22290.0,18120.0,-34170.0
32.7588714,35.0228546,478.12,-0.059,0.053,1.0055,0.7,0.48,0.02,22250.0,18220.0,-34160.0
32.7588714,35.0228546,478.12,-0.0675,0.05575,0.98925,-0.06,0.58,-0.02,22250.0,18260.0,-34160.0
32.7588714,35.0228546,478.12,-0.06375,0.02525,0.99575,-0.46,-0.56,0.04,22280.0,18310.0,-34150.0
32.7588714,35.0228546,478.12,-0.05825,0.03325,1.008,0.24,-0.28,0.04,22270.0,18330.0,-34150.0
32.7588714,35.0228546,478.12,-0.06175,0.056,0.9945,0.32,0.64,0.0,22320.0,18170.0,-34160.0
32.7588714,35.0228546,478.12,-0.0585,0.0375,0.985,-0.38,-0.08,0.04,22340.0,18120.0,-34160.0
32.7588714,35.0228546,478.12,-0.04825,0.026,1.0025,-0.12,-0.72,-0.04,22260.0,18110.0,-34170.0
32.7588714,35.0228546,478.12,-0.05375,0.05325,1.0055,0.44,0.42,0.0,22200.0,18110.0,-34180.0
32.7588714,35.0228546,478.12,-0.07,0.05175,0.98675,-0.06,0.84,0.08,22240.0,18070.0,-34170.0
32.7588714,35.0228546,478.12,-0.06875,0.019,0.991,-0.48,-0.48,-0.06,22290.0,18050.0,-34170.0
32.7588714,35.0228546,478.12,-0.05775,0.03,1.009,0.28,-0.58,0.0,22320.0,18040.0,-34170.0
32.7588714,35.0228546,478.12,-0.0595,0.0665,0.9995,0.52,0.58,-0.04,22300.0,18070.0,-34160.0
32.7588714,35.0228546,478.12,-0.0615,0.046,0.98275,-0.4,0.24,0.02,22270.0,18170.0,-34160.0
32.7588714,35.0228546,478.12,-0.0545,0.01525,0.99525,-0.38,-0.78,0.0,22270.0,18120.0,-34160.0
32.7588714,35.0228546,478.12,-0.0545,0.04275,1.00575,0.54,0.08,0.0,22280.0,18040.0,-34170.0
32.7588714,35.0228546,478.12,-0.06575,0.062,0.9915,0.18,0.76,-0.02,22270.0,18030.0,-34180.0
32.7588714,35.0228546,478.12,-0.06725,0.03225,0.98825,-0.54,-0.22,0.06,22250.0,18030.0,-34180.0
32.7588714,35.0228546,478.12,-0.06125,0.02275,1.006,-0.08,-0.62,-0.02,22280.0,18030.0,-34180.0
32.7588714,35.0228546,478.12,-0.06425,0.0525,1.00025,0.44,0.48,-0.02,22290.0,18060.0,-34170.0
32.7588714,35.0228546,478.12,-0.06425,0.04825,0.984,-0.26,0.3,0.0,22310.0,18100.0,-34160.0
32.7588714,35.0228546,478.12,-0.05175,0.022,0.99375,-0.38,-0.74,-0.04,22290.0,18120.0,-34160.0
32.7588714,35.0228546,478.12,-0.048,0.0395,1.006,0.3,-0.1,0.04,22270.0,18120.0,-34160.0
32.7588714,35.0228546,478.12,-0.06425,0.05575,0.99175,0.2,0.92,0.02,22270.0,18210.0,-34160.0
32.7588714,35.0228546,478.12,-0.07,0.0265,0.9865,-0.5,-0.04,0.04,22260.0,18280.0,-34150.0
32.7588714,35.0228546,478.12,-0.06025,0.017,1.00675,0.0,-0.82,0.02,22280.0,18190.0,-34150.0
32.7588714,35.0228546,478.12,-0.05625,0.05675,1.00675,0.52,0.18,0.0,22250.0,18150.0,-34170.0
32.7588714,35.0228546,478.12,-0.061,0.0585,0.984,-0.14,0.56,0.04,22280.0,18100.0,-34170.0
32.7588714,35.0228546,478.12,-0.05675,0.017,0.98775,-0.6,-0.54,0.0,22320.0,18050.0,-34170.0
32.7588714,35.0228546,478.12,-0.0515,0.02375,1.007,0.24,-0.36,-0.04,22310.0,18050.0,-34170.0
32.7588714,35.0228546,478.12,-0.06125,0.061,1.0,0.5,0.78,0.02,22300.0,18060.0,-34170.0
32.7588714,35.0228546,478.12,-0.067,0.048,0.98875,-0.3,0.26,0.02,22290.0,18080.0,-34170.0
32.7588714,35.0228546,478.12,-0.061,0.019,1.002,-0.36,-0.7,-0.02,22290.0,18070.0,-34170.0
32.7588714,35.0228546,478.12,-0.058,0.0385,1.00575,0.34,0.02,0.02,22280.0,18160.0,-34160.0
32.7588714,35.0228546,478.12,-0.0635,0.0545,0.987,0.2,0.6,-0.04,22270.0,18260.0,-34150.0
32.7588714,35.0228546,478.12,-0.0565,0.02825,0.98725,-0.4,-0.44,0.0,22280.0,18150.0,-34170.0
32.7588714,35.0228546,478.12,-0.04875,0.02725,1.008,-0.02,-0.6,-0.06,22270.0,18110.0,-34170.0
32.7588714,35.0228546,478.12,-0.06025,0.05625,1.0,0.38,0.68,0.04,22290.0,18100.0,-34170.0
32.7588714,35.0228546,478.12,-0.072,0.0425,0.983,-0.26,0.56,0.04,22260.0,18110.0,-34180.0
32.7588714,35.0228546,478.12,-0.06475,0.0125,0.99825,-0.3,-0.74,0.0,22280.0,18170.0,-34170.0
32.7588714,35.0228546,478.12,-0.0545,0.03775,1.0105,0.46,-0.3,-0.02,22290.0,18220.0,-34160.0
32.7588714,35.0228546,478.12,-0.06,0.0675,0.9915,0.34,0.7,0.1,22260.0,18260.0,-34160.0
32.7588714,35.0228546,478.12,-0.0615,0.0365,0.9815,-0.52,-0.02,0.04,22280.0,18210.0,-34160.0
32.7588714,35.0228546,478.12,-0.054,0.0145,1.002,-0.16,-0.72,-0.02,22330.0,18250.0,-34150.0
32.7588714,35.0228546,478.12,-0.0575,0.04925,1.00625,0.58,0.36,-0.02,22320.0,18320.0,-34150.0
32.7588714,35.0228546,478.12,-0.06875,0.062,0.98775,0.04,0.66,0.0,22290.0,18310.0,-34150.0
32.7588714,35.0228546,478.12,-0.06525,0.028,0.99225,-0.56,-0.48,-0.04,22280.0,18270.0,-34160.0
32.7588714,35.0228546,478.12,-0.0575,0.026,1.00925,0.1,-0.5,0.02,22280.0,18240.0,-34170.0
32.7588714,35.0228546,478.12,-0.0615,0.05675,0.99775,0.36,0.64,0.0,22300.0,18170.0,-34170.0
32.7588714,35.0228546,478.12,-0.06125,0.0445,0.983,-0.28,0.06,0.0,22330.0,18180.0,-34170.0
32.7588714,35.0228546,478.12,-0.05,0.02175,0.99925,-0.3,-0.84,-0.02,22300.0,18200.0,-34170.0
32.7588714,35.0228546,478.12,-0.05075,0.04375,1.007,0.42,0.12,0.0,22240.0,18240.0,-34180.0
32.7588714,35.0228546,478.12,-0.069,0.056,0.9875,0.14,0.92,0.02,22260.0,18160.0,-34180.0
32.7588714,35.0228546,478.12,-0.07125,0.0255,0.98725,-0.48,-0.26,0.02,22310.0,18230.0,-34160.0
32.7588714,35.0228546,478.12,-0.0575,0.02025,1.01075,0.1,-0.86,-0.04,22290.0,18260.0,-34170.0
32.7588714,35.0228546,478.12,-0.0555,0.05975,1.006,0.56,0.44,0.08,22300.0,18220.0,-34170.0
32.7588714,35.0228546,478.12,-0.0615,0.05525,0.982,-0.16,0.48,0.0,22310.0,18180.0,-34170.0
32.7588714,35.0228546,478.12,-0.0555,0.015,0.99025,-0.62,-0.62,0.02,22280.0,18150.0,-34180.0
32.7588714,35.0228546,478.12,-0.05075,0.02725,1.00925,0.26,-0.28,-0.02,22300.0,18140.0,-34170.0
32.7588714,35.0228546,478.12,-0.06275,0.0645,0.99675,0.44,0.78,-0.04,22310.0,18170.0,-34170.0
32.7588714,35.0228546,478.12,-0.0685,0.046,0.986,-0.46,0.18,0.0,22290.0,18230.0,-34170.0
32.7588714,35.0228546,478.12,-0.062,0.01625,1.00325,-0.4,-0.74,-0.02,22330.0,18190.0,-34160.0
32.7588714,35.0228546,478.12,-0.0595,0.0395,1.00575,0.42,0.24,0.08,22360.0,18170.0,-34160.0
32.7588714,35.0228547,478.12,-0.06475,0.0565,0.985,0.2,0.62,0.04,22310.0,18270.0,-34160.0
32.7588714,35.0228547,478.12,-0.05575,0.03,0.98825,-0.48,-0.58,-0.04,22290.0,18330.0,-34150.0
32.7588714,35.0228547,478.12,-0.04725,0.026,1.00775,0.02,-0.48,0.0,22320.0,18220.0,-34160.0
32.7588714,35.0228547,478.12,-0.06025,0.0545,0.9975,0.44,0.74,0.04,22320.0,18140.0,-34170.0
32.7588714,35.0228547,478.12,-0.07175,0.0415,0.98325,-0.26,0.46,0.02,22320.0,18120.0,-34170.0
32.7588714,35.0228547,478.12,-0.06375,0.0125,1.0,-0.36,-0.78,-0.04,22330.0,18130.0,-34170.0
32.7588714,35.0228547,478.12,-0.0545,0.0385,1.0115,0.46,-0.24,0.0,22290.0,18180.0,-34170.0
32.7588714,35.0228547,478.12,-0.0615,0.06825,0.98925,0.28,0.7,0.04,22280.0,18190.0,-34170.0
32.7588714,35.0228547,478.12,-0.0625,0.0345,0.9805,-0.56,-0.08,0.1,22290.0,18110.0,-34180.0
32.7588714,35.0228547,478.12,-0.05325,0.01025,1.004,-0.2,-0.72,0.0,22290.0,18120.0,-34170.0
32.7588714,35.0228547,478.12,-0.05625,0.04875,1.007,0.64,0.42,-0.04,22250.0,18240.0,-34170.0
32.7588714,35.0228547,478.12,-0.067,0.06325,0.98675,0.08,0.7,0.0,22270.0,18170.0,-34170.0
32.7588714,35.0228547,478.12,-0.0655,0.02875,0.992,-0.66,-0.5,-0.04,22300.0,18080.0,-34170.0
32.7588714,35.0228547,478.12,-0.05775,0.023,1.00975,0.06,-0.42,0.02,22330.0,18040.0,-34170.0
32.7588714,35.0228547,478.12,-0.06325,0.054,0.9955,0.44,0.68,0.08,22340.0,18010.0,-34170.0
32.7588714,35.0228547,478.12,-0.06275,0.04625,0.9815,-0.2,0.08,-0.02,22350.0,18050.0,-34170.0
32.7588714,35.0228547,478.12,-0.05025,0.022,1.00075,-0.32,-0.88,0.04,22310.0,18090.0,-34170.0
32.7588714,35.0228547,478.12,-0.04925,0.04225,1.0075,0.34,0.1,-0.08,22300.0,18090.0,-34170.0
32.7588714,35.0228547,478.12,-0.06775,0.057,0.9865,0.16,0.94,0.06,22300.0,18080.0,-34170.0
32.7588714,35.0228547,478.12,-0.06975,0.02625,0.9855,-0.48,-0.24,0.0,22240.0,18110.0,-34180.0
32.7588714,35.0228547,478.12,-0.05675,0.0175,1.01025,0.02,-0.88,0.0,22270.0,18210.0,-34160.0
32.7588714,35.0228546,478.13,-0.05625,0.0595,1.00525,0.58,0.4,-0.04,22320.0,18280.0,-34140.0
32.7588714,35.0228546,478.13,-0.0635,0.05925,0.98125,-0.16,0.58,0.1,22290.0,18320.0,-34140.0
32.7588714,35.0228546,478.13,-0.0575,0.017,0.9895,-0.6,-0.62,0.0,22310.0,18260.0,-34150.0
32.7588714,35.0228546,478.13,-0.0505,0.0245,1.01025,0.24,-0.36,0.02,22280.0,18220.0,-34150.0
32.7588714,35.0228546,478.13,-0.0615,0.063,0.998,0.52,0.78,0.0,22260.0,18170.0,-34170.0
32.7588714,35.0228546,478.13,-0.06825,0.0495,0.9845,-0.4,0.22,-0.02,22240.0,18130.0,-34170.0
32.7588714,35.0228546,478.13,-0.0615,0.01775,1.00375,-0.44,-0.68,0.0,22250.0,18090.0,-34180.0
32.7588714,35.0228546,478.13,-0.059,0.03925,1.0085,0.38,0.14,0.02,22230.0,18120.0,-34170.0
32.7588714,35.0228546,478.13,-0.06525,0.05825,0.9875,0.22,0.7,0.04,22250.0,18060.0,-34180.0
32.7588714,35.0228546,478.13,-0.057,0.03175,0.9875,-0.48,-0.48,0.02,22380.0,17910.0,-34180.0
32.7588714,35.0228546,478.13,-0.04775,0.026,1.00775,-0.02,-0.68,-0.02,22500.0,17780.0,-34180.0
32.7588714,35.0228546,478.13,-0.05925,0.05475,1.00025,0.42,0.74,0.1,22570.0,17590.0,-34190.0
32.7588714,35.0228546,478.13,-0.07325,0.04475,0.98225,-0.18,0.6,0.04,22580.0,17560.0,-34190.0
32.7588714,35.0228546,478.13,-0.066,0.0145,0.999,-0.46,-0.86,0.0,22590.0,17570.0,-34190.0
32.7588714,35.0228546,478.13,-0.05425,0.03675,1.01275,0.44,-0.4,-0.02,22520.0,17700.0,-34180.0
32.7588714,35.0228546,478.13,-0.061,0.068,0.991,0.32,0.72,0.0,22460.0,17780.0,-34180.0
32.7588714,35.0228546,478.13,-0.06275,0.03775,0.9785,-0.54,0.04,-0.06,22390.0,17950.0,-34170.0
32.7588714,35.0228546,478.13,-0.05375,0.0105,1.0005,-0.18,-0.8,-0.04,22350.0,18050.0,-34160.0
32.7588714,35.0228546,478.13,-0.056,0.04525,1.00825,0.54,0.26,0.02,22340.0,18070.0,-34160.0
32.7588714,35.0228547,478.13,-0.06825,0.064,0.98875,0.2,0.8,0.0,22330.0,18160.0,-34160.0
32.7588714,35.0228547,478.13,-0.06625,0.03075,0.9905,-0.52,-0.46,0.02,22270.0,18240.0,-34150.0
32.7588714,35.0228547,478.13,-0.057,0.02175,1.00825,-0.04,-0.58,0.0,22300.0,18090.0,-34160.0
32.7588714,35.0228547,478.13,-0.061,0.05275,0.99725,0.5,0.56,0.04,22330.0,18060.0,-34160.0
32.7588714,35.0228547,478.13,-0.06125,0.04675,0.982,-0.14,0.24,0.04,22290.0,18130.0,-34170.0
32.7588714,35.0228547,478.13,-0.05025,0.022,0.99875,-0.38,-0.8,-0.04,22290.0,18080.0,-34170.0
32.7588714,35.0228547,478.13,-0.04975,0.04025,1.00925,0.32,0.08,0.02,22310.0,18050.0,-34170.0
32.7588714,35.0228547,478.13,-0.06775,0.0565,0.989,0.12,0.92,0.08,22290.0,18040.0,-34180.0
32.7588714,35.0228547,478.13,-0.07125,0.026,0.98575,-0.5,-0.16,-0.02,22300.0,18020.0,-34180.0
32.7588714,35.0228547,478.13,-0.05675,0.01525,1.008,0.0,-0.82,-0.08,22320.0,18050.0,-34170.0
32.7588714,35.0228547,478.13,-0.0545,0.057,1.006,0.6,0.3,0.0,22300.0,18190.0,-34160.0
32.7588714,35.0228547,478.13,-0.06175,0.0595,0.98175,-0.12,0.54,0.04,22300.0,18180.0,-34160.0
32.7588714,35.0228547,478.13,-0.0575,0.018,0.98775,-0.5,-0.58,0.12,22300.0,18130.0,-34170.0
32.7588714,35.0228547,478.13,-0.05225,0.02275,1.00925,0.26,-0.36,0.0,22270.0,18100.0,-34180.0
32.7588714,35.0228547,478.13,-0.06425,0.06125,0.99825,0.54,0.84,-0.02,22270.0,18120.0,-34180.0
32.7588714,35.0228547,478.13,-0.0695,0.04925,0.9845,-0.4,0.16,0.08,22300.0,18140.0,-34170.0
32.7588714,35.0228547,478.13,-0.06175,0.0195,1.0015,-0.36,-0.74,-0.02,22320.0,18170.0,-34170.0
32.7588714,35.0228547,478.13,-0.05775,0.0405,1.00775,0.44,0.02,0.02,22280.0,18230.0,-34170.0
32.7588714,35.0228547,478.13,-0.0635,0.057,0.9885,0.22,0.66,-0.04,22250.0,18240.0,-34170.0
32.7588714,35.0228547,478.13,-0.05675,0.031,0.98675,-0.5,-0.42,-0.02,22240.0,18260.0,-34170.0
32.7588714,35.0228546,478.13,-0.048,0.02625,1.00725,-0.08,-0.64,0.0,22250.0,18340.0,-34160.0
32.7588714,35.0228546,478.13,-0.05925,0.05675,0.99975,0.38,0.7,0.02,22270.0,18330.0,-34160.0
32.7588714,35.0228546,478.13,-0.07325,0.0465,0.98175,-0.26,0.56,0.08,22280.0,18270.0,-34160.0
32.7588714,35.0228546,478.13,-0.0655,0.014,0.99775,-0.4,-0.76,0.0,22260.0,18240.0,-34170.0
32.7588714,35.0228546,478.13,-0.0545,0.03625,1.013,0.44,-0.34,0.04,22290.0,18160.0,-34170.0
32.7588714,35.0228546,478.13,-0.05975,0.068,0.99325,0.38,0.72,-0.02,22340.0,18160.0,-34160.0
32.7588714,35.0228546,478.13,-0.06025,0.039,0.9795,-0.54,-0.08,-0.02,22320.0,18190.0,-34170.0
32.7588714,35.0228546,478.13,-0.05225,0.0135,1.00025,-0.22,-0.8,-0.02,22320.0,18180.0,-34170.0
32.7588714,35.0228546,478.13,-0.05525,0.04675,1.00675,0.56,0.36,-0.02,22310.0,18150.0,-34170.0
32.7588714,35.0228546,478.13,-0.06875,0.06175,0.9885,0.1,0.78,-0.02,22330.0,18140.0,-34170.0
32.7588714,35.0228546,478.13,-0.06675,0.02825,0.9925,-0.56,-0.5,-0.06,22350.0,18230.0,-34150.0
32.7588714,35.0228546,478.13,-0.05775,0.024,1.00925,0.0,-0.5,0.0,22360.0,18320.0,-34150.0
32.7588714,35.0228546,478.13,-0.06125,0.055,0.99675,0.42,0.58,0.04,22330.0,18200.0,-34160.0
32.7588714,35.0228546,478.13,-0.061,0.047,0.98175,-0.26,0.12,0.02,22330.0,18190.0,-34160.0
32.7588714,35.0228546,478.13,-0.05,0.02075,0.9985,-0.36,-0.86,-0.04,22350.0,18200.0,-34160.0
32.7588714,35.0228546,478.13,-0.0505,0.0405,1.00825,0.36,0.12,0.0,22340.0,18170.0,-34170.0
32.7588714,35.0228546,478.13,-0.06925,0.05625,0.98975,0.2,1.02,0.08,22340.0,18190.0,-34160.0
32.7588714,35.0228546,478.13,-0.071,0.026,0.98675,-0.52,-0.22,-0.04,22330.0,18200.0,-34160.0
32.7588714,35.0228546,478.13,-0.05675,0.01925,1.00925,0.04,-0.8,-0.02,22310.0,18180.0,-34170.0
32.7588714,35.0228546,478.13,-0.0545,0.0585,1.006,0.58,0.38,0.02,22340.0,18130.0,-34170.0
32.7588714,35.0228547,478.13,-0.0615,0.0565,0.98175,-0.22,0.52,-0.06,22340.0,18200.0,-34160.0
32.7588714,35.0228547,478.13,-0.05725,0.0155,0.98925,-0.54,-0.66,0.0,22340.0,18290.0,-34150.0
32.7588714,35.0228547,478.13,-0.05175,0.02575,1.01,0.28,-0.32,0.04,22330.0,18230.0,-34160.0
32.7588714,35.0228547,478.13,-0.06325,0.06375,0.99975,0.5,0.78,0.06,22310.0,18190.0,-34160.0
32.7588714,35.0228547,478.13,-0.06925,0.046,0.9845,-0.46,0.2,0.06,22300.0,18150.0,-34170.0
32.7588714,35.0228547,478.13,-0.0615,0.01625,1.0005,-0.4,-0.76,-0.02,22330.0,18150.0,-34170.0
32.7588714,35.0228547,478.13,-0.059,0.03875,1.007,0.4,0.16,0.02,22340.0,18120.0,-34170.0
32.7588714,35.0228547,478.13,-0.0645,0.05725,0.98675,0.18,0.66,0.06,22320.0,18090.0,-34180.0
32.7588714,35.0228547,478.13,-0.0565,0.03075,0.98825,-0.5,-0.54,-0.02,22280.0,18080.0,-34180.0
32.7588714,35.0228547,478.13,-0.04875,0.02625,1.00725,0.06,-0.58,0.0,22290.0,18030.0,-34180.0
32.7588714,35.0228547,478.13,-0.0605,0.0535,0.999,0.4,0.78,0.08,22290.0,18130.0,-34170.0
32.7588714,35.0228547,478.13,-0.0725,0.0405,0.98225,-0.26,0.5,-0.04,22290.0,18090.0,-34180.0
32.7588714,35.0228547,478.13,-0.0635,0.01375,0.9985,-0.26,-0.76,-0.02,22310.0,18050.0,-34180.0
32.7588714,35.0228547,478.13,-0.05325,0.03925,1.012,0.38,-0.28,0.0,22300.0,18050.0,-34180.0
32.7588714,35.0228547,478.13,-0.06075,0.0675,0.99225,0.26,0.78,0.12,22290.0,18040.0,-34180.0
32.7588714,35.0228547,478.13,-0.0625,0.03375,0.98025,-0.64,-0.1,0.02,22300.0,18050.0,-34180.0
32.7588714,35.0228547,478.13,-0.0535,0.0115,1.00075,-0.16,-0.78,-0.02,22310.0,18080.0,-34170.0
32.7588714,35.0228547,478.13,-0.05675,0.0505,1.0065,0.66,0.36,0.04,22280.0,18170.0,-34170.0
32.7588714,35.0228547,478.13,-0.06725,0.063,0.98725,0.04,0.68,0.06,22310.0,18120.0,-34160.0
32.7588714,35.0228547,478.13,-0.06475,0.02725,0.992,-0.64,-0.52,-0.02,22340.0,18050.0,-34170.0
32.7588714,35.0228547,478.13,-0.05725,0.025,1.00875,0.12,-0.4,0.0,22300.0,18210.0,-34160.0
32.7588714,35.0228547,478.13,-0.0625,0.05575,0.9965,0.4,0.6,0.02,22210.0,18290.0,-34160.0
32.7588714,35.0228547,478.13,-0.061,0.0455,0.9825,-0.28,0.08,-0.02,22230.0,18170.0,-34170.0
32.7588714,35.0228547,478.13,-0.0495,0.02325,0.99925,-0.3,-0.8,-0.02,22230.0,18120.0,-34170.0
32.7588714,35.0228547,478.13,-0.051,0.0445,1.0065,0.36,0.2,0.04,22270.0,18090.0,-34170.0
32.7588714,35.0228547,478.13,-0.06925,0.0535,0.98725,0.06,0.98,0.08,22280.0,18100.0,-34170.0
32.7588714,35.0228547,478.13,-0.06875,0.023,0.98825,-0.54,-0.36,-0.06,22250.0,18120.0,-34170.0
32.7588714,35.0228547,478.13,-0.05525,0.0225,1.01025,0.16,-0.8,-0.06,22260.0,18110.0,-34170.0
32.7588714,35.0228547,478.13,-0.0565,0.06175,1.00375,0.5,0.52,0.04,22320.0,18030.0,-34170.0
32.7588714,35.0228547,478.13,-0.0635,0.054,0.98075,-0.24,0.54,0.04,22330.0,18040.0,-34170.0
32.7588714,35.0228547,478.13,-0.0585,0.0145,0.98925,-0.56,-0.68,0.02,22270.0,18170.0,-34170.0
32.7588714,35.0228547,478.13,-0.053,0.03075,1.01,0.3,-0.24,0.0,22240.0,18130.0,-34170.0
32.7588714,35.0228547,478.13,-0.06425,0.06475,0.99875,0.4,0.84,0.06,22280.0,18040.0,-34180.0
32.7588714,35.0228547,478.13,-0.0675,0.043,0.98525,-0.48,0.06,0.04,22310.0,17990.0,-34180.0
32.7588714,35.0228547,478.13,-0.05975,0.018,1.00325,-0.24,-0.74,0.02,22330.0,17960.0,-34180.0
32.7588714,35.0228547,478.13,-0.059,0.04325,1.00575,0.4,0.18,0.06,22310.0,17990.0,-34180.0
32.7588714,35.0228547,478.13,-0.06425,0.05475,0.98625,0.0,0.54,0.02,22310.0,18050.0,-34170.0
32.7588714,35.0228547,478.13,-0.056,0.02775,0.98925,-0.42,-0.6,-0.04,22290.0,18140.0,-34160.0
32.7588714,35.0228547,478.13,-0.0495,0.0305,1.0065,0.08,-0.46,0.02,22280.0,18160.0,-34160.0
32.7588714,35.0228547,478.13,-0.06375,0.0555,0.998,0.38,0.88,0.04,22250.0,18130.0,-34170.0
32.7588714,35.0228547,478.13,-0.07225,0.037,0.98375,-0.38,0.32,-0.02,22300.0,18190.0,-34160.0
32.7588714,35.0228547,478.13,-0.062,0.0145,0.9995,-0.26,-0.82,0.02,22330.0,18250.0,-34140.0
32.7588714,35.0228547,478.13,-0.0545,0.04625,1.011,0.5,-0.08,0.0,22310.0,18300.0,-34140.0
32.7588714,35.0228547,478.13,-0.0605,0.0645,0.99,0.18,0.78,0.0,22330.0,18200.0,-34150.0
32.7588714,35.0228547,478.13,-0.06,0.0255,0.9785,-0.6,-0.24,0.02,22330.0,18140.0,-34160.0
32.7588714,35.0228547,478.13,-0.052,0.01425,0.99925,0.12,-0.66,-0.08,22320.0,18090.0,-34160.0
32.7588714,35.0228547,478.13,-0.0585,0.05475,1.00475,0.72,0.54,0.08,22310.0,18080.0,-34160.0
32.7588714,35.0228547,478.13,-0.0675,0.056,0.9905,-0.02,0.56,-0.06,22310.0,18060.0,-34170.0
32.7588714,35.0228547,478.13,-0.06375,0.02275,0.994,-0.48,-0.6,-0.02,22300.0,18050.0,-34170.0
32.7588714,35.0228547,478.13,-0.057,0.03075,1.0045,0.26,-0.22,0.0,22310.0,18040.0,-34170.0
32.7588714,35.0228547,478.13,-0.0625,0.05625,0.9935,0.32,0.64,0.06,22300.0,18140.0,-34160.0
32.7588714,35.0228547,478.13,-0.05825,0.03825,0.987,-0.4,-0.12,0.0,22260.0,18170.0,-34170.0
32.7588714,35.0228547,478.13,-0.0485,0.0245,1.00325,-0.14,-0.72,0.04,22270.0,18100.0,-34170.0
32.7588714,35.0228547,478.13,-0.055,0.05,1.00375,0.4,0.46,0.04,22290.0,18110.0,-34170.0
32.7588714,35.0228547,478.13,-0.07025,0.04575,0.98575,-0.08,0.86,0.04,22290.0,18060.0,-34180.0
32.7588714,35.0228547,478.13,-0.0675,0.0135,0.99325,-0.46,-0.54,-0.04,22370.0,17990.0,-34180.0
32.7588714,35.0228547,478.13,-0.057,0.0285,1.01075,0.4,-0.54,0.0,22490.0,17760.0,-34180.0
32.7588714,35.0228547,478.13,-0.05975,0.06275,0.99775,0.5,0.6,-0.04,22580.0,17660.0,-34180.0
32.7588714,35.0228547,478.13,-0.06175,0.0385,0.97975,-0.4,0.18,-0.04,22580.0,17690.0,-34180.0
32.7588714,35.0228547,478.13,-0.05525,0.008,0.99375,-0.2,-0.72,-0.04,22580.0,17630.0,-34190.0
32.7588713,35.0228547,478.13,-0.05625,0.03725,1.004,0.7,0.2,-0.02,22510.0,17820.0,-34180.0
32.7588713,35.0228547,478.13,-0.06575,0.05725,0.9885,0.34,0.72,0.06,22380.0,18100.0,-34170.0
32.7588713,35.0228547,478.13,-0.065,0.02925,0.98975,-0.4,-0.38,-0.02,22370.0,18080.0,-34170.0
32.7588713,35.0228547,478.13,-0.06025,0.0225,1.00575,0.26,-0.5,0.02,22330.0,18160.0,-34170.0
32.7588713,35.0228547,478.13,-0.06375,0.04775,0.99225,0.64,0.58,0.0,22290.0,18220.0,-34170.0
32.7588713,35.0228547,478.13,-0.06,0.0405,0.978,-0.04,0.12,0.04,22290.0,18180.0,-34170.0
32.7588713,35.0228547,478.13,-0.04675,0.0215,0.998,-0.16,-0.84,0.0,22300.0,18180.0,-34170.0
32.7588713,35.0228547,478.13,-0.05075,0.041,1.00275,0.58,0.16,0.06,22290.0,18170.0,-34170.0
32.7588713,35.0228547,478.13,-0.06725,0.0475,0.97975,0.32,0.94,0.08,22300.0,18160.0,-34170.0
32.7588713,35.0228547,478.13,-0.0655,0.0165,0.9855,-0.22,-0.38,0.02,22320.0,18150.0,-34170.0
32.7588713,35.0228547,478.13,-0.0545,0.01525,1.009,0.46,-0.68,0.02,22280.0,18270.0,-34160.0
32.7588713,35.0228547,478.13,-0.05525,0.0495,0.99075,0.9,0.52,0.06,22330.0,18210.0,-34170.0
32.7588713,35.0228547,478.13,-0.05775,0.0405,0.968,0.2,0.38,0.04,22330.0,18150.0,-34170.0
32.7588713,35.0228547,478.13,-0.04975,0.0035,0.9895,0.06,-0.74,0.02,22310.0,18130.0,-34180.0
32.7588713,35.0228547,478.13,-0.05025,0.018,1.0015,0.94,0.06,0.1,22340.0,18060.0,-34180.0
32.7588713,35.0228547,478.13,-0.06175,0.0465,0.97525,1.12,0.86,0.08,22360.0,18070.0,-34170.0
32.7588713,35.0228547,478.13,-0.0585,0.02675,0.9775,0.3,-0.22,-0.02,22360.0,18160.0,-34170.0
32.7588713,35.0228547,478.13,-0.05225,0.00875,1.0045,0.5,-0.54,0.1,22310.0,18240.0,-34160.0
32.7588713,35.0228547,478.13,-0.059,0.03225,0.9885,1.3,0.7,0.08,22340.0,18190.0,-34160.0
32.7588713,35.0228547,478.13,-0.06125,0.04,0.9655,0.9,0.5,0.1,22370.0,18160.0,-34160.0
32.7588713,35.0228547,478.13,-0.04425,0.0215,0.997,0.44,-0.84,0.08,22370.0,18280.0,-34150.0
32.7588713,35.0228547,478.13,-0.04025,0.034,1.014,1.06,-0.04,0.12,22340.0,18280.0,-34150.0
32.7588713,35.0228547,478.13,-0.05875,0.055,0.9775,1.16,1.22,0.06,22330.0,18220.0,-34170.0
32.7588713,35.0228547,478.13,-0.06375,0.03275,0.9755,0.42,0.24,0.14,22330.0,18150.0,-34170.0
32.7588713,35.0228547,478.13,-0.052,0.01775,1.01925,0.48,-0.68,0.14,22390.0,18100.0,-34170.0
32.7588713,35.0228547,478.13,-0.051,0.05275,1.012,1.28,0.58,0.12,22410.0,18070.0,-34170.0
32.7588713,35.0228547,478.13,-0.05875,0.06875,0.97475,0.76,0.88,0.04,22350.0,18120.0,-34170.0
32.7588713,35.0228547,478.13,-0.051,0.0305,0.99075,0.04,-0.28,0.16,22360.0,18130.0,-34170.0
32.7588713,35.0228547,478.13,-0.0445,0.02275,1.022,0.66,-0.06,0.04,22360.0,18100.0,-34170.0
32.7588713,35.0228547,478.13,-0.05675,0.06125,0.99575,1.28,1.24,0.0,22350.0,18090.0,-34180.0
32.7588713,35.0228547,478.13,-0.06275,0.06375,0.98,0.5,0.6,-0.02,22360.0,18160.0,-34170.0
32.7588713,35.0228547,478.13,-0.05525,0.03625,1.0175,0.18,-0.3,-0.04,22350.0,18240.0,-34160.0
32.7588713,35.0228547,478.13,-0.05775,0.04425,1.01975,0.88,0.64,0.0,22330.0,18140.0,-34170.0
32.7588713,35.0228547,478.13,-0.0685,0.06475,0.97975,0.96,1.24,0.02,22370.0,18060.0,-34180.0
32.7588713,35.0228547,478.13,-0.0575,0.05175,0.989,0.22,-0.04,-0.04,22400.0,18030.0,-34180.0
32.7588713,35.0228547,478.13,-0.04525,0.04625,1.027,0.48,-0.22,-0.08,22360.0,18060.0,-34190.0
32.7588713,35.0228547,478.13,-0.0585,0.071,1.002,0.92,1.28,-0.02,22350.0,18140.0,-34180.0
32.7588713,35.0228547,478.13,-0.0765,0.06675,0.9715,0.34,1.08,0.04,22370.0,18080.0,-34180.0
32.7588713,35.0228547,478.13,-0.07,0.0395,1.00725,-0.06,-0.28,0.0,22380.0,18070.0,-34180.0
32.7588713,35.0228547,478.13,-0.06325,0.053,1.0275,0.7,0.22,0.06,22420.0,18020.0,-34180.0
32.7588714,35.0228547,478.13,-0.072,0.0865,0.98775,0.8,1.18,0.08,22390.0,18130.0,-34170.0
32.7588714,35.0228547,478.13,-0.0725,0.06775,0.97575,-0.16,0.3,0.08,22360.0,18240.0,-34170.0
32.7588714,35.0228547,478.13,-0.06225,0.0375,1.01475,-0.24,-0.36,0.02,22370.0,18170.0,-34170.0
32.7588714,35.0228547,478.13,-0.065,0.05925,1.0115,0.6,0.66,0.1,22380.0,18060.0,-34180.0
32.7588714,35.0228547,478.13,-0.07725,0.08075,0.9775,0.34,0.96,0.1,22370.0,17990.0,-34190.0
32.7588714,35.0228547,478.13,-0.074,0.054,0.99525,-0.5,-0.26,0.04,22370.0,17970.0,-34190.0
32.7588714,35.0228547,478.13,-0.07025,0.037,1.0235,-0.18,-0.22,0.1,22380.0,17990.0,-34190.0
32.7588714,35.0228547,478.13,-0.07875,0.0605,0.99275,0.48,0.92,0.12,22400.0,18020.0,-34180.0
32.7588714,35.0228547,478.13,-0.07675,0.06025,0.97175,-0.08,0.24,-0.02,22410.0,18070.0,-34180.0
32.7588714,35.0228547,478.13,-0.05775,0.0345,1.01225,-0.52,-0.78,0.02,22400.0,18020.0,-34180.0
32.7588714,35.0228547,478.13,-0.05575,0.044,1.02075,0.24,0.2,0.0,22400.0,18100.0,-34180.0
32.7588714,35.0228547,478.13,-0.0735,0.064,0.9795,0.28,1.08,0.04,22410.0,18040.0,-34180.0
32.7588714,35.0228547,478.13,-0.075,0.038,0.987,-0.54,-0.14,0.08,22450.0,17950.0,-34190.0
32.7588714,35.0228547,478.13,-0.0625,0.01975,1.03,-0.3,-0.62,-0.1,22430.0,17910.0,-34190.0
32.7588714,35.0228547,478.13,-0.063,0.0505,1.01275,0.42,0.52,0.02,22420.0,17890.0,-34190.0
32.7588714,35.0228547,478.13,-0.07,0.0595,0.97375,-0.1,0.62,0.0,22430.0,17900.0,-34190.0
32.7588714,35.0228547,478.13,-0.05925,0.0235,0.9995,-0.76,-0.7,-0.08,22410.0,17980.0,-34190.0
32.7588714,35.0228547,478.13,-0.0515,0.01575,1.02475,-0.06,-0.24,-0.06,22360.0,18070.0,-34180.0
32.7588714,35.0228547,478.13,-0.0625,0.04775,0.9925,0.42,0.88,-0.02,22400.0,18010.0,-34180.0
32.7588714,35.0228547,478.13,-0.0715,0.0425,0.9835,-0.28,0.14,0.02,22430.0,17960.0,-34180.0
32.7588714,35.0228547,478.12,-0.06425,0.01675,1.013,-0.46,-0.58,-0.08,22380.0,18110.0,-34180.0
32.7588714,35.0228547,478.12,-0.059,0.02625,1.0115,0.26,0.04,-0.04,22360.0,18180.0,-34170.0
32.7588714,35.0228547,478.12,-0.067,0.0455,0.98475,0.34,0.56,-0.02,22410.0,18060.0,-34180.0
32.7588714,35.0228547,478.12,-0.06175,0.0285,0.99175,-0.26,-0.32,-0.1,22420.0,18010.0,-34190.0
32.7588714,35.0228547,478.12,-0.05,0.0215,1.013,-0.02,-0.58,-0.04,22410.0,17970.0,-34190.0
32.7588714,35.0228547,478.12,-0.05725,0.05,1.001,0.44,0.5,0.06,22400.0,17990.0,-34190.0
32.7588714,35.0228547,478.12,-0.07525,0.0495,0.9855,-0.08,0.6,0.04,22370.0,18040.0,-34190.0
32.7588714,35.0228547,478.12,-0.07325,0.02425,0.999,-0.28,-0.46,-0.02,22390.0,18020.0,-34190.0
32.7588714,35.0228547,478.12,-0.06,0.031,1.01275,0.26,-0.52,-0.08,22400.0,17990.0,-34200.0
32.7588714,35.0228547,478.12,-0.06325,0.06275,0.9945,0.42,0.4,0.08,22400.0,18020.0,-34190.0
32.7588714,35.0228547,478.12,-0.0665,0.0495,0.982,-0.2,0.2,0.02,22370.0,18120.0,-34190.0
32.7588714,35.0228547,478.12,-0.0565,0.021,0.996,-0.3,-0.62,0.02,22380.0,18160.0,-34180.0
32.7588714,35.0228547,478.12,-0.0535,0.04025,1.00175,0.46,-0.08,0.0,22390.0,18050.0,-34190.0
32.7588714,35.0228547,478.12,-0.06875,0.06675,0.9865,0.36,0.74,0.08,22430.0,18020.0,-34190.0
32.7588714,35.0228547,478.12,-0.07175,0.04775,0.9865,-0.28,-0.02,0.02,22460.0,17950.0,-34190.0
32.7588714,35.0228547,478.12,-0.063,0.03075,1.0065,-0.06,-0.66,0.04,22450.0,18010.0,-34200.0
32.7588714,35.0228547,478.12,-0.06375,0.059,0.9995,0.52,0.26,0.02,22410.0,18060.0,-34190.0
32.7588714,35.0228547,478.12,-0.06825,0.069,0.9815,0.16,0.4,0.0,22410.0,18140.0,-34190.0
32.7588714,35.0228547,478.12,-0.0555,0.0435,0.9945,-0.36,-0.62,-0.06,22410.0,18120.0,-34190.0
32.7588714,35.0228547,478.12,-0.0465,0.045,1.00975,0.08,-0.48,-0.02,22370.0,18110.0,-34190.0
32.7588714,35.0228547,478.12,-0.062,0.06925,0.9925,0.22,0.78,0.04,22400.0,18210.0,-34170.0
32.7588714,35.0228547,478.13,-0.07225,0.05,0.9815,-0.42,0.3,-0.04,22440.0,18280.0,-34160.0
32.7588714,35.0228547,478.13,-0.06225,0.024,1.00575,-0.4,-0.84,-0.04,22400.0,18360.0,-34160.0
32.7588714,35.0228547,478.13,-0.0545,0.0525,1.0115,0.4,-0.18,0.1,22390.0,18370.0,-34160.0
32.7588714,35.0228547,478.13,-0.06175,0.07225,0.98225,0.08,0.72,0.02,22390.0,18310.0,-34170.0
32.7588714,35.0228547,478.13,-0.05875,0.03425,0.97875,-0.6,-0.32,0.0,22370.0,18230.0,-34180.0
32.7588714,35.0228547,478.13,-0.05125,0.01625,1.00625,-0.14,-0.62,0.04,22360.0,18210.0,-34190.0
32.7588714,35.0228547,478.13,-0.05825,0.052,1.003,0.5,0.48,0.06,22390.0,18160.0,-34180.0
32.7588714,35.0228547,478.13,-0.0695,0.0605,0.98075,-0.04,0.66,0.02,22380.0,18150.0,-34190.0
32.7588714,35.0228547,478.13,-0.06475,0.03025,0.9945,-0.5,-0.62,-0.02,22380.0,18170.0,-34190.0
32.7588714,35.0228547,478.13,-0.05675,0.03,1.011,0.16,-0.26,0.04,22390.0,18260.0,-34170.0
32.7588714,35.0228547,478.13,-0.064,0.054,0.9905,0.36,0.76,0.0,22410.0,18250.0,-34170.0
32.7588714,35.0228547,478.13,-0.06325,0.04325,0.979,-0.22,-0.04,0.04,22420.0,18140.0,-34180.0
32.7588714,35.0228547,478.13,-0.0505,0.025,1.005,-0.26,-0.72,-0.02,22400.0,18130.0,-34180.0
32.7588714,35.0228547,478.13,-0.05475,0.04725,1.0075,0.34,0.44,0.06,22390.0,18080.0,-34190.0
32.7588714,35.0228547,478.13,-0.074,0.0545,0.98225,-0.02,1.02,0.08,22430.0,18060.0,-34180.0
32.7588714,35.0228547,478.13,-0.07325,0.0225,0.984,-0.48,-0.42,0.0,22470.0,18070.0,-34180.0
32.7588714,35.0228547,478.13,-0.05975,0.0195,1.01025,0.12,-0.74,-0.06,22430.0,18180.0,-34170.0
32.7588714,35.0228547,478.13,-0.06325,0.0565,1.0035,0.52,0.56,0.02,22440.0,18260.0,-34160.0
32.7588714,35.0228547,478.13,-0.069,0.04925,0.97775,-0.16,0.44,0.0,22440.0,18210.0,-34170.0
32.7588714,35.0228547,478.13,-0.05925,0.0145,0.99225,-0.42,-0.78,-0.02,22490.0,18160.0,-34170.0
32.7588714,35.0228547,478.13,-0.05325,0.02725,1.01025,0.5,-0.18,-0.02,22540.0,18020.0,-34170.0
32.7588714,35.0228547,478.13,-0.0655,0.05575,0.99,0.54,0.88,0.0,22650.0,17770.0,-34190.0
32.7588714,35.0228547,478.13,-0.0685,0.03725,0.983,-0.28,-0.04,-0.06,22720.0,17630.0,-34200.0
32.7588714,35.0228547,478.13,-0.062,0.01775,1.0075,-0.04,-0.76,-0.02,22690.0,17600.0,-34210.0
32.7588714,35.0228547,478.13,-0.0655,0.04225,1.00425,0.62,0.38,0.0,22690.0,17580.0,-34210.0
32.7588714,35.0228547,478.13,-0.069,0.052,0.981,0.24,0.5,0.1,22580.0,17710.0,-34200.0
32.7588714,35.0228547,478.13,-0.0535,0.031,0.9935,-0.26,-0.84,-0.02,22510.0,17850.0,-34200.0
32.7588714,35.0228547,478.13,-0.04625,0.035,1.01175,0.34,-0.44,0.02,22470.0,17910.0,-34200.0
32.7588714,35.0228547,478.13,-0.0625,0.05825,0.99075,0.56,0.98,0.02,22430.0,17960.0,-34190.0
32.7588714,35.0228547,478.13,-0.06975,0.044,0.98375,-0.08,0.16,0.02,22430.0,18080.0,-34180.0
32.7588714,35.0228547,478.13,-0.059,0.03125,1.01575,-0.04,-0.92,0.02,22460.0,18130.0,-34170.0
32.7588714,35.0228547,478.13,-0.0575,0.062,1.016,0.56,0.12,0.06,22490.0,18020.0,-34180.0
32.7588714,35.0228547,478.13,-0.06675,0.07825,0.98375,0.22,0.74,0.1,22470.0,18020.0,-34190.0
32.7588714,35.0228547,478.13,-0.06125,0.04875,0.99275,-0.5,-0.46,0.02,22410.0,18040.0,-34190.0
32.7588714,35.0228547,478.13,-0.05375,0.03975,1.0225,-0.12,-0.52,0.02,22410.0,18030.0,-34190.0
32.7588714,35.0228547,478.13,-0.06275,0.074,1.00475,0.44,0.78,0.04,22420.0,18010.0,-34190.0
32.7588714,35.0228547,478.13,-0.07,0.07725,0.98925,-0.28,0.4,0.02,22450.0,18000.0,-34180.0
32.7588714,35.0228547,478.13,-0.06425,0.04825,1.0155,-0.7,-0.74,-0.06,22440.0,18010.0,-34180.0
32.7588714,35.0228547,478.13,-0.06275,0.0515,1.02075,-0.18,0.04,-0.02,22410.0,18080.0,-34180.0
32.7588714,35.0228547,478.13,-0.0725,0.0745,0.98925,-0.04,0.76,0.0,22350.0,18200.0,-34180.0
32.7588714,35.0228547,478.13,-0.06425,0.06,0.9925,-0.74,-0.42,-0.04,22360.0,18230.0,-34170.0
32.7588714,35.0228547,478.13,-0.0525,0.0485,1.0265,-0.62,-0.7,-0.1,22390.0,18120.0,-34180.0
32.7588714,35.0228547,478.13,-0.062,0.07125,1.01325,-0.24,0.68,0.04,22380.0,18070.0,-34180.0
32.7588714,35.0228547,478.13,-0.0775,0.0705,0.98125,-0.66,0.62,-0.06,22400.0,18010.0,-34190.0
32.7588714,35.0228547,478.13,-0.0685,0.03525,1.00125,-1.08,-0.76,-0.14,22430.0,17990.0,-34180.0
32.7588714,35.0228547,478.13,-0.0605,0.039,1.0225,-0.44,-0.36,-0.16,22390.0,17990.0,-34190.0
32.7588714,35.0228547,478.13,-0.071,0.0705,0.98625,-0.04,0.76,-0.02,22400.0,18030.0,-34180.0
32.7588714,35.0228547,478.13,-0.072,0.05225,0.96775,-0.96,0.02,-0.1,22390.0,18000.0,-34180.0
32.7588714,35.0228547,478.13,-0.0595,0.01825,1.0,-1.04,-0.9,-0.04,22370.0,18010.0,-34190.0
32.7588714,35.0228547,478.13,-0.06,0.0355,1.0005,-0.12,0.26,-0.06,22370.0,18120.0,-34170.0
32.7588714,35.0228547,478.13,-0.07225,0.0565,0.96675,-0.22,0.7,-0.06,22360.0,18200.0,-34170.0
32.7588714,35.0228547,478.13,-0.0685,0.0315,0.97725,-0.96,-0.56,-0.06,22280.0,18260.0,-34170.0
32.7588714,35.0228547,478.13,-0.0615,0.01975,1.00675,-0.58,-0.66,0.02,22250.0,18220.0,-34180.0
32.7588714,35.0228547,478.13,-0.067,0.0395,0.984,0.1,0.5,-0.02,22290.0,18120.0,-34180.0
32.7588714,35.0228547,478.13,-0.06575,0.0345,0.9595,-0.48,0.06,-0.02,22340.0,18050.0,-34190.0
32.7588714,35.0228547,478.13,-0.049,0.013,0.98825,-0.64,-1.12,0.02,22380.0,18090.0,-34180.0
32.7588714,35.0228547,478.13,-0.047,0.02025,1.0,0.06,-0.14,0.04,22350.0,18090.0,-34180.0
32.7588714,35.0228547,478.13,-0.06575,0.03275,0.9695,0.06,0.8,0.02,22330.0,18050.0,-34190.0
32.7588714,35.0228547,478.13,-0.06675,0.01175,0.97375,-0.44,-0.32,0.06,22360.0,17980.0,-34190.0
32.7588714,35.0228547,478.13,-0.05275,0.004,1.00875,-0.08,-0.98,0.02,22370.0,18090.0,-34180.0
32.7588714,35.0228547,478.13,-0.04825,0.0325,0.9995,0.52,0.2,0.06,22350.0,18190.0,-34170.0
32.7588714,35.0228547,478.13,-0.0525,0.03875,0.9735,0.02,0.38,0.06,22350.0,18110.0,-34180.0
32.7588714,35.0228547,478.13,-0.0465,0.01225,0.994,-0.36,-0.68,0.1,22360.0,18050.0,-34180.0
32.7588714,35.0228547,478.13,-0.043,0.012,1.015,0.16,-0.26,-0.04,22360.0,18010.0,-34190.0
32.7588714,35.0228547,478.13,-0.0555,0.04475,0.999,0.64,0.78,0.04,22370.0,18030.0,-34190.0
32.7588714,35.0228547,478.13,-0.06225,0.0445,0.99475,-0.06,0.18,0.04,22350.0,18010.0,-34190.0
32.7588714,35.0228547,478.13,-0.05625,0.0245,1.01825,-0.32,-0.56,0.0,22360.0,17990.0,-34200.0
32.7588714,35.0228547,478.13,-0.05425,0.0335,1.01575,0.32,0.24,-0.02,22330.0,18030.0,-34200.0
32.7588714,35.0228547,478.13,-0.06175,0.05125,0.99625,0.2,0.64,-0.06,22380.0,18040.0,-34190.0
32.7588714,35.0228547,478.13,-0.056,0.04325,1.00725,-0.28,-0.3,-0.04,22430.0,18110.0,-34180.0
32.7588714,35.0228547,478.13,-0.051,0.04125,1.02375,-0.12,-0.38,-0.08,22380.0,18080.0,-34180.0
32.7588714,35.0228547,478.13,-0.064,0.0585,1.0065,0.16,0.74,0.02,22380.0,18010.0,-34190.0
32.7588714,35.0228547,478.13,-0.07975,0.05025,0.996,-0.26,0.52,-0.04,22380.0,18030.0,-34190.0
32.7588714,35.0228547,478.13,-0.0755,0.033,1.0155,-0.44,-0.46,-0.08,22350.0,18100.0,-34200.0
32.7588714,35.0228547,478.13,-0.067,0.0515,1.017,0.2,-0.18,-0.06,22370.0,18140.0,-34190.0
32.7588714,35.0228547,478.13,-0.0715,0.07425,0.9955,0.1,0.56,-0.08,22390.0,18210.0,-34180.0
32.7588714,35.0228547,478.13,-0.0705,0.05325,0.99275,-0.5,-0.04,-0.1,22350.0,18230.0,-34190.0
32.7588714,35.0228547,478.13,-0.06475,0.03625,1.007,-0.4,-0.58,0.0,22370.0,18160.0,-34190.0
32.7588714,35.0228547,478.13,-0.0715,0.0625,0.998,0.28,0.34,-0.06,22360.0,18120.0,-34190.0
32.7588714,35.0228547,478.13,-0.08025,0.07575,0.98675,-0.12,0.52,0.0,22340.0,18240.0,-34180.0
32.7588714,35.0228547,478.13,-0.07725,0.0545,1.00175,-0.68,-0.5,-0.04,22330.0,18280.0,-34170.0
32.7588714,35.0228547,478.13,-0.0735,0.052,1.007,-0.3,-0.36,0.0,22340.0,18180.0,-34180.0
32.7588714,35.0228547,478.13,-0.07775,0.07275,0.98725,0.0,0.4,-0.02,22330.0,18210.0,-34180.0
32.7588714,35.0228547,478.13,-0.07225,0.0665,0.9885,-0.64,-0.18,-0.04,22390.0,18150.0,-34180.0
32.7588714,35.0228547,478.13,-0.0605,0.055,1.00925,-0.8,-0.84,0.04,22390.0,18130.0,-34180.0
32.7588714,35.0228547,478.13,-0.063,0.07,0.9995,-0.36,0.04,0.04,22350.0,18160.0,-34180.0
32.7588714,35.0228547,478.13,-0.07825,0.06825,0.984,-0.66,0.44,0.08,22360.0,18130.0,-34180.0
32.7588714,35.0228547,478.13,-0.076,0.04475,1.00325,-1.22,-0.54,-0.1,22380.0,18080.0,-34180.0
32.7588714,35.0228547,478.13,-0.06575,0.05125,1.0165,-0.74,-0.8,0.0,22380.0,18120.0,-34180.0
32.7588714,35.0228547,478.13,-0.064,0.074,0.992,-0.5,0.06,-0.04,22340.0,18220.0,-34170.0
32.7588714,35.0228547,478.13,-0.06225,0.05725,0.9875,-1.22,-0.18,0.0,22330.0,18210.0,-34170.0
32.7588714,35.0228547,478.13,-0.0555,0.029,1.0095,-1.38,-0.92,-0.08,22340.0,18110.0,-34180.0
32.7588714,35.0228547,478.13,-0.057,0.03975,1.0025,-0.7,-0.32,-0.06,22330.0,18110.0,-34180.0
32.7588714,35.0228547,478.13,-0.0675,0.055,0.9835,-0.7,0.14,-0.16,22320.0,18120.0,-34180.0
32.7588714,35.0228547,478.13,-0.063,0.03325,1.00175,-1.38,-0.56,-0.12,22310.0,18120.0,-34180.0
32.7588714,35.0228547,478.13,-0.05875,0.0165,1.0175,-1.04,-0.8,-0.1,22300.0,18150.0,-34180.0
32.7588714,35.0228547,478.13,-0.062,0.03125,0.9875,-0.46,0.04,-0.1,22310.0,18210.0,-34160.0
32.7588714,35.0228547,478.13,-0.0595,0.0295,0.976,-0.72,-0.28,-0.12,22300.0,18250.0,-34160.0
32.7588714,35.0228547,478.13,-0.04575,0.00975,1.00725,-0.96,-1.08,-0.22,22260.0,18240.0,-34170.0
32.7588714,35.0228547,478.13,-0.04825,0.01775,1.00625,-0.4,-0.36,-0.08,22260.0,18310.0,-34160.0
32.7588713,35.0228547,478.14,-0.06625,0.0325,0.9715,-0.28,0.46,-0.06,22270.0,18400.0,-34140.0
32.7588713,35.0228547,478.14,-0.06675,0.009,0.979,-0.8,-0.48,-0.04,22260.0,18390.0,-34140.0
32.7588713,35.0228547,478.14,-0.057,-0.005,1.012,-0.5,-1.04,-0.02,22290.0,18330.0,-34140.0
32.7588713,35.0228547,478.14,-0.0575,0.0245,0.994,0.18,0.0,0.08,22280.0,18290.0,-34150.0
32.7588713,35.0228547,478.14,-0.05925,0.0375,0.96325,-0.16,0.02,0.02,22230.0,18230.0,-34170.0
32.7588713,35.0228547,478.14,-0.04925,0.00425,0.98425,-0.78,-0.92,0.02,22210.0,18180.0,-34170.0
32.7588713,35.0228547,478.14,-0.04825,-0.0005,1.00425,-0.08,-0.5,0.04,22220.0,18170.0,-34170.0
32.7588713,35.0228547,478.14,-0.062,0.0335,0.9775,0.44,0.46,0.06,22190.0,18200.0,-34170.0
32.7588713,35.0228547,478.14,-0.06325,0.0285,0.968,-0.26,-0.28,0.08,22210.0,18140.0,-34170.0
32.7588713,35.0228547,478.14,-0.05475,0.0035,1.00325,-0.46,-0.94,0.08,22240.0,18170.0,-34160.0
32.7588713,35.0228547,478.14,-0.057,0.01925,1.0005,0.4,0.04,0.1,22260.0,18130.0,-34160.0
32.7588713,35.0228547,478.14,-0.06075,0.03875,0.9635,0.36,0.32,0.06,22240.0,18070.0,-34170.0
32.7588713,35.0228547,478.14,-0.04675,0.01775,0.98075,-0.32,-0.94,0.04,22250.0,18080.0,-34170.0
32.7588713,35.0228547,478.14,-0.0385,0.013,1.011,0.22,-0.66,0.02,22240.0,18040.0,-34170.0
32.7588713,35.0228547,478.14,-0.05225,0.04375,0.98825,0.74,0.76,0.0,22240.0,18050.0,-34170.0
32.7588713,35.0228547,478.14,-0.063,0.03825,0.97,0.1,0.2,0.0,22290.0,18010.0,-34170.0
32.7588713,35.0228547,478.14,-0.05525,0.012,1.002,-0.14,-0.9,0.0,22270.0,18090.0,-34170.0
32.7588713,35.0228547,478.14,-0.0495,0.03325,1.016,0.78,-0.14,0.04,22250.0,18170.0,-34160.0
32.7588713,35.0228547,478.14,-0.05575,0.06325,0.98275,0.72,0.7,0.02,22260.0,18210.0,-34150.0
32.7588713,35.0228547,478.14,-0.0505,0.04025,0.98025,-0.16,-0.34,-0.06,22270.0,18240.0,-34150.0
32.7588713,35.0228547,478.14,-0.04175,0.021,1.012,0.1,-0.7,-0.02,22260.0,18260.0,-34140.0
32.7588713,35.0228547,478.14,-0.0505,0.054,1.005,0.92,0.7,0.04,22280.0,18180.0,-34150.0
32.7588713,35.0228547,478.14,-0.06275,0.06575,0.98075,0.3,0.56,0.0,22270.0,18100.0,-34160.0
32.7588713,35.0228547,478.14,-0.059,0.03875,1.0,-0.3,-0.54,0.0,22220.0,18090.0,-34170.0
32.7588713,35.0228547,478.14,-0.0575,0.04025,1.02,0.28,-0.18,0.08,22280.0,17990.0,-34170.0
32.7588713,35.0228547,478.14,-0.06775,0.0655,0.99,0.54,0.86,0.0,22450.0,17730.0,-34180.0
32.7588713,35.0228547,478.14,-0.063,0.0555,0.9805,-0.18,-0.1,0.04,22510.0,17600.0,-34190.0
32.7588713,35.0228547,478.14,-0.049,0.0395,1.01225,-0.24,-0.82,0.04,22560.0,17600.0,-34190.0
32.7588713,35.0228547,478.14,-0.0565,0.06,1.00975,0.46,0.58,0.08,22580.0,17570.0,-34190.0
32.7588713,35.0228547,478.14,-0.0745,0.06475,0.97975,0.12,0.92,0.06,22550.0,17670.0,-34190.0
32.7588713,35.0228547,478.14,-0.07125,0.03525,0.99175,-0.52,-0.54,0.0,22480.0,17740.0,-34190.0
32.7588713,35.0228547,478.14,-0.0625,0.038,1.02125,0.1,-0.56,-0.04,22400.0,17840.0,-34190.0
32.7588713,35.0228547,478.14,-0.06775,0.07275,0.998,0.52,0.74,0.08,22340.0,17910.0,-34190.0
32.7588713,35.0228547,478.14,-0.06925,0.06175,0.9745,-0.38,0.18,0.02,22330.0,17920.0,-34180.0
32.7588713,35.0228547,478.14,-0.05975,0.0265,1.00075,-0.62,-0.8,-0.02,22340.0,17950.0,-34180.0
32.7588713,35.0228547,478.14,-0.058,0.042,1.01,0.26,0.14,-0.04,22310.0,18070.0,-34170.0
32.7588713,35.0228547,478.14,-0.07025,0.06725,0.98525,0.2,0.8,-0.02,22290.0,18140.0,-34160.0
32.7588713,35.0228547,478.14,-0.07,0.04475,0.98775,-0.6,-0.32,0.0,22290.0,18130.0,-34160.0
32.7588713,35.0228547,478.14,-0.06025,0.024,1.01125,-0.42,-0.66,-0.02,22280.0,18160.0,-34160.0
32.7588713,35.0228547,478.13,-0.06325,0.04675,0.99875,0.3,0.5,0.06,22310.0,18230.0,-34150.0
32.7588713,35.0228547,478.13,-0.066,0.0495,0.97875,-0.14,0.3,-0.02,22320.0,18250.0,-34150.0
32.7588713,35.0228547,478.13,-0.0525,0.0215,0.9945,-0.68,-0.82,-0.04,22300.0,18170.0,-34160.0
32.7588713,35.0228547,478.13,-0.046,0.0285,1.01025,0.02,-0.34,-0.02,22280.0,18140.0,-34170.0
32.7588713,35.0228547,478.13,-0.06075,0.04975,0.9915,0.12,0.82,0.02,22310.0,18050.0,-34170.0
32.7588713,35.0228547,478.13,-0.0665,0.026,0.982,-0.56,0.0,0.0,22310.0,18070.0,-34170.0
32.7588713,35.0228547,478.13,-0.0565,0.0055,1.007,-0.3,-0.92,-0.1,22310.0,18100.0,-34170.0
32.7588713,35.0228547,478.13,-0.05225,0.036,1.0085,0.4,0.1,-0.02,22320.0,18150.0,-34170.0
32.7588713,35.0228547,478.13,-0.058,0.0525,0.984,-0.02,0.54,0.0,22310.0,18140.0,-34170.0
32.7588713,35.0228547,478.13,-0.05425,0.0175,0.98625,-0.62,-0.4,-0.06,22290.0,18160.0,-34170.0
32.7588713,35.0228547,478.13,-0.0475,0.009,1.007,0.04,-0.46,0.1,22280.0,18260.0,-34160.0
32.7588713,35.0228547,478.13,-0.0565,0.04425,1.0005,0.6,0.76,0.04,22270.0,18320.0,-34150.0
32.7588713,35.0228547,478.13,-0.06425,0.04525,0.986,-0.12,0.38,-0.02,22240.0,18220.0,-34170.0
32.7588713,35.0228547,478.13,-0.0595,0.017,0.99975,-0.42,-0.6,0.0,22240.0,18150.0,-34180.0
32.7588713,35.0228547,478.13,-0.056,0.027,1.00725,0.38,-0.04,0.02,22290.0,18110.0,-34180.0
32.7588713,35.0228547,478.13,-0.06375,0.04975,0.98775,0.36,0.66,0.04,22320.0,18090.0,-34170.0
32.7588713,35.0228547,478.13,-0.05975,0.0335,0.98725,-0.28,-0.2,0.02,22350.0,18130.0,-34170.0
32.7588713,35.0228547,478.13,-0.0495,0.0235,1.006,-0.02,-0.62,0.02,22330.0,18100.0,-34180.0
32.7588713,35.0228547,478.13,-0.058,0.05,0.999,0.5,0.54,0.08,22310.0,18140.0,-34180.0
32.7588713,35.0228547,478.13,-0.07425,0.0495,0.98525,-0.06,0.74,0.06,22260.0,18190.0,-34180.0
32.7588713,35.0228547,478.14,-0.0705,0.02075,0.996,-0.32,-0.5,0.02,22260.0,18320.0,-34170.0
32.7588713,35.0228547,478.14,-0.0595,0.03225,1.01,0.44,-0.44,0.02,22250.0,18420.0,-34160.0
32.7588713,35.0228547,478.14,-0.0635,0.06625,0.9965,0.5,0.58,-0.02,22270.0,18400.0,-34160.0
32.7588713,35.0228547,478.14,-0.06475,0.048,0.983,-0.3,0.14,0.04,22300.0,18290.0,-34160.0
32.7588713,35.0228547,478.14,-0.05675,0.01825,0.99875,-0.26,-0.74,0.0,22300.0,18170.0,-34170.0
32.7588713,35.0228547,478.14,-0.057,0.04575,1.0055,0.5,0.12,0.02,22310.0,18150.0,-34170.0
32.7588713,35.0228547,478.14,-0.0685,0.06675,0.99175,0.3,0.68,0.0,22330.0,18080.0,-34180.0
32.7588713,35.0228547,478.14,-0.069,0.03925,0.9915,-0.5,-0.26,-0.04,22310.0,18120.0,-34180.0
32.7588713,35.0228547,478.14,-0.06075,0.02775,1.007,-0.08,-0.62,0.04,22300.0,18150.0,-34180.0
32.7588713,35.0228547,478.14,-0.06175,0.05575,0.9985,0.5,0.38,0.02,22330.0,18100.0,-34180.0
32.7588713,35.0228547,478.14,-0.06325,0.05575,0.9845,-0.04,0.2,0.04,22370.0,18250.0,-34160.0
32.7588713,35.0228547,478.14,-0.0515,0.031,0.99825,-0.4,-0.78,-0.02,22350.0,18240.0,-34160.0
32.7588713,35.0228547,478.14,-0.048,0.04175,1.00525,0.2,-0.16,0.0,22320.0,18160.0,-34170.0
32.7588713,35.0228547,478.14,-0.06525,0.06075,0.989,0.2,0.82,0.04,22330.0,18100.0,-34180.0
32.7588713,35.0228547,478.14,-0.0695,0.03875,0.98925,-0.42,-0.04,0.06,22300.0,18100.0,-34180.0
32.7588713,35.0228547,478.14,-0.05725,0.022,1.007,-0.14,-0.76,-0.06,22310.0,18060.0,-34180.0
32.7588713,35.0228547,478.14,-0.05275,0.0525,1.00425,0.4,0.1,0.08,22310.0,18170.0,-34170.0
32.7588713,35.0228547,478.14,-0.0605,0.0635,0.98475,-0.04,0.62,0.0,22290.0,18260.0,-34160.0
32.7588713,35.0228547,478.14,-0.056,0.02725,0.989,-0.64,-0.44,-0.04,22320.0,18190.0,-34160.0
32.7588713,35.0228547,478.14,-0.049,0.02,1.006,-0.02,-0.46,-0.06,22340.0,18100.0,-34170.0
32.7588713,35.0228547,478.13,-0.0585,0.05725,0.99875,0.44,0.64,0.02,22320.0,18200.0,-34160.0
32.7588713,35.0228547,478.13,-0.0665,0.05325,0.98675,-0.26,0.46,0.04,22300.0,18240.0,-34160.0
32.7588713,35.0228547,478.13,-0.0615,0.01925,0.99975,-0.6,-0.64,-0.04,22300.0,18170.0,-34170.0
32.7588713,35.0228547,478.13,-0.05675,0.0285,1.00725,0.14,-0.12,0.0,22270.0,18140.0,-34170.0
32.7588713,35.0228547,478.13,-0.06425,0.0535,0.989,0.3,0.66,-0.02,22280.0,18090.0,-34180.0
32.7588713,35.0228547,478.13,-0.0585,0.03275,0.985,-0.44,-0.14,0.02,22300.0,18080.0,-34170.0
32.7588713,35.0228547,478.13,-0.04775,0.018,1.00525,-0.22,-0.74,-0.04,22310.0,18090.0,-34170.0
32.7588713,35.0228547,478.13,-0.0555,0.0445,1.00125,0.34,0.52,0.04,22330.0,18050.0,-34170.0
32.7588713,35.0228547,478.13,-0.072,0.0435,0.9835,-0.12,0.76,0.08,22360.0,17990.0,-34170.0
32.7588713,35.0228547,478.13,-0.0685,0.013,0.995,-0.38,-0.54,-0.02,22370.0,18000.0,-34170.0
32.7588713,35.0228547,478.13,-0.05725,0.023,1.0105,0.24,-0.52,0.0,22320.0,18140.0,-34160.0
32.7588713,35.0228547,478.13,-0.0615,0.05875,0.9955,0.52,0.58,-0.02,22350.0,18080.0,-34170.0
32.7588713,35.0228547,478.13,-0.064,0.04175,0.9805,-0.34,0.12,-0.08,22350.0,18000.0,-34170.0
32.7588713,35.0228547,478.13,-0.05575,0.00975,0.99775,-0.34,-0.72,0.1,22330.0,17970.0,-34170.0
32.7588713,35.0228547,478.13,-0.055,0.034,1.00775,0.54,0.1,0.0,22310.0,17940.0,-34170.0
32.7588713,35.0228547,478.13,-0.06825,0.0605,0.99275,0.32,0.82,0.02,22300.0,17940.0,-34180.0
32.7588713,35.0228547,478.13,-0.06875,0.03675,0.99,-0.44,-0.24,-0.02,22270.0,18000.0,-34180.0
32.7588713,35.0228547,478.13,-0.06,0.01925,1.00625,-0.16,-0.66,0.0,22270.0,18030.0,-34170.0
32.7588713,35.0228547,478.13,-0.061,0.04775,1.001,0.54,0.36,0.02,22290.0,18030.0,-34170.0
32.7588713,35.0228547,478.13,-0.0635,0.05225,0.98475,-0.02,0.36,0.0,22230.0,18110.0,-34180.0
32.7588713,35.0228547,478.13,-0.05275,0.02575,0.9955,-0.44,-0.7,-0.08,22190.0,18220.0,-34170.0
32.7588713,35.0228547,478.13,-0.04925,0.03675,1.00725,0.26,-0.22,0.06,22190.0,18320.0,-34150.0
32.7588713,35.0228547,478.13,-0.06575,0.06,0.99225,0.34,0.86,0.08,22190.0,18370.0,-34150.0
32.7588713,35.0228547,478.13,-0.07125,0.036,0.9855,-0.38,0.1,0.02,22200.0,18290.0,-34160.0
32.7588713,35.0228547,478.13,-0.058,0.0175,1.006,-0.08,-0.88,-0.02,22210.0,18210.0,-34160.0
32.7588713,35.0228547,478.13,-0.05225,0.053,1.007,0.56,0.12,0.02,22220.0,18130.0,-34180.0
32.7588713,35.0228547,478.13,-0.05925,0.06675,0.98625,0.16,0.72,0.0,22230.0,18130.0,-34180.0
32.7588713,35.0228547,478.13,-0.057,0.02875,0.9865,-0.62,-0.38,0.0,22250.0,18050.0,-34180.0
32.7588713,35.0228547,478.13,-0.0515,0.0235,1.006,-0.02,-0.54,-0.02,22210.0,18080.0,-34180.0
32.7588713,35.0228547,478.13,-0.06175,0.06,1.001,0.6,0.7,0.02,22220.0,18060.0,-34180.0
32.7588713,35.0228547,478.13,-0.069,0.0565,0.9875,-0.22,0.42,0.02,22240.0,18130.0,-34170.0
32.7588713,35.0228547,478.13,-0.06175,0.02575,0.99975,-0.44,-0.72,0.0,22270.0,18110.0,-34170.0
32.7588713,35.0228547,478.13,-0.05425,0.037,1.00675,0.2,-0.1,0.02,22280.0,18030.0,-34170.0
32.7588713,35.0228547,478.13,-0.0605,0.05875,0.99025,0.2,0.66,0.04,22270.0,18050.0,-34170.0
32.7588713,35.0228547,478.13,-0.05775,0.03725,0.986,-0.46,-0.24,0.08,22280.0,18020.0,-34180.0
32.7588713,35.0228547,478.13,-0.05,0.0245,1.004,-0.16,-0.64,-0.02,22270.0,18040.0,-34180.0
32.7588713,35.0228547,478.13,-0.05875,0.05175,1.00075,0.38,0.52,0.06,22290.0,18000.0,-34180.0
32.7588713,35.0228547,478.13,-0.07425,0.0505,0.98475,-0.18,0.7,0.0,22280.0,18060.0,-34170.0
32.7588713,35.0228547,478.13,-0.069,0.01775,0.99525,-0.56,-0.56,0.02,22230.0,18180.0,-34170.0
32.7588713,35.0228547,478.13,-0.0555,0.0275,1.01025,0.24,-0.44,0.02,22260.0,18160.0,-34170.0
32.7588713,35.0228547,478.13,-0.05925,0.06375,0.99525,0.4,0.64,0.0,22300.0,18240.0,-34150.0
32.7588713,35.0228547,478.13,-0.0615,0.04375,0.98125,-0.4,0.12,-0.04,22300.0,18300.0,-34140.0
32.7588713,35.0228547,478.13,-0.05475,0.012,0.9975,-0.36,-0.78,0.04,22290.0,18200.0,-34150.0
32.7588713,35.0228547,478.13,-0.0565,0.03775,1.007,0.5,0.16,-0.02,22270.0,18210.0,-34160.0
32.7588713,35.0228547,478.13,-0.07025,0.06025,0.99125,0.26,0.8,0.06,22250.0,18160.0,-34170.0
32.7588713,35.0228547,478.13,-0.0695,0.03225,0.9905,-0.56,-0.28,-0.02,22280.0,18110.0,-34170.0
32.7588713,35.0228547,478.13,-0.05925,0.01975,1.00725,-0.16,-0.66,-0.06,22270.0,18060.0,-34180.0
32.7588713,35.0228547,478.13,-0.06025,0.0485,1.0,0.42,0.5,0.04,22260.0,18060.0,-34180.0
32.7588713,35.0228547,478.13,-0.0615,0.0465,0.98425,-0.18,0.34,0.0,22260.0,18110.0,-34180.0
32.7588713,35.0228547,478.13,-0.051,0.01975,0.996,-0.42,-0.84,-0.02,22270.0,18130.0,-34170.0
32.7588713,35.0228547,478.13,-0.04875,0.03375,1.0075,0.26,-0.14,0.06,22240.0,18270.0,-34160.0
32.7588713,35.0228547,478.13,-0.066,0.05475,0.992,0.2,0.94,0.02,22350.0,18060.0,-34170.0
32.7588713,35.0228547,478.13,-0.07175,0.02875,0.98625,-0.46,0.0,-0.02,22460.0,17780.0,-34190.0
32.7588713,35.0228547,478.13,-0.05825,0.013,1.00525,-0.06,-0.92,-0.04,22480.0,17680.0,-34200.0
32.7588713,35.0228547,478.13,-0.054,0.05075,1.00675,0.62,0.2,0.04,22530.0,17590.0,-34200.0
32.7588713,35.0228547,478.13,-0.0595,0.0605,0.9855,0.02,0.6,0.08,22590.0,17570.0,-34190.0
32.7588713,35.0228547,478.13,-0.05625,0.022,0.9855,-0.58,-0.5,-0.12,22540.0,17680.0,-34190.0
32.7588713,35.0228547,478.13,-0.05075,0.02175,1.0055,0.2,-0.46,0.02,22410.0,17920.0,-34180.0
32.7588713,35.0228547,478.13,-0.06125,0.05875,1.0,0.6,0.78,0.04,22330.0,18040.0,-34180.0
32.7588713,35.0228547,478.13,-0.069,0.05175,0.986,-0.34,0.38,-0.02,22290.0,18130.0,-34170.0
32.7588713,35.0228547,478.13,-0.06125,0.0215,0.99975,-0.36,-0.7,0.0,22280.0,18240.0,-34160.0
32.7588713,35.0228547,478.13,-0.05625,0.0395,1.00625,0.38,-0.04,-0.02,22270.0,18320.0,-34150.0
32.7588713,35.0228547,478.13,-0.06275,0.06,0.98825,0.26,0.72,-0.02,22270.0,18250.0,-34160.0
32.7588713,35.0228547,478.13,-0.058,0.03475,0.98625,-0.4,-0.34,-0.04,22250.0,18260.0,-34160.0
32.7588713,35.0228547,478.13,-0.05,0.026,1.00475,-0.02,-0.62,-0.02,22290.0,18170.0,-34170.0
32.7588713,35.0228547,478.13,-0.0605,0.05625,1.0005,0.46,0.62,0.06,22320.0,18140.0,-34170.0
32.7588713,35.0228547,478.13,-0.0735,0.0505,0.98425,-0.16,0.68,0.04,22290.0,18150.0,-34170.0
32.7588713,35.0228547,478.13,-0.0665,0.0185,0.997,-0.44,-0.68,-0.08,22290.0,18170.0,-34170.0
32.7588713,35.0228547,478.13,-0.05475,0.03625,1.01125,0.38,-0.42,0.06,22280.0,18140.0,-34170.0
32.7588713,35.0228547,478.13,-0.0605,0.068,0.99475,0.34,0.7,-0.02,22290.0,18160.0,-34170.0
32.7588713,35.0228547,478.13,-0.06275,0.041,0.98225,-0.48,0.0,0.04,22290.0,18260.0,-34160.0
32.7588713,35.0228547,478.13,-0.05425,0.015,1.00075,-0.24,-0.78,-0.04,22270.0,18350.0,-34150.0
32.7588713,35.0228547,478.13,-0.0555,0.04625,1.007,0.58,0.26,-0.08,22250.0,18420.0,-34140.0
32.7588713,35.0228547,478.13,-0.068,0.06325,0.9905,0.08,0.78,-0.02,22280.0,18400.0,-34140.0
32.7588713,35.0228547,478.13,-0.0665,0.03,0.99175,-0.58,-0.44,0.0,22330.0,18400.0,-34140.0
32.7588713,35.0228547,478.13,-0.0585,0.02325,1.00825,-0.02,-0.6,-0.02,22270.0,18460.0,-34140.0
32.7588713,35.0228547,478.13,-0.0635,0.054,0.99875,0.42,0.54,0.04,22210.0,18490.0,-34150.0
32.7588713,35.0228547,478.13,-0.06325,0.0465,0.98375,-0.3,0.16,0.06,22230.0,18470.0,-34140.0
32.7588713,35.0228547,478.13,-0.05075,0.0215,0.998,-0.4,-0.78,-0.04,22240.0,18450.0,-34140.0
32.7588713,35.0228547,478.13,-0.04775,0.0395,1.00725,0.34,0.02,0.04,22240.0,18450.0,-34140.0
32.7588713,35.0228547,478.13,-0.065,0.05425,0.99,0.08,0.92,0.04,22260.0,18440.0,-34140.0
32.7588713,35.0228547,478.13,-0.06875,0.02475,0.987,-0.52,-0.14,-0.02,22220.0,18470.0,-34150.0
32.7588713,35.0228547,478.13,-0.057,0.01725,1.00725,-0.02,-0.78,0.0,22200.0,18490.0,-34140.0
32.7588713,35.0228547,478.13,-0.0565,0.05575,1.005,0.58,0.34,-0.02,22240.0,18440.0,-34140.0
32.7588713,35.0228547,478.13,-0.0625,0.056,0.98225,-0.12,0.52,0.06,22240.0,18450.0,-34140.0
32.7588713,35.0228547,478.13,-0.057,0.016,0.98775,-0.54,-0.62,-0.04,22240.0,18470.0,-34140.0
32.7588713,35.0228547,478.13,-0.0505,0.02325,1.007,0.26,-0.34,0.0,22230.0,18480.0,-34140.0
32.7588713,35.0228547,478.13,-0.06175,0.06,0.99875,0.56,0.84,0.0,22220.0,18470.0,-34130.0
32.7588713,35.0228547,478.13,-0.06675,0.045,0.98625,-0.36,0.2,-0.02,22280.0,18420.0,-34130.0
32.7588713,35.0228547,478.13,-0.06,0.01775,1.001,-0.34,-0.74,0.06,22290.0,18400.0,-34130.0
32.7588713,35.0228547,478.13,-0.05825,0.03975,1.00625,0.46,0.18,-0.04,22280.0,18410.0,-34140.0
32.7588713,35.0228547,478.13,-0.06425,0.0545,0.98725,0.2,0.58,0.04,22220.0,18410.0,-34140.0
32.7588713,35.0228547,478.13,-0.0575,0.0285,0.98825,-0.48,-0.52,-0.1,22230.0,18410.0,-34140.0
32.7588713,35.0228547,478.13,-0.05,0.0275,1.00625,0.08,-0.48,0.02,22260.0,18380.0,-34140.0
32.7588713,35.0228547,478.13,-0.062,0.05525,1.0,0.44,0.76,0.06,22230.0,18390.0,-34140.0
32.7588713,35.0228547,478.13,-0.073,0.04,0.984,-0.3,0.48,0.0,22230.0,18370.0,-34140.0
32.7588713,35.0228547,478.13,-0.0635,0.01375,0.9985,-0.3,-0.74,-0.04,22300.0,18360.0,-34140.0
32.7588713,35.0228547,478.13,-0.054,0.04125,1.01075,0.52,-0.22,0.04,22270.0,18390.0,-34140.0
32.7588713,35.0228547,478.13,-0.0605,0.06675,0.99225,0.3,0.76,0.06,22280.0,18370.0,-34140.0
32.7588713,35.0228547,478.13,-0.06175,0.03225,0.982,-0.6,-0.12,-0.02,22280.0,18370.0,-34140.0
32.7588713,35.0228547,478.13,-0.0545,0.01525,1.00125,-0.06,-0.7,0.0,22260.0,18390.0,-34140.0
32.7588713,35.0228547,478.13,-0.05925,0.05325,1.00525,0.62,0.44,0.02,22290.0,18380.0,-34140.0
32.7588713,35.0228547,478.13,-0.069,0.05975,0.989,-0.08,0.64,0.08,22300.0,18230.0,-34150.0
32.7588713,35.0228547,478.13,-0.06475,0.02625,0.9935,-0.54,-0.58,0.0,22270.0,18180.0,-34160.0
32.7588713,35.0228547,478.13,-0.05675,0.03025,1.00725,0.22,-0.34,0.04,22280.0,18110.0,-34170.0
32.7588713,35.0228547,478.13,-0.062,0.0575,0.995,0.34,0.62,0.02,22300.0,18050.0,-34170.0
32.7588713,35.0228547,478.13,-0.06,0.04275,0.985,-0.32,-0.08,0.04,22310.0,18070.0,-34170.0
32.7588713,35.0228547,478.13,-0.049,0.02525,1.0,-0.26,-0.82,-0.06,22320.0,18030.0,-34170.0
32.7588713,35.0228547,478.13,-0.05275,0.04925,1.00425,0.38,0.34,0.04,22310.0,18000.0,-34170.0
32.7588713,35.0228547,478.13,-0.07025,0.05225,0.987,0.04,0.8,0.04,22310.0,18040.0,-34180.0
32.7588713,35.0228547,478.13,-0.0685,0.02075,0.991,-0.5,-0.46,0.0,22310.0,18100.0,-34170.0
32.7588713,35.0228547,478.13,-0.0555,0.02875,1.00925,0.12,-0.7,-0.04,22310.0,18030.0,-34170.0
32.7588713,35.0228547,478.13,-0.057,0.065,1.0,0.5,0.54,0.04,22340.0,18000.0,-34170.0
32.7588713,35.0228547,478.13,-0.06075,0.04825,0.98175,-0.44,0.34,0.04,22330.0,18030.0,-34170.0
32.7588713,35.0228547,478.13,-0.05425,0.0135,0.99375,-0.46,-0.74,-0.06,22310.0,18030.0,-34180.0
32.7588713,35.0228547,478.13,-0.05225,0.03625,1.00675,0.42,-0.06,0.06,22310.0,18030.0,-34180.0
32.7588713,35.0228547,478.13,-0.06525,0.063,0.99475,0.22,0.84,-0.02,22260.0,18110.0,-34180.0
32.7588713,35.0228547,478.13,-0.0675,0.0365,0.98925,-0.52,-0.06,-0.02,22270.0,18160.0,-34160.0
32.7588713,35.0228547,478.13,-0.0595,0.01975,1.0045,-0.2,-0.72,-0.02,22290.0,18210.0,-34160.0
32.7588713,35.0228547,478.13,-0.061,0.04675,1.00125,0.38,0.42,0.0,22250.0,18170.0,-34170.0
32.7588713,35.0228547,478.13,-0.0625,0.04975,0.98525,-0.12,0.4,-0.04,22260.0,18270.0,-34160.0
32.7588713,35.0228547,478.14,-0.05275,0.0235,0.99375,-0.4,-0.72,-0.08,22260.0,18350.0,-34150.0
32.7588713,35.0228547,478.14,-0.04975,0.035,1.00725,0.18,-0.28,-0.04,22230.0,18420.0,-34150.0
32.7588713,35.0228547,478.14,-0.0675,0.0545,0.99375,0.24,0.98,0.04,22260.0,18390.0,-34150.0
32.7588713,35.0228547,478.14,-0.07325,0.02825,0.98625,-0.5,0.12,0.04,22280.0,18300.0,-34150.0
32.7588713,35.0228547,478.14,-0.0605,0.01475,1.00525,-0.1,-0.88,-0.04,22270.0,18230.0,-34170.0
32.7588713,35.0228547,478.14,-0.05375,0.05175,1.0075,0.56,0.2,-0.02,22250.0,18210.0,-34170.0
32.7588713,35.0228547,478.14,-0.06025,0.06075,0.98675,0.02,0.68,-0.04,22270.0,18180.0,-34170.0
32.7588713,35.0228547,478.14,-0.0585,0.0195,0.98675,-0.6,-0.38,0.02,22270.0,18150.0,-34180.0
32.7588713,35.0228547,478.14,-0.053,0.01925,1.0055,0.22,-0.46,-0.06,22310.0,18100.0,-34180.0
32.7588713,35.0228547,478.14,-0.06275,0.059,1.00075,0.58,0.68,0.0,22310.0,18170.0,-34160.0
32.7588713,35.0228547,478.14,-0.069,0.05175,0.9865,-0.18,0.38,-0.04,22310.0,18170.0,-34170.0
32.7588713,35.0228547,478.14,-0.0625,0.02,0.9985,-0.44,-0.7,0.0,22280.0,18150.0,-34180.0
32.7588713,35.0228547,478.14,-0.05825,0.03525,1.00675,0.26,0.04,-0.06,22270.0,18170.0,-34170.0
32.7588713,35.0228547,478.14,-0.064,0.05625,0.98975,0.26,0.62,0.06,22310.0,18120.0,-34180.0
32.7588713,35.0228547,478.14,-0.057,0.03425,0.98775,-0.44,-0.42,0.0,22290.0,18150.0,-34180.0
32.7588713,35.0228547,478.14,-0.04775,0.02775,1.00525,-0.08,-0.72,0.02,22280.0,18110.0,-34180.0
32.7588713,35.0228547,478.14,-0.0575,0.05425,1.0,0.36,0.62,-0.04,22250.0,18210.0,-34170.0
32.7588713,35.0228547,478.14,-0.07175,0.0435,0.984,-0.24,0.58,0.02,22250.0,18300.0,-34160.0
32.7588713,35.0228547,478.14,-0.06475,0.0145,0.997,-0.4,-0.7,-0.02,22300.0,18250.0,-34160.0
32.7588713,35.0228547,478.14,-0.05375,0.0365,1.0115,0.36,-0.4,-0.08,22340.0,18340.0,-34150.0
32.7588713,35.0228547,478.14,-0.05925,0.069,0.994,0.4,0.66,0.06,22280.0,18420.0,-34150.0
32.7588713,35.0228547,478.14,-0.0615,0.0405,0.981,-0.58,0.08,0.0,22280.0,18280.0,-34160.0
32.7588713,35.0228547,478.14,-0.054,0.0125,0.9985,-0.24,-0.76,0.0,22300.0,18240.0,-34160.0
32.7588713,35.0228547,478.14,-0.0565,0.046,1.00625,0.62,0.2,0.08,22320.0,18150.0,-34160.0
32.7588713,35.0228547,478.14,-0.0675,0.06275,0.9905,0.08,0.8,0.06,22340.0,18100.0,-34170.0
32.7588713,35.0228547,478.14,-0.06525,0.03125,0.9935,-0.58,-0.42,0.02,22330.0,18100.0,-34170.0
32.7588713,35.0228547,478.14,-0.0575,0.02575,1.0075,0.04,-0.48,0.0,22310.0,18090.0,-34180.0
32.7588713,35.0228547,478.14,-0.0615,0.0535,0.9955,0.38,0.56,0.08,22300.0,18190.0,-34170.0
32.7588713,35.0228547,478.14,-0.0625,0.04475,0.98325,-0.26,0.16,-0.02,22310.0,18170.0,-34160.0
32.7588713,35.0228547,478.14,-0.05175,0.0225,0.998,-0.28,-0.84,0.02,22280.0,18270.0,-34160.0
32.7588713,35.0228547,478.14,-0.0525,0.04375,1.006,0.34,0.08,-0.02,22270.0,18230.0,-34160.0
32.7588713,35.0228547,478.14,-0.07,0.056,0.989,0.16,0.92,0.12,22330.0,18120.0,-34170.0
32.7588713,35.0228547,478.14,-0.07125,0.0245,0.989,-0.52,-0.22,-0.02,22320.0,18110.0,-34170.0
32.7588713,35.0228547,478.14,-0.057,0.01875,1.008,0.02,-0.82,-0.08,22330.0,18060.0,-34170.0
32.7588713,35.0228547,478.14,-0.055,0.0585,1.00275,0.52,0.34,-0.02,22330.0,18100.0,-34170.0
32.7588713,35.0228547,478.14,-0.061,0.0565,0.9825,-0.16,0.46,0.02,22350.0,18080.0,-34170.0
32.7588713,35.0228547,478.14,-0.0575,0.0175,0.99075,-0.56,-0.6,0.0,22450.0,17920.0,-34180.0
32.7588713,35.0228547,478.14,-0.05375,0.029,1.00825,0.32,-0.24,0.0,22500.0,17700.0,-34190.0
32.7588713,35.0228547,478.14,-0.0655,0.062,0.9965,0.46,0.84,0.06,22550.0,17690.0,-34190.0
32.7588713,35.0228547,478.14,-0.0695,0.04325,0.987,-0.34,0.1,-0.02,22540.0,17740.0,-34180.0
32.7588713,35.0228547,478.14,-0.06,0.01775,1.00325,-0.32,-0.74,0.0,22530.0,17760.0,-34180.0
32.7588713,35.0228547,478.14,-0.0565,0.04175,1.004,0.44,0.14,-0.02,22450.0,17840.0,-34180.0
32.7588713,35.0228547,478.14,-0.06125,0.0555,0.98525,0.14,0.58,0.04,22370.0,17960.0,-34180.0
32.7588713,35.0228547,478.14,-0.05475,0.02775,0.99,-0.48,-0.54,-0.04,22320.0,18010.0,-34180.0
32.7588713,35.0228547,478.14,-0.049,0.02675,1.007,0.08,-0.5,-0.02,22310.0,18020.0,-34180.0
32.7588713,35.0228547,478.14,-0.06425,0.05525,0.99625,0.38,0.82,0.04,22290.0,18040.0,-34180.0
32.7588713,35.0228547,478.14,-0.0745,0.041,0.983,-0.24,0.4,0.04,22300.0,18000.0,-34180.0
32.7588713,35.0228547,478.14,-0.06375,0.014,1.0015,-0.34,-0.82,-0.06,22310.0,18020.0,-34180.0
32.7588713,35.0228547,478.14,-0.05275,0.03975,1.0115,0.38,-0.18,-0.04,22230.0,18100.0,-34180.0
32.7588713,35.0228547,478.14,-0.05925,0.06625,0.99,0.3,0.8,0.0,22250.0,18200.0,-34170.0
32.7588713,35.0228547,478.14,-0.05975,0.034,0.98225,-0.56,-0.18,-0.02,22250.0,18230.0,-34160.0
32.7588713,35.0228547,478.14,-0.05175,0.014,1.00375,-0.08,-0.64,0.04,22280.0,18100.0,-34170.0
32.7588713,35.0228547,478.14,-0.0575,0.051,1.00525,0.62,0.48,0.06,22330.0,18020.0,-34170.0
32.7588713,35.0228547,478.14,-0.07025,0.0615,0.98725,0.02,0.68,-0.04,22320.0,17970.0,-34180.0
32.7588713,35.0228547,478.14,-0.06625,0.02575,0.99525,-0.58,-0.6,-0.04,22270.0,18040.0,-34180.0
32.7588713,35.0228547,478.14,-0.0565,0.025,1.0095,0.06,-0.46,-0.02,22220.0,18110.0,-34180.0
32.7588713,35.0228547,478.14,-0.06175,0.05675,0.99425,0.38,0.66,0.0,22230.0,18050.0,-34180.0
32.7588713,35.0228547,478.14,-0.061,0.046,0.98175,-0.3,0.02,-0.02,22260.0,18050.0,-34180.0
32.7588713,35.0228547,478.14,-0.04975,0.02075,1.00075,-0.36,-0.78,0.02,22260.0,18070.0,-34180.0
32.7588713,35.0228547,478.14,-0.05325,0.04325,1.00675,0.32,0.22,0.04,22260.0,18190.0,-34160.0
32.7588713,35.0228547,478.14,-0.0715,0.05625,0.98675,0.12,0.9,0.08,22230.0,18270.0,-34160.0
32.7588713,35.0228547,478.14,-0.07125,0.025,0.9895,-0.48,-0.32,0.02,22240.0,18170.0,-34170.0
32.7588713,35.0228547,478.14,-0.056,0.0205,1.01125,0.06,-0.8,0.04,22270.0,18100.0,-34170.0
32.7588713,35.0228547,478.14,-0.05525,0.0595,1.003,0.54,0.5,0.02,22270.0,18060.0,-34180.0
32.7588713,35.0228547,478.14,-0.0625,0.056,0.9795,-0.16,0.48,-0.04,22290.0,18000.0,-34180.0
32.7588713,35.0228547,478.14,-0.05625,0.01575,0.992,-0.58,-0.66,-0.06,22310.0,17970.0,-34180.0
32.7588713,35.0228547,478.14,-0.0515,0.028,1.00975,0.3,-0.3,0.1,22330.0,18030.0,-34170.0
32.7588713,35.0228547,478.14,-0.0655,0.06475,0.996,0.4,0.86,0.04,22290.0,18080.0,-34170.0
32.7588713,35.0228547,478.14,-0.07025,0.046,0.9855,-0.48,0.14,-0.02,22300.0,18040.0,-34180.0
32.7588713,35.0228547,478.14,-0.06075,0.0175,1.00375,-0.38,-0.78,0.0,22280.0,18150.0,-34170.0
32.7588713,35.0228547,478.14,-0.0575,0.04125,1.00625,0.44,0.12,0.02,22290.0,18120.0,-34160.0
32.7588713,35.0228547,478.14,-0.0635,0.05825,0.985,0.16,0.58,-0.02,22330.0,18040.0,-34170.0
32.7588713,35.0228547,478.14,-0.05525,0.02975,0.98925,-0.56,-0.56,0.04,22320.0,18030.0,-34180.0
32.7588713,35.0228547,478.14,-0.04825,0.026,1.00875,0.02,-0.5,0.0,22280.0,18080.0,-34180.0
32.7588713,35.0228547,478.14,-0.06175,0.05475,0.997,0.42,0.8,0.04,22310.0,18030.0,-34170.0
32.7588713,35.0228547,478.14,-0.07275,0.043,0.98125,-0.24,0.44,-0.04,22350.0,18040.0,-34170.0
32.7588713,35.0228547,478.14,-0.0635,0.01375,1.00025,-0.4,-0.82,-0.02,22290.0,18160.0,-34170.0
32.7588713,35.0228547,478.14,-0.05375,0.03675,1.0125,0.42,-0.22,0.0,22270.0,18170.0,-34170.0
32.7588713,35.0228547,478.14,-0.0615,0.06575,0.99025,0.28,0.72,0.02,22300.0,18130.0,-34170.0
32.7588713,35.0228547,478.14,-0.06075,0.0345,0.9805,-0.62,-0.14,-0.02,22290.0,18200.0,-34160.0
32.7588713,35.0228547,478.14,-0.05125,0.012,1.00275,-0.2,-0.66,0.02,22270.0,18250.0,-34160.0
32.7588713,35.0228547,478.14,-0.0555,0.049,1.0065,0.66,0.46,0.0,22280.0,18140.0,-34170.0
32.7588713,35.0228547,478.14,-0.068,0.0605,0.986,0.0,0.74,0.04,22240.0,18130.0,-34180.0
32.7588713,35.0228547,478.14,-0.0655,0.02625,0.99175,-0.64,-0.52,-0.04,22270.0,18140.0,-34180.0
32.7588713,35.0228547,478.14,-0.05775,0.024,1.011,0.06,-0.44,0.02,22300.0,18110.0,-34180.0
32.7588713,35.0228547,478.14,-0.06325,0.056,0.9965,0.42,0.66,0.08,22280.0,18140.0,-34180.0
32.7588713,35.0228547,478.14,-0.06225,0.04575,0.98175,-0.3,0.12,0.06,22260.0,18150.0,-34180.0
32.7588713,35.0228547,478.14,-0.05,0.02075,0.999,-0.32,-0.84,0.02,22270.0,18110.0,-34180.0
32.7588713,35.0228547,478.14,-0.0505,0.042,1.007,0.38,0.16,-0.02,22300.0,18090.0,-34180.0
32.7588713,35.0228547,478.14,-0.0685,0.05625,0.98775,0.14,0.88,0.06,22340.0,18150.0,-34160.0
32.7588713,35.0228547,478.14,-0.06925,0.02575,0.98825,-0.48,-0.26,0.0,22320.0,18140.0,-34170.0
32.7588713,35.0228547,478.14,-0.0565,0.0195,1.01075,0.04,-0.74,0.0,22310.0,18080.0,-34180.0
32.7588713,35.0228547,478.14,-0.0575,0.05925,1.00375,0.62,0.44,0.04,22290.0,18110.0,-34180.0
32.7588713,35.0228547,478.14,-0.065,0.0565,0.97975,-0.22,0.56,0.04,22310.0,18100.0,-34180.0
32.7588713,35.0228547,478.14,-0.058,0.016,0.99025,-0.56,-0.66,-0.02,22330.0,18110.0,-34170.0
32.7588713,35.0228547,478.14,-0.05175,0.02775,1.0095,0.36,-0.26,-0.06,22310.0,18170.0,-34170.0
32.7588713,35.0228547,478.14,-0.06425,0.06325,0.997,0.44,0.88,0.06,22350.0,18140.0,-34170.0
32.7588713,35.0228547,478.14,-0.06875,0.04625,0.986,-0.42,0.1,0.04,22350.0,18120.0,-34170.0
32.7588713,35.0228547,478.14,-0.06,0.01825,1.0035,-0.36,-0.8,-0.04,22290.0,18150.0,-34170.0
32.7588713,35.0228547,478.14,-0.057,0.041,1.0055,0.38,0.12,0.02,22290.0,18250.0,-34160.0
32.7588713,35.0228547,478.14,-0.064,0.057,0.986,0.16,0.64,0.0,22290.0,18370.0,-34150.0
32.7588713,35.0228547,478.14,-0.05675,0.0285,0.9895,-0.44,-0.58,-0.1,22260.0,18430.0,-34140.0
32.7588713,35.0228547,478.14,-0.0485,0.027,1.0085,0.06,-0.52,-0.02,22270.0,18350.0,-34150.0
32.7588713,35.0228547,478.14,-0.06125,0.057,0.999,0.4,0.76,0.06,22290.0,18290.0,-34160.0
32.7588713,35.0228547,478.14,-0.07225,0.04425,0.98275,-0.28,0.4,0.04,22250.0,18210.0,-34180.0
32.7588713,35.0228547,478.14,-0.0635,0.01325,0.9995,-0.38,-0.8,0.02,22210.0,18260.0,-34180.0
32.7588713,35.0228547,478.14,-0.05325,0.037,1.01175,0.48,-0.22,0.02,22240.0,18170.0,-34170.0
32.7588713,35.0228547,478.14,-0.061,0.0675,0.991,0.38,0.7,0.0,22290.0,18170.0,-34170.0
32.7588713,35.0228547,478.14,-0.061,0.035,0.9815,-0.56,-0.08,0.0,22300.0,18100.0,-34170.0
32.7588713,35.0228547,478.14,-0.05175,0.0125,1.0035,-0.2,-0.76,-0.04,22290.0,18210.0,-34160.0
32.7588713,35.0228547,478.14,-0.056,0.04775,1.0055,0.62,0.4,0.02,22270.0,18200.0,-34170.0
32.7588713,35.0228547,478.14,-0.0685,0.0615,0.986,0.02,0.74,-0.02,22290.0,18130.0,-34170.0
32.7588713,35.0228547,478.14,-0.06575,0.027,0.99225,-0.66,-0.56,-0.04,22310.0,18140.0,-34170.0
32.7588713,35.0228547,478.14,-0.05775,0.02225,1.009,0.02,-0.42,0.02,22310.0,18100.0,-34180.0
32.7588713,35.0228547,478.14,-0.06375,0.055,0.99675,0.46,0.58,0.04,22310.0,18100.0,-34170.0
32.7588713,35.0228547,478.14,-0.062,0.0445,0.983,-0.26,0.08,-0.04,22310.0,18080.0,-34180.0
32.7588713,35.0228547,478.14,-0.049,0.02,1.0005,-0.32,-0.84,-0.04,22310.0,18170.0,-34160.0
32.7588713,35.0228547,478.14,-0.049,0.04125,1.008,0.36,0.12,0.06,22290.0,18270.0,-34150.0
32.7588713,35.0228547,478.14,-0.0675,0.05525,0.98625,0.08,0.92,0.0,22310.0,18250.0,-34150.0
32.7588713,35.0228547,478.14,-0.07025,0.024,0.9875,-0.54,-0.26,0.04,22310.0,18300.0,-34150.0
32.7588713,35.0228547,478.14,-0.058,0.0175,1.01225,0.04,-0.82,-0.06,22280.0,18360.0,-34150.0
32.7588713,35.0228547,478.14,-0.058,0.06025,1.00425,0.66,0.44,0.02,22270.0,18240.0,-34160.0
32.7588713,35.0228547,478.14,-0.0645,0.05725,0.9805,-0.16,0.52,0.0,22290.0,18190.0,-34160.0
32.7588713,35.0228547,478.14,-0.05725,0.016,0.9905,-0.52,-0.72,-0.06,22280.0,18170.0,-34160.0
32.7588713,35.0228547,478.14,-0.0505,0.026,1.00925,0.34,-0.36,0.0,22270.0,18140.0,-34170.0
32.7588713,35.0228547,478.14,-0.06225,0.06425,0.99625,0.46,0.9,0.0,22270.0,18090.0,-34170.0
32.7588713,35.0228547,478.14,-0.06775,0.048,0.98525,-0.36,0.1,-0.02,22240.0,18090.0,-34180.0
32.7588713,35.0228547,478.14,-0.06075,0.0185,1.00375,-0.44,-0.74,0.0,22250.0,18060.0,-34170.0
32.7588713,35.0228547,478.14,-0.05925,0.04175,1.0055,0.38,0.28,0.02,22280.0,18070.0,-34180.0
32.7588713,35.0228547,478.14,-0.066,0.05775,0.98375,0.04,0.6,0.02,22240.0,18200.0,-34170.0
32.7588713,35.0228547,478.14,-0.057,0.02975,0.98875,-0.56,-0.54,0.0,22250.0,18160.0,-34170.0
32.7588713,35.0228547,478.14,-0.0475,0.0265,1.00775,0.0,-0.58,-0.04,22300.0,18050.0,-34170.0
32.7588713,35.0228547,478.14,-0.059,0.056,0.99675,0.48,0.76,0.08,22280.0,18080.0,-34170.0
32.7588713,35.0228547,478.14,-0.072,0.04525,0.98125,-0.22,0.42,0.02,22270.0,18040.0,-34180.0
32.7588713,35.0228547,478.14,-0.06375,0.014,0.9995,-0.36,-0.82,-0.04,22270.0,18050.0,-34180.0
32.7588713,35.0228547,478.14,-0.05425,0.03675,1.0115,0.4,-0.24,-0.02,22250.0,18080.0,-34180.0
32.7588713,35.0228547,478.14,-0.06275,0.068,0.98925,0.42,0.76,0.08,22290.0,18110.0,-34160.0
32.7588713,35.0228547,478.14,-0.06225,0.0385,0.98075,-0.48,-0.1,0.0,22290.0,18110.0,-34160.0
32.7588713,35.0228547,478.14,-0.05175,0.0125,1.0045,-0.24,-0.76,-0.02,22270.0,18120.0,-34170.0
32.7588713,35.0228547,478.14,-0.055,0.047,1.00675,0.6,0.32,0.02,22290.0,18200.0,-34150.0
32.7588713,35.0228547,478.14,-0.06775,0.0635,0.98625,0.16,0.76,0.02,22330.0,18210.0,-34150.0
32.7588713,35.0228547,478.14,-0.0655,0.02925,0.9925,-0.62,-0.46,0.0,22450.0,17910.0,-34170.0
32.7588713,35.0228547,478.14,-0.057,0.02225,1.01075,0.06,-0.46,-0.02,22470.0,17790.0,-34180.0
32.7588713,35.0228547,478.14,-0.0625,0.0545,0.99725,0.46,0.7,-0.04,22520.0,17680.0,-34180.0
32.7588713,35.0228547,478.14,-0.063,0.0475,0.98175,-0.24,0.16,-0.06,22600.0,17550.0,-34190.0
32.7588713,35.0228547,478.14,-0.0495,0.02025,1.0005,-0.38,-0.88,-0.04,22580.0,17550.0,-34190.0
32.7588713,35.0228547,478.14,-0.0485,0.03875,1.009,0.26,0.04,0.06,22480.0,17700.0,-34190.0
32.7588713,35.0228547,478.14,-0.06825,0.0575,0.988,0.2,1.02,0.08,22390.0,17860.0,-34190.0
32.7588713,35.0228547,478.14,-0.07175,0.02775,0.986,-0.5,-0.14,0.02,22310.0,17990.0,-34180.0
32.7588713,35.0228547,478.14,-0.05775,0.0155,1.01075,-0.04,-0.82,0.02,22330.0,18120.0,-34160.0
32.7588713,35.0228547,478.14,-0.056,0.05625,1.00675,0.66,0.36,-0.02,22360.0,18190.0,-34150.0
32.7588713,35.0228547,478.14,-0.06325,0.06075,0.98175,-0.08,0.6,0.02,22300.0,18160.0,-34160.0
32.7588713,35.0228547,478.14,-0.0575,0.018,0.989,-0.56,-0.58,-0.06,22280.0,18090.0,-34170.0
32.7588713,35.0228547,478.14,-0.0505,0.02075,1.00975,0.22,-0.38,-0.04,22300.0,18050.0,-34170.0
32.7588713,35.0228547,478.14,-0.06275,0.06075,0.9985,0.6,0.78,0.04,22310.0,18040.0,-34180.0
32.7588713,35.0228547,478.14,-0.06975,0.05125,0.98425,-0.32,0.24,-0.1,22330.0,18080.0,-34170.0
32.7588713,35.0228547,478.14,-0.061,0.01775,1.002,-0.48,-0.76,0.0,22320.0,18080.0,-34170.0
32.7588713,35.0228547,478.14,-0.05725,0.0355,1.00775,0.42,0.04,-0.02,22280.0,18070.0,-34170.0
32.7588713,35.0228547,478.14,-0.065,0.057,0.98625,0.28,0.68,0.02,22300.0,18050.0,-34180.0
32.7588713,35.0228547,478.14,-0.05825,0.03225,0.9865,-0.46,-0.44,-0.04,22310.0,18180.0,-34160.0
32.7588713,35.0228547,478.14,-0.048,0.02325,1.0075,-0.1,-0.64,-0.02,22260.0,18300.0,-34160.0
32.7588713,35.0228547,478.14,-0.0585,0.054,0.9995,0.42,0.62,0.02,22250.0,18230.0,-34170.0
32.7588713,35.0228547,478.14,-0.07275,0.048,0.9805,-0.22,0.62,0.04,22270.0,18140.0,-34170.0
32.7588713,35.0228547,478.14,-0.065,0.0145,0.99725,-0.4,-0.78,-0.08,22290.0,18120.0,-34180.0
32.7588713,35.0228547,478.14,-0.05375,0.03225,1.014,0.34,-0.46,0.04,22280.0,18110.0,-34180.0
32.7588713,35.0228547,478.14,-0.061,0.06825,0.99325,0.44,0.8,0.02,22300.0,18080.0,-34180.0
32.7588713,35.0228547,478.14,-0.0625,0.04375,0.979,-0.46,-0.04,0.1,22290.0,18090.0,-34180.0
32.7588713,35.0228547,478.14,-0.05275,0.0135,1.0015,-0.32,-0.8,-0.02,22270.0,18100.0,-34180.0
32.7588713,35.0228547,478.14,-0.05375,0.04325,1.009,0.56,0.3,-0.04,22280.0,18070.0,-34180.0
32.7588713,35.0228547,478.14,-0.068,0.0635,0.98875,0.12,0.78,0.08,22280.0,18170.0,-34170.0
32.7588713,35.0228547,478.14,-0.0655,0.03275,0.9905,-0.52,-0.36,-0.06,22220.0,18230.0,-34170.0
32.7588713,35.0228547,478.14,-0.0565,0.02275,1.00975,-0.02,-0.6,-0.02,22230.0,18190.0,-34180.0
32.7588713,35.0228547,478.14,-0.06125,0.05375,0.99925,0.4,0.64,-0.08,22290.0,18130.0,-34180.0
32.7588713,35.0228547,478.14,-0.063,0.04925,0.98075,-0.26,0.26,0.04,22290.0,18140.0,-34180.0
32.7588713,35.0228547,478.14,-0.0515,0.02175,0.9955,-0.44,-0.9,-0.02,22280.0,18200.0,-34170.0
32.7588713,35.0228547,478.14,-0.0495,0.03825,1.0095,0.3,0.02,0.04,22260.0,18230.0,-34170.0
32.7588713,35.0228547,478.14,-0.06825,0.058,0.99025,0.26,1.0,-0.02,22250.0,18220.0,-34170.0
32.7588713,35.0228547,478.14,-0.072,0.029,0.98475,-0.48,-0.16,0.02,22310.0,18150.0,-34170.0
32.7588713,35.0228547,478.14,-0.0575,0.016,1.0075,-0.08,-0.86,-0.04,22320.0,18160.0,-34170.0
32.7588713,35.0228548,478.14,-0.054,0.0545,1.00725,0.6,0.3,0.0,22290.0,18300.0,-34160.0
32.7588713,35.0228548,478.14,-0.062,0.06,0.9825,-0.06,0.58,0.0,22270.0,18320.0,-34160.0
32.7588713,35.0228548,478.14,-0.05825,0.01975,0.98625,-0.64,-0.6,-0.08,22300.0,18180.0,-34170.0
32.7588713,35.0228548,478.14,-0.0525,0.02225,1.00875,0.12,-0.42,-0.02,22300.0,18150.0,-34170.0
32.7588713,35.0228548,478.14,-0.065,0.0595,1.00025,0.54,0.8,0.12,22360.0,18070.0,-34170.0
32.7588713,35.0228548,478.14,-0.07,0.04925,0.9845,-0.28,0.26,0.0,22350.0,18100.0,-34170.0
32.7588713,35.0228548,478.14,-0.06075,0.0195,0.9995,-0.36,-0.8,-0.04,22290.0,18110.0,-34180.0
32.7588713,35.0228548,478.14,-0.05625,0.038,1.008,0.36,0.12,0.04,22280.0,18110.0,-34180.0
32.7588713,35.0228548,478.14,-0.0635,0.05475,0.98875,0.16,0.72,-0.02,22330.0,18030.0,-34180.0
32.7588713,35.0228548,478.14,-0.05675,0.03025,0.9865,-0.48,-0.44,-0.04,22350.0,18060.0,-34170.0
32.7588713,35.0228548,478.14,-0.04725,0.027,1.0065,0.0,-0.64,0.06,22300.0,18150.0,-34170.0
32.7588713,35.0228548,478.14,-0.0585,0.05525,1.00075,0.4,0.78,0.04,22280.0,18130.0,-34170.0
32.7588713,35.0228548,478.14,-0.07225,0.0435,0.9825,-0.22,0.58,0.02,22260.0,18100.0,-34180.0
32.7588713,35.0228548,478.14,-0.06525,0.01275,0.99625,-0.38,-0.76,0.0,22260.0,18090.0,-34180.0
32.7588713,35.0228548,478.14,-0.055,0.03675,1.01275,0.44,-0.28,0.02,22290.0,18070.0,-34180.0
32.7588713,35.0228548,478.14,-0.06075,0.067,0.9965,0.32,0.72,0.08,22280.0,18060.0,-34180.0
32.7588713,35.0228548,478.14,-0.05975,0.037,0.98075,-0.52,-0.06,0.0,22270.0,18160.0,-34170.0
32.7588713,35.0228548,478.14,-0.051,0.01425,0.99925,-0.22,-0.8,0.0,22280.0,18200.0,-34160.0
32.7588713,35.0228548,478.14,-0.05525,0.047,1.00675,0.64,0.38,-0.04,22280.0,18180.0,-34160.0
32.7588713,35.0228548,478.14,-0.06725,0.0585,0.9895,0.02,0.74,-0.04,22260.0,18160.0,-34170.0
32.7588713,35.0228548,478.14,-0.06575,0.0275,0.99275,-0.54,-0.48,-0.02,22260.0,18240.0,-34160.0
32.7588713,35.0228548,478.15,-0.06,0.02875,1.00925,0.18,-0.4,0.02,22240.0,18320.0,-34150.0
32.7588713,35.0228548,478.15,-0.065,0.055,0.99775,0.46,0.66,0.04,22220.0,18380.0,-34140.0
32.7588713,35.0228548,478.15,-0.0615,0.0405,0.9825,-0.34,0.02,-0.02,22230.0,18420.0,-34140.0
32.7588713,35.0228548,478.15,-0.04825,0.0225,0.99775,-0.28,-0.92,-0.06,22240.0,18400.0,-34140.0
32.7588713,35.0228548,478.15,-0.04925,0.04675,1.00625,0.42,0.24,0.0,22200.0,18300.0,-34160.0
32.7588713,35.0228548,478.15,-0.06775,0.05325,0.99,0.06,0.96,0.04,22160.0,18250.0,-34170.0
32.7588713,35.0228548,478.15,-0.07,0.0205,0.989,-0.52,-0.3,0.06,22180.0,18140.0,-34170.0
32.7588713,35.0228548,478.15,-0.05925,0.02525,1.00825,0.2,-0.74,-0.04,22190.0,18100.0,-34180.0
32.7588713,35.0228548,478.15,-0.0595,0.0635,1.00275,0.54,0.5,0.08,22190.0,18080.0,-34180.0
32.7588713,35.0228548,478.15,-0.062,0.04975,0.98125,-0.3,0.3,0.02,22210.0,18130.0,-34170.0
32.7588713,35.0228548,478.15,-0.055,0.0155,0.9915,-0.5,-0.7,-0.08,22240.0,18110.0,-34170.0
32.7588713,35.0228548,478.15,-0.0525,0.03625,1.00725,0.46,-0.04,-0.02,22220.0,18070.0,-34170.0
32.7588713,35.0228548,478.15,-0.0645,0.0625,0.99675,0.24,0.84,0.08,22210.0,18060.0,-34180.0
32.7588713,35.0228548,478.15,-0.067,0.03725,0.98975,-0.48,-0.16,0.08,22210.0,18030.0,-34180.0
32.7588713,35.0228548,478.15,-0.06,0.0225,1.003,-0.12,-0.7,0.02,22230.0,17990.0,-34180.0
32.7588713,35.0228548,478.15,-0.06175,0.04875,1.002,0.38,0.44,-0.02,22250.0,17940.0,-34180.0
32.7588713,35.0228548,478.15,-0.06375,0.04825,0.98575,-0.12,0.38,0.02,22260.0,18030.0,-34170.0
32.7588713,35.0228548,478.15,-0.05275,0.0235,0.99375,-0.38,-0.76,-0.02,22200.0,18180.0,-34160.0
32.7588713,35.0228548,478.15,-0.04825,0.03725,1.00725,0.26,-0.24,-0.02,22210.0,18230.0,-34160.0
32.7588713,35.0228548,478.15,-0.0645,0.05675,0.99375,0.24,0.92,0.0,22260.0,18260.0,-34140.0
32.7588713,35.0228548,478.15,-0.071,0.02825,0.9855,-0.5,0.06,-0.04,22270.0,18230.0,-34140.0
32.7588713,35.0228548,478.15,-0.06125,0.016,1.00325,-0.06,-0.84,0.0,22300.0,18120.0,-34150.0
32.7588713,35.0228548,478.15,-0.05625,0.0535,1.00625,0.54,0.24,0.0,22290.0,18090.0,-34160.0
32.7588713,35.0228548,478.15,-0.0615,0.06025,0.9875,0.04,0.58,0.04,22280.0,18050.0,-34170.0
32.7588713,35.0228548,478.15,-0.05775,0.02025,0.988,-0.66,-0.46,-0.02,22280.0,18120.0,-34170.0
32.7588713,35.0228548,478.15,-0.0515,0.02275,1.00375,0.18,-0.4,-0.02,22290.0,18080.0,-34170.0
32.7588713,35.0228548,478.15,-0.062,0.06025,0.998,0.62,0.64,0.06,22270.0,18100.0,-34180.0
32.7588713,35.0228548,478.15,-0.06825,0.0485,0.9865,-0.36,0.22,-0.04,22280.0,18100.0,-34180.0
