Lat_GNSS,Long_GNSS,Height_GNSS,Acc_X,Acc_Y,Acc_Z,Gyro_X,Gyro_Y,Gyro_Z,Magn_X,Magn_Y,Magn_Z
32.7588653,35.0228561,478.05,-0.07725,0.0595,0.97875,-0.06,0.3,0.1,22950.0,18490.0,-33880.0
32.7588653,35.0228561,478.05,-0.073,0.03075,0.996,-0.32,-0.32,-0.04,22970.0,18420.0,-33890.0
32.7588653,35.0228561,478.05,-0.06825,0.0295,1.01275,-0.02,-0.38,0.06,22950.0,18460.0,-33890.0
32.7588653,35.0228561,478.05,-0.07375,0.06175,0.9935,0.24,0.28,0.04,22970.0,18550.0,-33880.0
32.7588653,35.0228561,478.04,-0.06775,0.0585,0.97975,-0.2,-0.06,0.02,22980.0,18620.0,-33870.0
32.7588653,35.0228561,478.04,-0.057,0.027,1.002,-0.48,-0.6,0.0,22910.0,18570.0,-33880.0
32.7588653,35.0228561,478.04,-0.06,0.034,1.0045,0.1,0.0,0.02,22910.0,18570.0,-33880.0
32.7588653,35.0228561,478.04,-0.07375,0.058,0.9835,0.14,0.46,0.04,22920.0,18530.0,-33890.0
32.7588653,35.0228561,478.04,-0.072,0.04675,0.992,-0.24,-0.16,-0.02,22930.0,18490.0,-33890.0
32.7588653,35.0228561,478.04,-0.06775,0.0315,1.01325,-0.28,-0.38,0.04,22970.0,18460.0,-33890.0
32.7588653,35.0228561,478.04,-0.0735,0.0485,0.9985,0.1,0.2,0.04,23010.0,18530.0,-33880.0
32.7588653,35.0228561,478.04,-0.0725,0.052,0.979,-0.08,0.02,0.0,22980.0,18530.0,-33880.0
32.7588653,35.0228561,478.04,-0.0585,0.02975,0.99625,-0.22,-0.64,0.02,22900.0,18530.0,-33890.0
32.7588653,35.0228561,478.04,-0.057,0.038,1.00725,0.12,-0.28,0.06,22920.0,18580.0,-33890.0
32.7588653,35.0228561,478.04,-0.07175,0.06075,0.986,0.18,0.5,-0.02,22920.0,18600.0,-33890.0
32.7588653,35.0228561,478.04,-0.0745,0.042,0.98475,-0.24,-0.08,0.02,22950.0,18560.0,-33890.0
32.7588653,35.0228561,478.04,-0.06725,0.02125,1.01075,-0.14,-0.58,0.0,22960.0,18510.0,-33890.0
32.7588653,35.0228561,478.04,-0.06925,0.047,1.0045,0.26,-0.08,0.02,22950.0,18580.0,-33890.0
32.7588653,35.0228561,478.04,-0.07225,0.06725,0.98025,0.08,0.26,0.02,22900.0,18540.0,-33900.0
32.7588653,35.0228561,478.04,-0.0625,0.041,0.993,-0.3,-0.42,-0.02,22970.0,18510.0,-33890.0
32.7588653,35.0228561,478.04,-0.059,0.0275,1.0085,-0.12,-0.38,0.06,23010.0,18490.0,-33880.0
32.7588653,35.0228561,478.04,-0.0715,0.05275,0.9925,0.14,0.32,0.08,22950.0,18590.0,-33880.0
32.7588653,35.0228561,478.04,-0.0745,0.059,0.98425,0.02,-0.04,0.0,22940.0,18550.0,-33890.0
32.7588653,35.0228561,478.04,-0.0675,0.038,1.00525,-0.14,-0.44,-0.06,23000.0,18590.0,-33880.0
32.7588653,35.0228561,478.05,-0.06975,0.04225,1.00625,0.06,-0.12,0.02,23010.0,18690.0,-33860.0
32.7588653,35.0228561,478.05,-0.0755,0.05775,0.982,0.08,0.24,0.04,22970.0,18650.0,-33870.0
32.7588653,35.0228561,478.05,-0.065,0.0425,0.9875,-0.18,-0.42,0.04,22940.0,18580.0,-33880.0
32.7588653,35.0228561,478.05,-0.0555,0.03275,1.008,-0.1,-0.46,0.02,22910.0,18610.0,-33890.0
32.7588653,35.0228561,478.05,-0.06525,0.0545,0.99575,0.16,0.22,0.04,22930.0,18570.0,-33890.0
32.7588653,35.0228561,478.05,-0.07525,0.05775,0.9795,-0.08,0.32,0.02,22950.0,18540.0,-33890.0
32.7588653,35.0228561,478.05,-0.06975,0.029,0.9995,-0.24,-0.26,-0.02,22910.0,18590.0,-33890.0
32.7588653,35.0228561,478.05,-0.06675,0.0305,1.011,0.04,-0.28,0.04,22940.0,18590.0,-33880.0
32.7588653,35.0228561,478.05,-0.07275,0.06425,0.99225,0.26,0.26,-0.02,22960.0,18560.0,-33890.0
32.7588653,35.0228561,478.05,-0.0665,0.0595,0.9835,-0.06,0.02,-0.04,22970.0,18570.0,-33880.0
32.7588653,35.0228561,478.05,-0.05675,0.02825,1.0035,-0.4,-0.36,-0.08,22980.0,18620.0,-33870.0
32.7588653,35.0228561,478.05,-0.0615,0.03725,1.00125,0.06,0.06,0.04,22960.0,18660.0,-33870.0
32.7588653,35.0228561,478.05,-0.07375,0.06125,0.98475,0.22,0.54,-0.02,22910.0,18630.0,-33880.0
32.7588653,35.0228561,478.05,-0.071,0.04825,0.99775,-0.14,-0.1,-0.04,22850.0,18630.0,-33890.0
32.7588653,35.0228561,478.05,-0.0675,0.03425,1.01475,-0.28,-0.26,0.0,22890.0,18640.0,-33890.0
32.7588653,35.0228561,478.05,-0.07275,0.0505,0.99425,0.04,0.22,0.06,22920.0,18680.0,-33880.0
32.7588653,35.0228561,478.05,-0.071,0.05225,0.9815,-0.1,-0.02,-0.02,22960.0,18610.0,-33870.0
32.7588653,35.0228561,478.05,-0.05825,0.03075,1.0035,-0.28,-0.4,0.06,22960.0,18550.0,-33880.0
32.7588653,35.0228561,478.05,-0.057,0.03775,1.0065,0.06,-0.18,-0.02,22950.0,18610.0,-33880.0
32.7588653,35.0228561,478.05,-0.07175,0.06075,0.983,0.08,0.28,0.04,22890.0,18700.0,-33880.0
32.7588653,35.022856,478.05,-0.07375,0.04475,0.98775,-0.28,-0.08,0.0,22910.0,18820.0,-33860.0
32.7588653,35.022856,478.05,-0.06875,0.022,1.00925,-0.32,-0.52,0.02,22940.0,18840.0,-33850.0
32.7588653,35.022856,478.05,-0.0725,0.04475,1.0,0.06,-0.18,0.08,22920.0,18810.0,-33860.0
32.7588653,35.022856,478.05,-0.07475,0.068,0.981,0.12,0.04,0.04,22910.0,18710.0,-33860.0
32.7588653,35.022856,478.05,-0.06325,0.045,0.99175,-0.36,-0.4,0.0,22930.0,18620.0,-33870.0
32.7588653,35.022856,478.05,-0.0575,0.028,1.00475,-0.44,-0.48,0.02,22870.0,18620.0,-33880.0
32.7588653,35.022856,478.05,-0.06725,0.0495,0.989,-0.04,-0.04,0.0,22880.0,18600.0,-33880.0
32.7588653,35.022856,478.05,-0.07075,0.0585,0.9825,-0.06,0.12,-0.04,22930.0,18520.0,-33880.0
32.7588653,35.022856,478.05,-0.0685,0.03625,1.00275,-0.34,-0.14,0.06,22940.0,18580.0,-33880.0
32.7588653,35.022856,478.05,-0.072,0.03625,1.0055,-0.2,-0.12,0.08,22950.0,18580.0,-33870.0
32.7588653,35.022856,478.05,-0.078,0.0555,0.986,0.08,0.18,0.02,22930.0,18630.0,-33870.0
32.7588653,35.022856,478.05,-0.06625,0.0445,0.98625,-0.14,-0.22,0.02,22870.0,18600.0,-33880.0
32.7588653,35.022856,478.05,-0.05575,0.028,1.00475,-0.28,-0.44,0.06,22930.0,18570.0,-33870.0
32.7588653,35.022856,478.05,-0.06125,0.048,0.99825,0.2,0.08,-0.02,22940.0,18510.0,-33870.0
32.7588653,35.022856,478.05,-0.07125,0.05825,0.98475,0.02,0.32,0.04,22900.0,18560.0,-33880.0
32.7588653,35.022856,478.05,-0.06875,0.03075,0.99975,-0.42,-0.26,0.04,22880.0,18500.0,-33890.0
32.7588653,35.022856,478.05,-0.0655,0.0265,1.01275,-0.1,-0.4,0.08,22900.0,18500.0,-33880.0
32.7588653,35.022856,478.05,-0.072,0.0595,0.99525,0.24,0.14,0.12,22910.0,18520.0,-33880.0
32.7588653,35.022856,478.05,-0.0675,0.06025,0.98475,-0.02,0.14,0.04,22940.0,18530.0,-33870.0
32.7588653,35.022856,478.05,-0.058,0.029,1.0025,-0.36,-0.44,0.06,22970.0,18550.0,-33860.0
32.7588653,35.022856,478.05,-0.059,0.033,1.00525,-0.14,-0.2,0.06,22980.0,18640.0,-33850.0
32.7588653,35.022856,478.05,-0.07,0.05875,0.9885,0.14,0.3,0.08,22940.0,18630.0,-33860.0
32.7588653,35.022856,478.05,-0.06825,0.04825,0.9945,-0.24,0.1,0.06,22930.0,18540.0,-33870.0
32.7588653,35.022856,478.05,-0.06575,0.03,1.0115,-0.24,-0.08,0.0,22930.0,18510.0,-33870.0
32.7588653,35.022856,478.05,-0.07025,0.046,0.99925,0.22,0.3,0.0,22940.0,18480.0,-33880.0
32.7588653,35.022856,478.05,-0.071,0.05625,0.98175,0.22,0.36,-0.04,22950.0,18480.0,-33880.0
32.7588653,35.022856,478.05,-0.06175,0.037,0.99575,-0.1,-0.3,-0.04,22950.0,18470.0,-33880.0
32.7588653,35.022856,478.05,-0.06025,0.03775,1.007,-0.26,-0.64,0.08,22940.0,18470.0,-33880.0
32.7588653,35.022856,478.05,-0.072,0.0585,0.993,0.06,0.08,-0.04,22950.0,18470.0,-33880.0
32.7588653,35.022856,478.05,-0.07275,0.04875,0.9815,-0.2,0.22,0.02,22970.0,18480.0,-33870.0
32.7588653,35.022856,478.05,-0.06975,0.023,1.0015,-0.36,-0.3,0.0,22960.0,18550.0,-33870.0
32.7588653,35.022856,478.05,-0.069,0.0415,1.007,0.3,-0.22,0.0,22990.0,18510.0,-33870.0
32.7588653,35.022856,478.05,-0.07025,0.06875,0.98075,0.16,0.22,0.02,23020.0,18470.0,-33860.0
32.7588653,35.022856,478.05,-0.06325,0.0475,0.98525,-0.54,-0.28,0.06,22970.0,18490.0,-33880.0
32.7588653,35.022856,478.05,-0.0625,0.02825,1.01475,-0.6,-0.98,0.22,22980.0,18530.0,-33870.0
32.7588653,35.022856,478.05,-0.07075,0.0455,1.01275,-0.64,-1.18,0.24,22990.0,18550.0,-33870.0
32.7588653,35.022856,478.05,-0.069,0.05875,0.9725,-0.04,-0.54,0.18,22970.0,18570.0,-33870.0
32.7588653,35.022856,478.05,-0.06475,0.04025,0.96725,-0.12,0.02,0.0,22970.0,18520.0,-33870.0
32.7588653,35.022856,478.05,-0.07125,0.03625,1.006,-0.18,0.22,0.06,22970.0,18500.0,-33870.0
32.7588654,35.0228559,478.06,-0.0765,0.05475,1.01275,0.14,0.14,0.08,22990.0,18550.0,-33870.0
32.7588654,35.0228559,478.06,-0.06575,0.052,0.99225,-0.16,-0.5,0.12,23020.0,18660.0,-33850.0
32.7588654,35.0228559,478.06,-0.054,0.035,0.99625,-0.62,-0.94,0.02,23010.0,18660.0,-33850.0
32.7588654,35.0228559,478.06,-0.056,0.04725,0.999,0.0,-0.32,0.1,22970.0,18620.0,-33860.0
32.7588654,35.0228559,478.06,-0.06775,0.0585,0.98325,0.02,0.52,0.08,22980.0,18610.0,-33860.0
32.7588654,35.0228559,478.06,-0.07075,0.03,0.99075,-0.58,0.04,0.06,22980.0,18550.0,-33870.0
32.7588654,35.0228559,478.06,-0.0685,0.01775,1.01,-0.16,-0.7,0.1,23000.0,18580.0,-33860.0
32.7588654,35.0228559,478.06,-0.06975,0.05075,1.0005,0.34,-0.24,0.12,22990.0,18550.0,-33870.0
32.7588654,35.0228559,478.06,-0.06675,0.05925,0.9805,-0.2,0.02,0.08,23000.0,18540.0,-33870.0
32.7588654,35.0228559,478.06,-0.05775,0.031,0.99275,-0.52,-0.78,0.12,22980.0,18520.0,-33870.0
32.7588654,35.0228559,478.06,-0.055,0.03075,1.01,-0.2,-0.76,0.18,23050.0,18430.0,-33870.0
32.7588654,35.0228559,478.06,-0.0635,0.05825,0.994,0.18,0.18,0.08,23210.0,18320.0,-33860.0
32.7588654,35.0228559,478.06,-0.06775,0.05325,0.98125,-0.06,0.36,0.06,23220.0,18160.0,-33870.0
32.7588654,35.0228559,478.06,-0.07,0.03325,1.007,-0.28,-0.06,0.04,23160.0,18110.0,-33890.0
32.7588654,35.0228559,478.06,-0.0745,0.04425,1.0145,-0.06,-0.04,0.06,23170.0,18130.0,-33900.0
32.7588654,35.0228559,478.06,-0.0745,0.05375,0.98675,-0.02,-0.04,0.08,23180.0,18020.0,-33900.0
32.7588654,35.0228559,478.06,-0.06225,0.0345,0.9835,-0.44,-0.62,0.08,23200.0,18040.0,-33890.0
32.7588654,35.0228559,478.06,-0.05675,0.0335,1.00375,-0.28,-0.82,0.06,23160.0,18220.0,-33880.0
32.7588654,35.0228559,478.06,-0.0675,0.0565,1.002,-0.02,-0.14,0.14,23090.0,18370.0,-33870.0
32.7588654,35.0228559,478.06,-0.07225,0.04975,0.98525,-0.44,-0.1,0.1,23000.0,18480.0,-33880.0
32.7588654,35.0228559,478.06,-0.06675,0.02725,0.99725,-0.32,-0.56,0.12,22990.0,18550.0,-33870.0
32.7588653,35.0228559,478.06,-0.06625,0.042,1.012,0.08,-0.32,0.08,23050.0,18660.0,-33850.0
32.7588653,35.0228559,478.06,-0.07075,0.06425,0.99175,0.1,0.2,0.08,23030.0,18660.0,-33850.0
32.7588653,35.0228559,478.06,-0.064,0.04525,0.9795,-0.32,-0.36,0.08,23020.0,18630.0,-33860.0
32.7588653,35.0228559,478.06,-0.061,0.0215,1.002,-0.46,-0.96,0.06,23050.0,18580.0,-33860.0
32.7588653,35.0228559,478.06,-0.06725,0.0415,1.00275,-0.02,-0.62,0.18,23060.0,18550.0,-33860.0
32.7588653,35.0228559,478.06,-0.0695,0.05775,0.9825,0.04,-0.28,0.12,23070.0,18490.0,-33860.0
32.7588653,35.0228559,478.06,-0.0655,0.0415,0.98675,-0.48,-0.56,0.04,23030.0,18490.0,-33870.0
32.7588653,35.0228559,478.06,-0.06325,0.03725,1.004,-0.24,-0.54,0.12,23020.0,18550.0,-33860.0
32.7588653,35.0228559,478.06,-0.0685,0.06,1.0,0.2,-0.02,0.1,23030.0,18560.0,-33860.0
32.7588653,35.0228559,478.06,-0.06375,0.05625,0.9935,-0.22,-0.1,0.04,23050.0,18580.0,-33860.0
32.7588653,35.0228559,478.06,-0.055,0.0355,1.00875,-0.5,-0.62,0.0,23040.0,18640.0,-33850.0
32.7588653,35.0228559,478.06,-0.06,0.04875,1.007,-0.1,-0.32,0.06,22990.0,18730.0,-33860.0
32.7588653,35.0228559,478.06,-0.069,0.05625,0.98275,-0.2,0.08,0.08,22970.0,18650.0,-33860.0
32.7588653,35.0228559,478.06,-0.069,0.02725,0.98575,-0.64,-0.38,0.04,23040.0,18590.0,-33860.0
32.7588653,35.0228559,478.06,-0.065,0.01825,1.0105,-0.32,-0.72,0.1,23010.0,18590.0,-33860.0
32.7588653,35.0228559,478.06,-0.0675,0.049,1.0005,0.36,0.1,0.06,23000.0,18610.0,-33860.0
32.7588653,35.0228559,478.06,-0.06275,0.05675,0.97275,0.1,0.7,-0.02,23010.0,18600.0,-33860.0
32.7588653,35.0228559,478.06,-0.05575,0.03325,0.99725,-0.22,0.1,0.02,23030.0,18640.0,-33850.0
32.7588653,35.0228559,478.06,-0.0585,0.03775,1.02225,0.08,-0.02,0.02,23050.0,18580.0,-33850.0
32.7588653,35.0228559,478.06,-0.0675,0.06075,0.9955,0.16,0.46,0.06,23070.0,18580.0,-33850.0
32.7588653,35.0228559,478.04,-0.06575,0.05325,0.985,-0.3,0.12,0.04,23070.0,18690.0,-33840.0
32.7588653,35.0228559,478.04,-0.06625,0.037,1.01325,-0.28,-0.02,0.06,23070.0,18650.0,-33840.0
32.7588653,35.0228559,478.04,-0.07475,0.04725,1.00925,-0.08,0.38,0.0,23050.0,18600.0,-33850.0
32.7588653,35.0228559,478.04,-0.07525,0.04925,0.98275,-0.3,0.04,0.04,23000.0,18580.0,-33860.0
32.7588653,35.0228559,478.04,-0.05875,0.03225,0.9955,-0.52,-0.82,0.02,23060.0,18530.0,-33860.0
32.7588653,35.0228559,478.04,-0.0535,0.039,1.00625,-0.16,-0.32,0.04,23040.0,18490.0,-33860.0
32.7588653,35.0228559,478.04,-0.06875,0.0565,0.98325,-0.1,0.64,0.06,22990.0,18540.0,-33870.0
32.7588653,35.0228559,478.04,-0.07175,0.0415,0.9825,-0.32,0.26,-0.06,23030.0,18530.0,-33860.0
32.7588653,35.0228559,478.04,-0.069,0.0265,1.01775,-0.46,-0.6,0.1,23080.0,18460.0,-33860.0
32.7588653,35.0228559,478.04,-0.073,0.04575,1.016,-0.28,-0.58,0.1,23090.0,18510.0,-33860.0
32.7588653,35.0228559,478.04,-0.07325,0.06675,0.9835,-0.26,-0.68,0.18,23060.0,18530.0,-33860.0
32.7588653,35.0228559,478.04,-0.05975,0.046,0.98525,-0.8,-1.16,0.16,23050.0,18530.0,-33850.0
32.7588653,35.0228559,478.04,-0.05425,0.026,1.00425,-0.76,-0.96,0.14,23030.0,18520.0,-33860.0
32.7588653,35.0228559,478.04,-0.0645,0.0435,0.9945,-0.12,-0.16,0.16,23060.0,18520.0,-33850.0
32.7588653,35.0228559,478.04,-0.0665,0.05225,0.97975,-0.24,-0.1,0.12,23050.0,18490.0,-33860.0
32.7588653,35.0228559,478.04,-0.0665,0.042,1.002,-0.76,-0.66,0.22,23060.0,18580.0,-33850.0
32.7588653,35.0228559,478.04,-0.07425,0.05225,1.01575,-0.9,-1.16,0.54,23020.0,18600.0,-33850.0
32.7588653,35.0228559,478.04,-0.07825,0.0625,1.0095,-1.6,-2.32,0.86,23020.0,18570.0,-33850.0
32.7588653,35.0228559,478.04,-0.05625,0.04325,0.9975,-1.34,-2.98,1.2,23020.0,18530.0,-33860.0
32.7588653,35.0228559,478.04,-0.0375,0.0335,0.99275,-0.54,-1.74,1.18,23010.0,18580.0,-33850.0
32.7588653,35.0228559,478.05,-0.0575,0.05675,0.9785,-0.36,-0.46,1.42,23050.0,18730.0,-33830.0
32.7588653,35.0228559,478.05,-0.068,0.0645,0.997,-0.56,-1.12,1.72,23050.0,18820.0,-33820.0
32.7588653,35.0228559,478.05,-0.06425,0.03925,1.0245,-1.16,-2.38,2.4,23050.0,18860.0,-33810.0
32.7588653,35.0228559,478.05,-0.0535,0.043,1.03325,-0.98,-3.24,3.56,23100.0,18880.0,-33810.0
32.7588653,35.0228559,478.05,-0.05675,0.05825,1.00925,-0.18,-2.8,4.54,23130.0,18860.0,-33800.0
32.7588653,35.0228559,478.05,-0.045,0.06075,0.981,-0.26,-2.3,5.46,23130.0,18870.0,-33800.0
32.7588653,35.0228559,478.05,-0.0435,0.0255,0.985,-1.2,-2.56,5.48,23170.0,18830.0,-33800.0
32.7588653,35.0228559,478.05,-0.0595,0.01275,0.98275,-1.42,-1.7,4.56,23260.0,18780.0,-33790.0
32.7588653,35.0228559,478.05,-0.07125,0.0275,0.9815,-0.1,-0.66,3.3,23300.0,18760.0,-33790.0
32.7588653,35.0228559,478.05,-0.0635,0.026,0.97775,0.76,0.32,1.78,23340.0,18670.0,-33800.0
32.7588653,35.0228559,478.05,-0.065,0.03225,0.97275,0.04,0.52,0.6,23400.0,18650.0,-33790.0
32.7588653,35.0228559,478.05,-0.0705,0.0445,0.98675,-0.46,0.26,0.3,23390.0,18580.0,-33800.0
32.7588653,35.0228559,478.05,-0.06275,0.041,1.00875,-0.22,-0.22,0.16,23420.0,18570.0,-33800.0
32.7588653,35.0228559,478.05,-0.05125,0.03125,1.014,-0.26,-0.56,0.22,23380.0,18560.0,-33810.0
32.7588653,35.0228559,478.05,-0.05575,0.04275,1.01475,-0.62,-0.98,0.76,23360.0,18580.0,-33810.0
32.7588653,35.0228559,478.05,-0.05675,0.054,1.0105,-0.02,-0.58,1.24,23370.0,18550.0,-33810.0
32.7588653,35.0228559,478.05,-0.055,0.036,0.988,0.04,0.22,1.3,23420.0,18590.0,-33800.0
32.7588653,35.0228559,478.05,-0.05925,0.0205,0.996,-0.44,0.24,1.5,23440.0,18630.0,-33800.0
32.7588653,35.0228559,478.05,-0.07125,0.037,0.996,-0.1,0.52,0.94,23390.0,18640.0,-33800.0
32.7588653,35.0228559,478.05,-0.0675,0.05475,0.98775,0.66,0.56,0.68,23440.0,18620.0,-33800.0
32.7588653,35.0228559,478.05,-0.05275,0.03625,0.98525,-0.12,0.22,0.4,23490.0,18680.0,-33780.0
32.7588653,35.0228559,478.05,-0.059,0.0265,0.9985,-0.94,-0.2,0.3,23490.0,18650.0,-33790.0
32.7588653,35.0228559,478.05,-0.0655,0.0385,0.99825,-0.34,-0.52,0.24,23530.0,18560.0,-33800.0
32.7588653,35.0228559,478.05,-0.057,0.043,0.987,0.3,-0.16,0.2,23530.0,18550.0,-33790.0
32.7588653,35.0228559,478.05,-0.0585,0.03375,0.99075,-0.3,0.18,0.18,23460.0,18560.0,-33810.0
32.7588653,35.0228559,478.05,-0.06775,0.0365,0.9985,-0.5,0.08,0.2,23530.0,18500.0,-33800.0
32.7588653,35.0228559,478.05,-0.06675,0.04325,0.99425,0.08,-0.16,0.22,23580.0,18460.0,-33800.0
32.7588653,35.0228559,478.05,-0.0505,0.03225,0.9925,-0.04,-0.58,0.14,23530.0,18570.0,-33800.0
32.7588653,35.0228559,478.05,-0.04475,0.0335,0.99775,-0.54,-0.62,0.18,23510.0,18560.0,-33800.0
32.7588653,35.0228559,478.05,-0.05275,0.04875,0.9925,-0.12,-0.06,0.14,23580.0,18560.0,-33790.0
32.7588653,35.0228559,478.05,-0.056,0.04675,0.9875,-0.02,0.28,0.14,23600.0,18600.0,-33780.0
32.7588653,35.0228559,478.05,-0.06025,0.03375,1.00425,-0.64,0.02,0.18,23580.0,18560.0,-33790.0
32.7588653,35.0228559,478.05,-0.06475,0.04625,1.02075,-0.36,-0.12,0.18,23590.0,18500.0,-33790.0
32.7588653,35.0228559,478.05,-0.0635,0.07025,1.015,0.0,0.04,0.08,23540.0,18520.0,-33800.0
32.7588653,35.0228559,478.05,-0.0515,0.06325,1.01,-0.64,-0.04,0.08,23590.0,18530.0,-33790.0
32.7588653,35.0228559,478.05,-0.049,0.0455,1.01775,-1.32,-0.34,0.16,23630.0,18530.0,-33780.0
32.7588653,35.0228559,478.05,-0.05675,0.05475,1.01475,-0.7,0.02,0.1,23610.0,18640.0,-33780.0
32.7588653,35.0228559,478.05,-0.05825,0.06125,1.009,-0.62,0.38,0.08,23580.0,18650.0,-33780.0
32.7588653,35.0228559,478.05,-0.062,0.044,1.01925,-1.28,0.08,0.04,23550.0,18600.0,-33790.0
32.7588652,35.0228558,478.04,-0.069,0.04275,1.02425,-1.14,-0.04,0.08,23570.0,18640.0,-33790.0
32.7588652,35.0228558,478.04,-0.07025,0.05525,1.00975,-0.64,0.06,0.02,23610.0,18710.0,-33770.0
32.7588652,35.0228558,478.04,-0.06025,0.048,1.00325,-0.98,-0.06,-0.04,23580.0,18670.0,-33780.0
32.7588652,35.0228558,478.04,-0.05325,0.04125,1.01425,-1.24,-0.36,-0.06,23530.0,18650.0,-33790.0
32.7588652,35.0228558,478.04,-0.05475,0.05525,1.006,-0.72,-0.1,0.04,23530.0,18620.0,-33790.0
32.7588652,35.0228558,478.04,-0.05975,0.052,0.99225,-0.72,0.32,0.0,23550.0,18630.0,-33790.0
32.7588652,35.0228558,478.04,-0.06825,0.018,0.99825,-1.3,0.22,0.04,23550.0,18660.0,-33780.0
32.7588652,35.0228558,478.04,-0.0675,0.03375,1.00725,-0.66,-0.08,0.06,23520.0,18640.0,-33780.0
32.7588652,35.0228558,478.04,-0.0715,0.05875,0.996,-0.26,0.0,0.08,23540.0,18660.0,-33780.0
32.7588652,35.0228558,478.04,-0.06425,0.04825,0.98525,-0.92,-0.04,0.08,23530.0,18610.0,-33790.0
32.7588652,35.0228558,478.04,-0.05625,0.0255,0.99475,-1.22,-0.3,0.1,23580.0,18570.0,-33780.0
32.7588652,35.0228558,478.04,-0.0605,0.0325,0.9865,-0.6,-0.24,0.24,23620.0,18670.0,-33760.0
32.7588652,35.0228558,478.04,-0.06325,0.0445,0.97325,-0.38,0.16,0.22,23550.0,18640.0,-33780.0
32.7588652,35.0228558,478.04,-0.064,0.03875,0.99225,-0.92,0.14,0.2,23510.0,18600.0,-33790.0
32.7588652,35.0228558,478.04,-0.0685,0.0355,0.9985,-0.9,-0.04,0.26,23550.0,18580.0,-33790.0
32.7588652,35.0228558,478.04,-0.06975,0.03875,0.9805,-0.6,-0.16,0.18,23570.0,18540.0,-33790.0
32.7588652,35.0228558,478.04,-0.06,0.0295,0.972,-0.88,-0.3,0.16,23550.0,18570.0,-33780.0
32.7588652,35.0228558,478.04,-0.0515,0.0235,0.98775,-0.9,-0.44,0.24,23590.0,18410.0,-33800.0
32.7588652,35.0228558,478.04,-0.0535,0.038,0.9825,-0.6,-0.22,0.16,23570.0,18240.0,-33810.0
32.7588652,35.0228558,478.04,-0.05925,0.04125,0.97025,-0.7,0.1,0.1,23540.0,18160.0,-33830.0
32.7588652,35.0228558,478.04,-0.0585,0.0175,0.98125,-1.1,-0.04,0.18,23570.0,18140.0,-33820.0
32.7588652,35.0228558,478.06,-0.06,0.0065,0.9915,-0.86,-0.4,0.06,23670.0,18230.0,-33800.0
32.7588652,35.0228558,478.06,-0.06175,0.02625,0.97675,-0.38,-0.3,0.0,23640.0,18190.0,-33810.0
32.7588652,35.0228558,478.06,-0.05375,0.03125,0.97275,-0.56,-0.24,-0.08,23600.0,18250.0,-33800.0
32.7588652,35.0228558,478.06,-0.045,0.00975,0.991,-0.98,-0.48,-0.02,23550.0,18340.0,-33800.0
32.7588652,35.0228558,478.06,-0.04925,0.00325,0.992,-0.54,-0.4,-0.12,23490.0,18410.0,-33800.0
32.7588652,35.0228558,478.06,-0.054,0.01375,0.97025,-0.06,-0.02,-0.1,23480.0,18460.0,-33790.0
32.7588652,35.0228558,478.06,-0.051,0.0085,0.98,-0.22,-0.14,-0.08,23490.0,18470.0,-33790.0
32.7588652,35.0228558,478.06,-0.05225,0.00025,1.0055,-0.42,-0.26,-0.06,23480.0,18510.0,-33790.0
32.7588652,35.0228558,478.06,-0.05925,0.01125,0.99525,0.18,0.08,-0.06,23470.0,18560.0,-33790.0
32.7588652,35.0228558,478.06,-0.0555,0.0165,0.976,0.16,-0.04,-0.06,23500.0,18610.0,-33770.0
32.7588652,35.0228558,478.06,-0.04425,0.00325,0.99525,-0.14,-0.5,-0.08,23520.0,18600.0,-33770.0
32.7588652,35.0228558,478.06,-0.04375,0.00825,1.006,0.22,-0.3,-0.04,23490.0,18560.0,-33780.0
32.7588652,35.0228558,478.06,-0.051,0.03,0.9835,0.64,0.28,0.0,23490.0,18490.0,-33780.0
32.7588652,35.0228558,478.06,-0.05825,0.02725,0.98275,0.18,0.34,0.08,23520.0,18440.0,-33780.0
32.7588652,35.0228558,478.06,-0.06075,0.0125,1.01025,0.06,0.02,0.02,23520.0,18450.0,-33790.0
32.7588652,35.0228558,478.06,-0.06225,0.031,1.0095,0.6,0.06,0.08,23550.0,18450.0,-33780.0
32.7588652,35.0228558,478.06,-0.06,0.052,0.987,0.64,0.22,0.06,23590.0,18440.0,-33770.0
32.7588652,35.0228558,478.06,-0.05175,0.039,0.992,0.0,-0.02,0.12,23600.0,18510.0,-33770.0
32.7588652,35.0228558,478.06,-0.053,0.02625,1.00825,0.04,-0.16,0.1,23590.0,18440.0,-33770.0
32.7588652,35.0228558,478.06,-0.064,0.04475,0.99325,0.6,0.34,0.22,23580.0,18470.0,-33770.0
32.7588652,35.0228558,478.05,-0.06725,0.056,0.98525,0.4,0.42,0.14,23580.0,18560.0,-33760.0
32.7588652,35.0228558,478.05,-0.06525,0.041,1.007,-0.08,-0.18,0.08,23610.0,18440.0,-33760.0
32.7588652,35.0228558,478.05,-0.069,0.0405,1.01225,0.18,-0.1,0.18,23620.0,18350.0,-33770.0
32.7588652,35.0228558,478.05,-0.0695,0.05275,0.9875,0.44,0.16,0.08,23570.0,18380.0,-33780.0
32.7588652,35.0228558,478.05,-0.0595,0.04575,0.98675,0.06,-0.2,0.04,23560.0,18370.0,-33780.0
32.7588652,35.0228558,478.05,-0.05275,0.039,1.0125,-0.02,-0.56,0.0,23590.0,18340.0,-33780.0
32.7588652,35.0228558,478.05,-0.058,0.0585,1.003,0.46,0.06,0.0,23610.0,18360.0,-33780.0
32.7588652,35.0228558,478.05,-0.06475,0.0585,0.97975,0.24,0.32,-0.04,23650.0,18330.0,-33770.0
32.7588652,35.0228558,478.05,-0.066,0.033,0.996,-0.3,-0.14,-0.04,23640.0,18330.0,-33780.0
32.7588652,35.0228558,478.05,-0.06575,0.03625,1.0155,0.18,-0.38,-0.06,23620.0,18430.0,-33770.0
32.7588652,35.0228558,478.05,-0.066,0.064,0.99775,0.52,0.04,0.0,23620.0,18460.0,-33770.0
32.7588652,35.0228558,478.05,-0.058,0.05775,0.9875,-0.12,-0.12,0.0,23610.0,18420.0,-33780.0
32.7588652,35.0228558,478.05,-0.0505,0.031,1.0035,-0.5,-0.54,-0.02,23590.0,18390.0,-33790.0
32.7588652,35.0228558,478.05,-0.05225,0.035,1.00175,0.02,-0.28,-0.02,23550.0,18390.0,-33790.0
32.7588652,35.0228558,478.05,-0.05625,0.05075,0.98275,0.14,0.3,0.02,23580.0,18350.0,-33780.0
32.7588652,35.0228558,478.05,-0.057,0.03925,0.996,-0.44,0.04,-0.02,23620.0,18360.0,-33780.0
32.7588652,35.0228558,478.05,-0.06025,0.029,1.01425,-0.24,-0.32,-0.04,23610.0,18400.0,-33780.0
32.7588652,35.0228558,478.05,-0.06275,0.044,0.998,0.04,-0.04,0.12,23610.0,18420.0,-33770.0
32.7588652,35.0228558,478.05,-0.05625,0.0385,0.982,-0.24,0.04,0.04,23600.0,18410.0,-33780.0
32.7588652,35.0228558,478.05,-0.04675,0.01825,0.9965,-0.36,-0.44,0.06,23620.0,18460.0,-33770.0
32.7588652,35.0228558,478.06,-0.04625,0.031,1.00375,0.06,-0.28,0.1,23660.0,18600.0,-33750.0
32.7588652,35.0228558,478.06,-0.053,0.04975,0.9865,0.12,0.46,0.1,23670.0,18660.0,-33740.0
32.7588652,35.0228558,478.06,-0.05725,0.02775,0.98625,-0.42,0.22,0.08,23670.0,18700.0,-33730.0
32.7588652,35.0228558,478.06,-0.061,0.01025,1.006,-0.22,-0.18,0.02,23710.0,18640.0,-33740.0
32.7588652,35.0228558,478.06,-0.06175,0.0375,1.002,0.4,-0.04,0.06,23700.0,18520.0,-33750.0
32.7588652,35.0228558,478.06,-0.05775,0.05225,0.98525,0.18,0.26,0.04,23650.0,18500.0,-33760.0
32.7588652,35.0228558,478.06,-0.05325,0.026,0.992,-0.48,-0.16,0.02,23650.0,18480.0,-33770.0
32.7588652,35.0228558,478.06,-0.05325,0.0195,1.0025,-0.06,-0.34,0.0,23630.0,18470.0,-33770.0
32.7588652,35.0228558,478.06,-0.05925,0.04175,0.99325,0.34,0.22,0.06,23600.0,18530.0,-33780.0
32.7588652,35.0228558,478.06,-0.06125,0.03825,0.99075,-0.12,0.36,-0.04,23570.0,18550.0,-33770.0
32.7588652,35.0228558,478.06,-0.06175,0.0195,1.006,-0.34,-0.2,0.0,23590.0,18600.0,-33760.0
32.7588652,35.0228558,478.06,-0.06375,0.032,1.0055,0.18,-0.16,0.04,23590.0,18610.0,-33770.0
32.7588652,35.0228558,478.06,-0.0635,0.0425,0.9895,0.14,0.3,0.0,23600.0,18590.0,-33770.0
32.7588652,35.0228558,478.06,-0.05675,0.021,0.99125,-0.38,-0.08,-0.06,23630.0,18570.0,-33760.0
32.7588652,35.0228558,478.06,-0.05275,0.01875,1.005,0.02,-0.44,0.0,23630.0,18570.0,-33770.0
32.7588652,35.0228558,478.06,-0.05825,0.04325,0.99925,0.4,0.08,0.04,23690.0,18550.0,-33760.0
32.7588652,35.0228558,478.06,-0.063,0.03725,0.98725,-0.1,0.54,0.0,23710.0,18570.0,-33760.0
32.7588652,35.0228558,478.06,-0.065,0.011,0.99775,-0.34,-0.22,0.06,23680.0,18600.0,-33760.0
32.7588652,35.0228558,478.06,-0.06175,0.02975,1.0085,0.5,-0.32,0.0,23650.0,18620.0,-33760.0
32.7588652,35.0228558,478.06,-0.0585,0.05775,0.998,0.52,0.18,0.02,23640.0,18650.0,-33760.0
32.7588652,35.0228558,478.05,-0.05375,0.037,0.98775,-0.34,0.06,0.06,23670.0,18750.0,-33740.0
32.7588652,35.0228558,478.05,-0.0515,0.02,0.99775,-0.18,-0.44,0.06,23640.0,18680.0,-33750.0
32.7588652,35.0228558,478.05,-0.05675,0.04475,0.999,0.54,-0.08,0.02,23620.0,18600.0,-33770.0
32.7588652,35.0228558,478.05,-0.06025,0.0565,0.99,0.24,0.48,0.06,23610.0,18590.0,-33770.0
32.7588652,35.0228558,478.05,-0.06275,0.03675,0.998,-0.32,0.0,0.06,23550.0,18590.0,-33780.0
32.7588652,35.0228558,478.05,-0.06375,0.0385,1.0065,0.08,-0.42,0.04,23550.0,18590.0,-33780.0
32.7588652,35.0228558,478.05,-0.06175,0.05575,0.99475,0.28,0.12,0.04,23590.0,18570.0,-33780.0
32.7588652,35.0228558,478.05,-0.05525,0.0425,0.987,-0.24,0.08,0.1,23600.0,18570.0,-33770.0
32.7588652,35.0228558,478.05,-0.04775,0.0305,0.999,-0.16,-0.44,0.02,23620.0,18510.0,-33770.0
32.7588652,35.0228558,478.05,-0.049,0.0515,1.0015,0.3,-0.16,0.02,23680.0,18520.0,-33760.0
32.7588652,35.0228558,478.05,-0.0565,0.055,0.989,-0.08,0.48,0.02,23660.0,18600.0,-33760.0
32.7588652,35.0228558,478.05,-0.063,0.02475,0.99225,-0.5,0.16,0.02,23640.0,18560.0,-33770.0
32.7588652,35.0228558,478.05,-0.06175,0.025,1.0045,0.06,-0.42,-0.02,23650.0,18530.0,-33770.0
32.7588652,35.0228558,478.05,-0.06075,0.05725,1.00175,0.34,0.0,0.0,23650.0,18520.0,-33770.0
32.7588652,35.0228558,478.05,-0.05575,0.051,0.99025,-0.26,0.18,0.02,23690.0,18460.0,-33770.0
32.7588652,35.0228558,478.05,-0.05075,0.02075,0.993,-0.56,-0.3,0.04,23680.0,18490.0,-33770.0
32.7588652,35.0228558,478.05,-0.0515,0.02825,0.9995,0.12,-0.22,0.0,23660.0,18600.0,-33760.0
32.7588652,35.0228558,478.05,-0.05725,0.04975,0.99275,0.22,0.42,0.04,23670.0,18580.0,-33760.0
32.7588652,35.0228558,478.05,-0.06175,0.036,0.9935,-0.38,0.3,0.0,23670.0,18510.0,-33760.0
32.7588652,35.0228558,478.05,-0.0635,0.0225,1.006,-0.26,-0.26,0.0,23660.0,18540.0,-33760.0
32.7588652,35.0228558,478.05,-0.065,0.03925,1.00125,0.16,-0.08,0.04,23660.0,18640.0,-33750.0
32.7588652,35.0228558,478.05,-0.061,0.03975,0.986,-0.1,0.28,-0.02,23660.0,18590.0,-33750.0
32.7588652,35.0228558,478.05,-0.053,0.01725,0.99325,-0.4,-0.32,-0.04,23660.0,18540.0,-33760.0
32.7588652,35.0228558,478.05,-0.0505,0.0265,1.005,0.12,-0.4,0.06,23630.0,18500.0,-33760.0
32.7588652,35.0228558,478.05,-0.05925,0.04725,0.9945,0.24,0.4,0.1,23620.0,18480.0,-33770.0
32.7588652,35.0228558,478.05,-0.06475,0.02775,0.987,-0.34,0.38,0.1,23600.0,18470.0,-33780.0
32.7588652,35.0228558,478.05,-0.0635,0.008,1.00275,-0.12,-0.36,-0.04,23570.0,18440.0,-33780.0
32.7588652,35.0228558,478.05,-0.06075,0.0345,1.00775,0.48,-0.34,0.06,23630.0,18430.0,-33770.0
32.7588652,35.0228558,478.05,-0.05775,0.05475,0.99075,0.3,0.32,0.04,23660.0,18440.0,-33770.0
32.7588652,35.0228558,478.05,-0.05325,0.02725,0.98775,-0.42,-0.08,0.06,23620.0,18460.0,-33770.0
32.7588652,35.0228558,478.05,-0.0525,0.015,1.002,-0.06,-0.52,-0.02,23640.0,18580.0,-33750.0
32.7588652,35.0228558,478.05,-0.058,0.0425,0.99775,0.52,0.14,-0.04,23680.0,18480.0,-33760.0
32.7588652,35.0228558,478.05,-0.0615,0.04875,0.988,0.02,0.44,0.04,23680.0,18400.0,-33760.0
32.7588652,35.0228558,478.05,-0.062,0.025,1.0,-0.36,-0.12,0.04,23700.0,18370.0,-33770.0
32.7588652,35.0228558,478.05,-0.06,0.031,1.0075,0.16,-0.36,-0.02,23660.0,18350.0,-33770.0
32.7588652,35.0228558,478.05,-0.05975,0.04775,0.99175,0.32,0.18,0.02,23640.0,18400.0,-33770.0
32.7588652,35.0228558,478.05,-0.05325,0.032,0.98575,-0.28,0.0,-0.04,23640.0,18420.0,-33770.0
32.7588652,35.0228558,478.05,-0.04675,0.0235,1.00325,-0.12,-0.52,0.0,23640.0,18390.0,-33770.0
32.7588652,35.0228558,478.05,-0.051,0.0465,1.002,0.36,-0.06,0.02,23590.0,18400.0,-33780.0
32.7588652,35.0228558,478.05,-0.0605,0.04875,0.9855,0.04,0.6,0.02,23610.0,18440.0,-33770.0
32.7588652,35.0228558,478.05,-0.06375,0.01875,0.99275,-0.36,0.02,0.0,23670.0,18500.0,-33750.0
32.7588652,35.0228558,478.05,-0.06075,0.02575,1.01025,0.28,-0.46,0.0,23690.0,18500.0,-33750.0
32.7588652,35.0228558,478.05,-0.05975,0.06075,1.00125,0.56,0.08,-0.02,23740.0,18330.0,-33760.0
32.7588652,35.0228558,478.05,-0.056,0.05325,0.98575,-0.22,0.24,0.02,23770.0,18140.0,-33780.0
32.7588652,35.0228558,478.05,-0.05175,0.02175,0.9955,-0.4,-0.36,-0.04,23770.0,18030.0,-33800.0
32.7588652,35.0228558,478.05,-0.05275,0.03375,1.00325,0.22,-0.2,0.06,23810.0,17910.0,-33800.0
32.7588652,35.0228558,478.05,-0.06,0.05825,0.99175,0.28,0.5,0.04,23820.0,17880.0,-33810.0
32.7588652,35.0228558,478.05,-0.064,0.04475,0.99375,-0.3,0.28,0.0,23810.0,17850.0,-33810.0
32.7588652,35.0228558,478.05,-0.064,0.03025,1.0085,-0.22,-0.38,0.04,23790.0,17960.0,-33810.0
32.7588652,35.0228558,478.05,-0.064,0.04525,1.00025,0.24,-0.06,0.0,23750.0,18190.0,-33790.0
32.7588652,35.0228558,478.05,-0.0605,0.04675,0.98475,-0.04,0.26,0.1,23720.0,18300.0,-33770.0
32.7588652,35.0228558,478.05,-0.05325,0.02725,0.9935,-0.28,-0.28,0.02,23690.0,18300.0,-33770.0
32.7588652,35.0228558,478.05,-0.04925,0.03525,1.00575,0.02,-0.42,0.08,23680.0,18300.0,-33780.0
32.7588652,35.0228558,478.05,-0.05825,0.054,0.9955,0.14,0.4,0.04,23640.0,18400.0,-33770.0
32.7588652,35.0228558,478.05,-0.06475,0.0335,0.98525,-0.46,0.4,0.0,23610.0,18400.0,-33780.0
32.7588652,35.0228558,478.05,-0.06275,0.01325,1.00075,-0.3,-0.38,0.0,23630.0,18440.0,-33770.0
32.7588652,35.0228558,478.05,-0.058,0.04525,1.00575,0.46,-0.34,-0.02,23650.0,18480.0,-33770.0
32.7588652,35.0228558,478.05,-0.059,0.06,0.988,0.12,0.32,0.0,23630.0,18460.0,-33770.0
32.7588652,35.0228558,478.05,-0.05425,0.02525,0.99325,-0.58,0.0,0.02,23630.0,18410.0,-33770.0
32.7588652,35.0228558,478.05,-0.05025,0.00925,1.003,-0.1,-0.54,0.06,23610.0,18470.0,-33770.0
32.7588652,35.0228558,478.05,-0.055,0.035,0.99825,0.38,0.06,0.04,23620.0,18600.0,-33760.0
32.7588652,35.0228558,478.05,-0.05975,0.04125,0.99225,-0.04,0.58,0.04,23620.0,18520.0,-33770.0
32.7588652,35.0228558,478.05,-0.06025,0.0215,1.0005,-0.3,-0.08,0.02,23610.0,18480.0,-33780.0
32.7588652,35.0228558,478.05,-0.059,0.02325,1.0085,0.04,-0.42,-0.02,23570.0,18490.0,-33780.0
32.7588652,35.0228558,478.05,-0.061,0.04125,0.9925,0.26,0.22,0.1,23600.0,18470.0,-33780.0
32.7588652,35.0228558,478.05,-0.056,0.03275,0.98575,-0.08,0.18,-0.02,23640.0,18420.0,-33780.0
32.7588652,35.0228558,478.05,-0.04875,0.0225,1.00225,-0.22,-0.56,0.04,23630.0,18440.0,-33780.0
32.7588652,35.0228558,478.05,-0.052,0.043,1.003,0.26,-0.08,0.08,23640.0,18480.0,-33780.0
32.7588652,35.0228558,478.05,-0.06225,0.04875,0.984,0.06,0.64,0.08,23630.0,18450.0,-33780.0
32.7588652,35.0228558,478.05,-0.06525,0.0215,0.98725,-0.34,0.06,0.0,23630.0,18510.0,-33780.0
32.7588652,35.0228558,478.05,-0.0615,0.018,1.00875,0.02,-0.56,0.02,23680.0,18550.0,-33760.0
32.7588652,35.0228558,478.05,-0.0605,0.054,1.00425,0.48,0.04,0.08,23680.0,18520.0,-33770.0
32.7588652,35.0228558,478.05,-0.059,0.05375,0.98425,-0.1,0.3,-0.02,23640.0,18530.0,-33780.0
32.7588652,35.0228558,478.05,-0.053,0.01875,0.991,-0.5,-0.4,0.04,23650.0,18530.0,-33770.0
32.7588652,35.0228558,478.05,-0.05075,0.023,1.00525,0.18,-0.36,0.04,23710.0,18490.0,-33760.0
32.7588652,35.0228558,478.05,-0.05775,0.0535,0.99425,0.5,0.4,-0.06,23730.0,18490.0,-33760.0
32.7588652,35.0228558,478.05,-0.062,0.045,0.9885,-0.14,0.36,0.04,23680.0,18540.0,-33760.0
32.7588652,35.0228558,478.05,-0.06225,0.0245,1.00725,-0.28,-0.34,-0.02,23720.0,18530.0,-33760.0
32.7588652,35.0228558,478.05,-0.0635,0.041,1.00675,0.28,-0.14,0.02,23740.0,18550.0,-33750.0
32.7588652,35.0228558,478.05,-0.0615,0.05075,0.9845,0.2,0.36,0.02,23740.0,18530.0,-33760.0
32.7588652,35.0228558,478.05,-0.0535,0.031,0.98925,-0.34,-0.2,-0.04,23780.0,18650.0,-33740.0
32.7588652,35.0228558,478.05,-0.04725,0.03375,1.01,0.0,-0.52,0.0,23790.0,18710.0,-33730.0
32.7588652,35.0228558,478.05,-0.05475,0.05625,0.99925,0.3,0.3,0.08,23770.0,18770.0,-33720.0
32.7588652,35.0228558,478.05,-0.06275,0.04225,0.9835,-0.24,0.6,0.06,23790.0,18750.0,-33730.0
32.7588652,35.0228558,478.05,-0.062,0.01725,1.00075,-0.36,-0.3,0.08,23780.0,18650.0,-33730.0
32.7588652,35.0228558,478.05,-0.0575,0.03725,1.0105,0.32,-0.38,0.04,23700.0,18620.0,-33750.0
32.7588652,35.0228558,478.05,-0.058,0.06475,0.99225,0.24,0.32,0.02,23700.0,18590.0,-33760.0
32.7588652,35.0228558,478.05,-0.05725,0.04225,0.98175,-0.48,0.14,0.0,23700.0,18480.0,-33760.0
32.7588652,35.0228558,478.05,-0.054,0.01475,1.0,-0.36,-0.48,0.02,23680.0,18510.0,-33760.0
32.7588652,35.0228558,478.05,-0.05675,0.03725,1.0045,0.36,-0.02,0.02,23710.0,18490.0,-33760.0
32.7588652,35.0228558,478.05,-0.0615,0.05425,0.988,0.14,0.6,0.04,23720.0,18570.0,-33750.0
32.7588652,35.0228558,478.05,-0.06175,0.031,0.993,-0.38,-0.02,-0.06,23660.0,18520.0,-33770.0
32.7588652,35.0228558,478.05,-0.058,0.0235,1.00875,-0.2,-0.5,0.08,23660.0,18530.0,-33760.0
32.7588652,35.0228558,478.05,-0.059,0.0425,0.99675,0.24,0.06,0.0,23670.0,18520.0,-33760.0
32.7588652,35.0228558,478.05,-0.05625,0.03525,0.98375,-0.14,0.26,0.0,23660.0,18530.0,-33760.0
32.7588652,35.0228558,478.05,-0.05025,0.018,1.0005,-0.24,-0.42,0.04,23640.0,18540.0,-33770.0
32.7588652,35.0228558,478.05,-0.051,0.03625,1.00775,0.22,-0.24,0.0,23640.0,18500.0,-33770.0
32.7588652,35.0228558,478.05,-0.062,0.04775,0.9885,0.1,0.62,0.0,23650.0,18550.0,-33760.0
32.7588652,35.0228558,478.05,-0.065,0.0195,0.9865,-0.44,0.26,0.04,23660.0,18560.0,-33760.0
32.7588652,35.0228558,478.05,-0.05975,0.0105,1.00775,-0.04,-0.58,-0.02,23680.0,18580.0,-33750.0
32.7588652,35.0228558,478.05,-0.0575,0.04525,1.008,0.58,-0.06,-0.02,23720.0,18660.0,-33740.0
32.7588652,35.0228558,478.05,-0.0565,0.054,0.9875,-0.04,0.38,0.02,23690.0,18610.0,-33740.0
32.7588652,35.0228558,478.05,-0.0535,0.01975,0.99,-0.46,-0.14,0.0,23680.0,18540.0,-33750.0
32.7588652,35.0228558,478.05,-0.05175,0.0175,1.00425,0.08,-0.46,0.02,23660.0,18550.0,-33760.0
32.7588652,35.0228558,478.05,-0.0595,0.047,0.99625,0.54,0.4,-0.04,23620.0,18520.0,-33770.0
32.7588652,35.0228558,478.05,-0.0635,0.046,0.98725,-0.08,0.54,0.02,23650.0,18440.0,-33760.0
32.7588652,35.0228558,478.05,-0.06325,0.02475,1.004,-0.3,-0.4,0.04,23670.0,18400.0,-33760.0
32.7588652,35.0228558,478.05,-0.06075,0.035,1.008,0.18,-0.3,0.02,23610.0,18430.0,-33770.0
32.7588652,35.0228558,478.05,-0.06025,0.04825,0.987,0.2,0.32,-0.02,23580.0,18420.0,-33780.0
32.7588652,35.0228558,478.05,-0.0535,0.02975,0.9855,-0.28,-0.08,0.02,23620.0,18460.0,-33770.0
32.7588652,35.0228558,478.05,-0.0475,0.02725,1.00475,0.04,-0.52,-0.02,23610.0,18580.0,-33760.0
32.7588652,35.0228558,478.05,-0.05475,0.05325,1.00125,0.36,0.18,0.04,23590.0,18530.0,-33770.0
32.7588652,35.0228558,478.05,-0.0635,0.04525,0.98325,-0.18,0.64,-0.04,23610.0,18420.0,-33770.0
32.7588652,35.0228558,478.05,-0.0635,0.015,0.995,-0.36,-0.18,0.02,23600.0,18400.0,-33780.0
32.7588652,35.0228558,478.05,-0.0585,0.02975,1.01225,0.36,-0.46,0.0,23640.0,18430.0,-33770.0
32.7588652,35.0228558,478.05,-0.058,0.0635,0.99625,0.38,0.26,0.0,23640.0,18420.0,-33770.0
32.7588652,35.0228558,478.05,-0.055,0.0455,0.9825,-0.42,0.16,0.0,23600.0,18500.0,-33770.0
32.7588652,35.0228558,478.05,-0.05075,0.01775,0.99825,-0.3,-0.48,0.04,23640.0,18480.0,-33760.0
32.7588652,35.0228558,478.05,-0.05325,0.0375,1.0055,0.38,-0.08,0.04,23640.0,18420.0,-33770.0
32.7588652,35.0228558,478.05,-0.05975,0.055,0.98975,0.12,0.62,0.02,23630.0,18480.0,-33770.0
32.7588653,35.0228558,478.05,-0.06275,0.03575,0.99325,-0.34,0.08,-0.04,23610.0,18570.0,-33760.0
32.7588653,35.0228558,478.05,-0.06175,0.028,1.01,-0.12,-0.48,0.08,23630.0,18490.0,-33760.0
32.7588653,35.0228558,478.05,-0.06325,0.0475,0.99825,0.28,0.08,0.06,23640.0,18440.0,-33760.0
32.7588653,35.0228558,478.05,-0.05925,0.04225,0.98375,-0.12,0.28,-0.02,23620.0,18440.0,-33770.0
32.7588653,35.0228558,478.05,-0.05125,0.02325,0.9975,-0.32,-0.44,-0.06,23630.0,18450.0,-33770.0
32.7588653,35.0228558,478.05,-0.049,0.039,1.0075,0.2,-0.28,0.08,23620.0,18450.0,-33770.0
32.7588653,35.0228558,478.05,-0.0595,0.05325,0.99075,0.08,0.58,0.1,23650.0,18400.0,-33770.0
32.7588653,35.0228558,478.05,-0.06575,0.0265,0.98625,-0.42,0.32,0.02,23670.0,18390.0,-33770.0
32.7588653,35.0228558,478.05,-0.06275,0.01325,1.00575,-0.12,-0.5,-0.02,23650.0,18460.0,-33760.0
32.7588653,35.0228558,478.05,-0.06,0.04625,1.0065,0.5,-0.16,0.0,23640.0,18480.0,-33760.0
32.7588653,35.0228558,478.05,-0.05825,0.0565,0.98675,0.04,0.36,0.04,23720.0,18520.0,-33740.0
32.7588653,35.0228558,478.05,-0.054,0.02375,0.98775,-0.58,-0.12,-0.02,23730.0,18450.0,-33750.0
32.7588653,35.0228558,478.05,-0.051,0.018,1.00325,-0.02,-0.52,0.02,23640.0,18430.0,-33770.0
32.7588653,35.0228558,478.05,-0.0585,0.04625,0.9965,0.46,0.32,0.0,23640.0,18430.0,-33770.0
32.7588653,35.0228558,478.05,-0.06125,0.04425,0.9875,-0.1,0.46,0.0,23640.0,18380.0,-33780.0
32.7588653,35.0228558,478.05,-0.061,0.02275,1.0025,-0.32,-0.34,-0.04,23650.0,18460.0,-33770.0
32.7588653,35.0228558,478.05,-0.05875,0.0335,1.0075,0.12,-0.28,0.02,23660.0,18460.0,-33760.0
32.7588653,35.0228558,478.05,-0.059,0.0455,0.98775,0.2,0.32,0.04,23670.0,18470.0,-33760.0
32.7588653,35.0228558,478.05,-0.05275,0.02525,0.9865,-0.3,-0.08,-0.04,23640.0,18450.0,-33770.0
32.7588652,35.0228558,478.05,-0.047,0.02375,1.00725,-0.06,-0.52,-0.02,23660.0,18510.0,-33770.0
32.7588652,35.0228558,478.05,-0.05375,0.0495,1.00175,0.4,0.2,0.06,23700.0,18580.0,-33750.0
32.7588652,35.0228558,478.05,-0.06225,0.0425,0.98375,-0.24,0.64,0.0,23660.0,18570.0,-33760.0
32.7588652,35.0228558,478.05,-0.064,0.01175,0.99625,-0.36,-0.18,0.0,23640.0,18570.0,-33760.0
32.7588652,35.0228558,478.05,-0.058,0.02625,1.01175,0.34,-0.48,-0.02,23680.0,18500.0,-33760.0
32.7588652,35.0228558,478.05,-0.058,0.05925,0.9975,0.42,0.28,0.02,23680.0,18470.0,-33770.0
32.7588652,35.0228558,478.05,-0.055,0.04275,0.98425,-0.36,0.2,0.04,23650.0,18470.0,-33770.0
32.7588652,35.0228558,478.05,-0.051,0.016,0.9985,-0.32,-0.52,-0.08,23600.0,18470.0,-33780.0
32.7588652,35.0228558,478.05,-0.0545,0.036,1.00375,0.38,-0.08,0.0,23580.0,18470.0,-33780.0
32.7588652,35.0228558,478.05,-0.06175,0.053,0.989,0.2,0.64,0.06,23630.0,18460.0,-33780.0
32.7588652,35.0228558,478.05,-0.064,0.03375,0.99275,-0.32,0.06,-0.04,23730.0,18310.0,-33780.0
32.7588652,35.0228558,478.05,-0.06175,0.029,1.01025,-0.04,-0.5,-0.06,23760.0,18210.0,-33790.0
32.7588652,35.0228558,478.05,-0.06225,0.049,0.99825,0.28,0.14,0.02,23750.0,18130.0,-33800.0
32.7588652,35.0228558,478.05,-0.0585,0.041,0.98225,-0.24,0.2,0.08,23800.0,18040.0,-33800.0
32.7588652,35.0228558,478.05,-0.0505,0.02175,0.99725,-0.32,-0.5,0.02,23840.0,17980.0,-33810.0
32.7588652,35.0228558,478.05,-0.04975,0.04025,1.00725,0.26,-0.3,0.04,23850.0,17930.0,-33810.0
32.7588652,35.0228558,478.05,-0.06,0.0555,0.99175,0.12,0.6,0.02,23810.0,18120.0,-33790.0
32.7588652,35.0228558,478.05,-0.06575,0.02725,0.98675,-0.44,0.3,0.0,23760.0,18340.0,-33770.0
32.7588652,35.0228558,478.05,-0.06225,0.01575,1.00625,-0.1,-0.56,0.06,23720.0,18460.0,-33770.0
32.7588652,35.0228558,478.05,-0.05875,0.049,1.007,0.48,-0.18,0.0,23690.0,18480.0,-33770.0
32.7588652,35.0228558,478.05,-0.05675,0.057,0.98675,0.04,0.38,-0.04,23710.0,18500.0,-33760.0
32.7588653,35.0228558,478.04,-0.0525,0.024,0.99,-0.46,-0.2,0.0,23690.0,18630.0,-33750.0
32.7588653,35.0228558,478.04,-0.05075,0.0235,1.0045,0.06,-0.48,0.02,23680.0,18580.0,-33760.0
32.7588653,35.0228558,478.04,-0.05825,0.0505,0.99675,0.42,0.4,0.0,23710.0,18480.0,-33760.0
32.7588653,35.0228558,478.04,-0.062,0.044,0.9885,-0.22,0.46,0.02,23730.0,18530.0,-33760.0
32.7588653,35.0228558,478.04,-0.061,0.0245,1.0035,-0.34,-0.38,0.0,23740.0,18490.0,-33760.0
32.7588653,35.0228558,478.04,-0.05975,0.03775,1.007,0.2,-0.26,0.0,23710.0,18490.0,-33770.0
32.7588653,35.0228558,478.04,-0.0595,0.0475,0.9875,0.1,0.38,-0.06,23680.0,18500.0,-33770.0
32.7588653,35.0228558,478.04,-0.0525,0.0255,0.98775,-0.38,-0.14,-0.06,23690.0,18490.0,-33770.0
32.7588653,35.0228558,478.04,-0.04675,0.02575,1.0065,-0.02,-0.54,-0.04,23700.0,18460.0,-33770.0
32.7588653,35.0228558,478.04,-0.05425,0.05025,0.99975,0.32,0.24,0.08,23660.0,18530.0,-33770.0
32.7588653,35.0228558,478.04,-0.06225,0.03925,0.9825,-0.26,0.64,0.04,23670.0,18530.0,-33770.0
32.7588653,35.0228558,478.04,-0.0635,0.01125,0.9965,-0.38,-0.22,0.0,23680.0,18480.0,-33770.0
32.7588653,35.0228558,478.04,-0.05975,0.029,1.0115,0.36,-0.44,-0.02,23680.0,18450.0,-33780.0
32.7588653,35.0228558,478.04,-0.05875,0.0575,0.99575,0.3,0.36,0.04,23700.0,18420.0,-33770.0
32.7588653,35.0228558,478.04,-0.055,0.03625,0.98425,-0.4,0.1,0.0,23710.0,18430.0,-33770.0
32.7588653,35.0228558,478.04,-0.0505,0.01425,0.99875,-0.26,-0.5,0.0,23680.0,18500.0,-33770.0
32.7588653,35.0228558,478.04,-0.05425,0.0375,1.00225,0.42,0.02,0.0,23640.0,18510.0,-33770.0
32.7588653,35.0228558,478.04,-0.061,0.05,0.9885,0.18,0.6,0.02,23650.0,18450.0,-33770.0
32.7588653,35.0228558,478.04,-0.063,0.0285,0.995,-0.38,0.0,-0.02,23660.0,18460.0,-33770.0
32.7588653,35.0228558,478.04,-0.06125,0.027,1.01025,0.04,-0.38,-0.02,23680.0,18500.0,-33760.0
32.7588653,35.0228558,478.05,-0.06175,0.0475,0.99625,0.32,0.18,0.06,23710.0,18650.0,-33740.0
32.7588653,35.0228558,478.05,-0.057,0.036,0.98225,-0.2,0.24,-0.02,23710.0,18700.0,-33730.0
32.7588653,35.0228558,478.05,-0.04975,0.02025,0.99775,-0.2,-0.58,0.04,23690.0,18740.0,-33730.0
32.7588653,35.0228558,478.05,-0.051,0.042,1.0065,0.34,-0.16,-0.04,23710.0,18620.0,-33740.0
32.7588653,35.0228558,478.05,-0.0605,0.05125,0.98925,0.04,0.68,0.04,23680.0,18530.0,-33760.0
32.7588653,35.0228558,478.05,-0.065,0.022,0.9885,-0.48,0.1,0.0,23610.0,18530.0,-33770.0
32.7588653,35.0228558,478.05,-0.061,0.019,1.00825,0.06,-0.58,-0.04,23610.0,18450.0,-33770.0
32.7588653,35.0228558,478.05,-0.05875,0.05325,1.004,0.58,0.08,0.02,23680.0,18410.0,-33770.0
32.7588653,35.0228558,478.05,-0.05625,0.05225,0.985,-0.16,0.38,-0.02,23650.0,18450.0,-33770.0
32.7588653,35.0228558,478.05,-0.05225,0.021,0.99125,-0.48,-0.36,-0.02,23650.0,18460.0,-33770.0
32.7588653,35.0228558,478.05,-0.0515,0.02925,1.0045,0.26,-0.32,0.0,23660.0,18510.0,-33760.0
32.7588653,35.0228558,478.05,-0.05925,0.0535,0.9955,0.28,0.5,0.02,23630.0,18440.0,-33770.0
32.7588653,35.0228558,478.05,-0.062,0.04025,0.99025,-0.28,0.34,-0.02,23660.0,18440.0,-33760.0
32.7588653,35.0228558,478.05,-0.061,0.02525,1.00575,-0.24,-0.44,-0.02,23670.0,18430.0,-33770.0
32.7588653,35.0228558,478.05,-0.05925,0.044,1.00375,0.28,-0.1,0.14,23640.0,18460.0,-33770.0
32.7588653,35.0228558,478.05,-0.0575,0.047,0.9855,0.06,0.36,0.0,23690.0,18400.0,-33770.0
32.7588653,35.0228558,478.05,-0.05175,0.02375,0.9915,-0.4,-0.22,-0.02,23700.0,18430.0,-33760.0
32.7588653,35.0228558,478.05,-0.0485,0.032,1.00675,0.12,-0.5,0.04,23680.0,18490.0,-33760.0
32.7588653,35.0228558,478.05,-0.05725,0.0535,0.9955,0.28,0.4,0.04,23680.0,18490.0,-33760.0
32.7588653,35.0228558,478.05,-0.06425,0.03525,0.98525,-0.34,0.46,-0.02,23670.0,18500.0,-33760.0
32.7588653,35.0228558,478.05,-0.06275,0.01375,1.002,-0.22,-0.4,0.0,23690.0,18630.0,-33740.0
32.7588653,35.0228558,478.05,-0.058,0.04,1.0085,0.48,-0.22,-0.04,23670.0,18580.0,-33750.0
32.7588653,35.0228558,478.05,-0.057,0.05875,0.99125,0.2,0.38,0.0,23650.0,18500.0,-33760.0
32.7588653,35.0228558,478.05,-0.0535,0.029,0.9875,-0.52,-0.02,-0.02,23650.0,18460.0,-33770.0
32.7588653,35.0228558,478.05,-0.051,0.01725,1.00275,-0.18,-0.48,0.0,23560.0,18500.0,-33780.0
32.7588653,35.0228558,478.05,-0.05725,0.045,0.999,0.42,0.24,-0.02,23560.0,18490.0,-33780.0
32.7588653,35.0228558,478.05,-0.06225,0.0485,0.98775,0.02,0.6,0.0,23630.0,18430.0,-33770.0
32.7588653,35.0228558,478.05,-0.06325,0.02425,1.0,-0.38,-0.22,-0.02,23630.0,18430.0,-33770.0
32.7588653,35.0228558,478.05,-0.06025,0.031,1.01,0.14,-0.38,0.02,23650.0,18400.0,-33770.0
32.7588653,35.0228558,478.05,-0.061,0.04775,0.9925,0.14,0.3,0.02,23670.0,18420.0,-33760.0
32.7588653,35.0228558,478.05,-0.05575,0.03075,0.9855,-0.28,0.06,0.02,23710.0,18440.0,-33750.0
32.7588653,35.0228558,478.05,-0.048,0.02175,1.004,-0.12,-0.58,-0.1,23700.0,18420.0,-33760.0
32.7588653,35.0228558,478.05,-0.05225,0.04575,1.003,0.36,0.04,0.06,23680.0,18420.0,-33770.0
32.7588653,35.0228558,478.05,-0.062,0.04625,0.98375,-0.04,0.66,0.02,23630.0,18450.0,-33780.0
32.7588653,35.0228558,478.05,-0.06475,0.0155,0.99325,-0.42,-0.02,-0.02,23670.0,18440.0,-33770.0
32.7588653,35.0228558,478.05,-0.06,0.0215,1.012,0.2,-0.6,0.02,23690.0,18490.0,-33770.0
32.7588653,35.0228558,478.05,-0.059,0.05725,1.0005,0.46,0.16,0.0,23680.0,18540.0,-33760.0
32.7588653,35.0228558,478.05,-0.056,0.04675,0.983,-0.22,0.32,-0.02,23680.0,18500.0,-33760.0
32.7588653,35.0228558,478.05,-0.051,0.0155,0.99525,-0.44,-0.52,-0.02,23660.0,18490.0,-33770.0
32.7588653,35.0228558,478.05,-0.05125,0.03,1.00525,0.28,-0.2,0.02,23640.0,18560.0,-33770.0
32.7588653,35.0228558,478.05,-0.05875,0.0525,0.99075,0.32,0.6,0.0,23690.0,18610.0,-33750.0
32.7588653,35.0228558,478.05,-0.062,0.03675,0.99075,-0.34,0.22,0.0,23710.0,18560.0,-33750.0
32.7588653,35.0228558,478.05,-0.05975,0.025,1.0105,-0.18,-0.52,-0.04,23720.0,18530.0,-33750.0
32.7588653,35.0228558,478.05,-0.06,0.04425,1.0025,0.24,0.06,0.06,23700.0,18520.0,-33760.0
32.7588653,35.0228558,478.05,-0.05875,0.0435,0.98125,-0.08,0.38,0.02,23660.0,18510.0,-33770.0
32.7588653,35.0228558,478.05,-0.0515,0.02125,0.9935,-0.32,-0.4,-0.04,23640.0,18540.0,-33770.0
32.7588653,35.0228558,478.05,-0.04825,0.0335,1.0085,0.2,-0.36,-0.04,23610.0,18530.0,-33780.0
32.7588653,35.0228558,478.05,-0.0575,0.05525,0.99425,0.22,0.52,0.04,23650.0,18520.0,-33770.0
32.7588653,35.0228558,478.05,-0.064,0.03225,0.98375,-0.4,0.36,-0.04,23650.0,18510.0,-33780.0
32.7588653,35.0228558,478.05,-0.06125,0.012,1.00325,-0.18,-0.5,0.04,23670.0,18600.0,-33760.0
32.7588653,35.0228558,478.05,-0.05875,0.04325,1.0095,0.5,-0.3,-0.02,23740.0,18680.0,-33740.0
32.7588653,35.0228558,478.05,-0.059,0.061,0.98825,0.12,0.46,0.04,23750.0,18630.0,-33750.0
32.7588653,35.0228558,478.05,-0.0555,0.03025,0.98725,-0.48,-0.1,-0.04,23710.0,18610.0,-33750.0
32.7588653,35.0228558,478.05,-0.0515,0.019,1.00525,-0.08,-0.52,-0.02,23690.0,18560.0,-33760.0
32.7588653,35.0228558,478.05,-0.057,0.04675,0.9995,0.5,0.24,0.06,23670.0,18500.0,-33770.0
32.7588653,35.0228558,478.05,-0.06125,0.049,0.9865,-0.02,0.64,0.04,23660.0,18530.0,-33770.0
32.7588653,35.0228558,478.05,-0.06175,0.026,1.0005,-0.36,-0.28,-0.02,23690.0,18510.0,-33770.0
32.7588653,35.0228558,478.05,-0.06,0.03425,1.00975,0.08,-0.4,0.06,23670.0,18520.0,-33770.0
32.7588653,35.0228558,478.05,-0.062,0.0495,0.99025,0.2,0.38,0.0,23660.0,18500.0,-33770.0
32.7588653,35.0228558,478.05,-0.05675,0.02975,0.9845,-0.34,0.04,-0.02,23720.0,18500.0,-33760.0
32.7588653,35.0228558,478.05,-0.04875,0.02175,1.004,-0.1,-0.64,-0.02,23780.0,18600.0,-33740.0
32.7588653,35.0228558,478.05,-0.05225,0.04775,1.002,0.36,0.08,0.08,23740.0,18620.0,-33750.0
32.7588653,35.0228558,478.05,-0.0615,0.047,0.982,-0.14,0.66,0.0,23700.0,18580.0,-33760.0
32.7588653,35.0228558,478.05,-0.06425,0.016,0.992,-0.4,-0.08,0.0,23720.0,18540.0,-33760.0
32.7588653,35.0228558,478.05,-0.0595,0.02375,1.01175,0.18,-0.52,0.02,23710.0,18510.0,-33760.0
32.7588653,35.0228558,478.05,-0.0595,0.05725,0.99875,0.46,0.2,0.02,23700.0,18470.0,-33770.0
32.7588653,35.0228558,478.05,-0.0565,0.04625,0.98325,-0.28,0.32,0.02,23680.0,18460.0,-33770.0
32.7588653,35.0228558,478.05,-0.051,0.01675,0.996,-0.34,-0.48,-0.04,23630.0,18500.0,-33780.0
32.7588653,35.0228558,478.05,-0.05025,0.032,1.00475,0.3,-0.24,0.02,23640.0,18500.0,-33770.0
32.7588653,35.0228558,478.05,-0.058,0.05225,0.991,0.22,0.62,0.0,23720.0,18450.0,-33760.0
32.7588653,35.0228558,478.05,-0.061,0.03525,0.992,-0.38,0.16,-0.02,23750.0,18520.0,-33750.0
32.7588653,35.0228558,478.05,-0.0595,0.0245,1.01125,-0.14,-0.48,0.04,23670.0,18520.0,-33760.0
32.7588653,35.0228558,478.05,-0.06075,0.04475,1.00125,0.26,0.04,-0.04,23670.0,18480.0,-33770.0
32.7588653,35.0228558,478.05,-0.0595,0.04225,0.9825,-0.14,0.4,0.02,23680.0,18460.0,-33770.0
32.7588653,35.0228558,478.05,-0.0515,0.02,0.995,-0.26,-0.4,0.0,23670.0,18450.0,-33770.0
32.7588653,35.0228558,478.05,-0.0475,0.0335,1.00875,0.26,-0.38,-0.02,23730.0,18310.0,-33780.0
32.7588653,35.0228558,478.05,-0.05675,0.0535,0.99325,0.2,0.58,0.08,23810.0,18170.0,-33790.0
32.7588653,35.0228558,478.05,-0.06325,0.031,0.9845,-0.34,0.38,-0.04,23800.0,18130.0,-33790.0
32.7588653,35.0228558,478.05,-0.06125,0.01225,1.00575,-0.06,-0.5,0.0,23800.0,18010.0,-33800.0
32.7588653,35.0228558,478.05,-0.05925,0.0435,1.00825,0.56,-0.22,0.0,23820.0,17980.0,-33800.0
32.7588653,35.0228558,478.05,-0.05975,0.05925,0.9875,0.16,0.52,0.04,23830.0,18100.0,-33790.0
32.7588653,35.0228558,478.05,-0.05525,0.028,0.987,-0.44,-0.16,0.06,23810.0,18120.0,-33790.0
32.7588653,35.0228558,478.05,-0.05,0.02,1.005,-0.02,-0.5,-0.06,23770.0,18180.0,-33780.0
32.7588653,35.0228558,478.05,-0.056,0.04825,0.99925,0.44,0.32,-0.02,23700.0,18290.0,-33780.0
32.7588653,35.0228558,478.05,-0.06175,0.04875,0.9865,-0.1,0.5,-0.02,23630.0,18340.0,-33780.0
32.7588653,35.0228558,478.05,-0.0625,0.025,1.00125,-0.28,-0.3,-0.02,23610.0,18380.0,-33790.0
32.7588653,35.0228558,478.05,-0.061,0.03475,1.00925,0.1,-0.3,0.0,23600.0,18430.0,-33780.0
32.7588653,35.0228558,478.05,-0.06275,0.04925,0.98925,0.22,0.42,-0.04,23620.0,18410.0,-33780.0
32.7588653,35.0228558,478.05,-0.05625,0.02975,0.985,-0.34,0.02,0.02,23640.0,18370.0,-33780.0
32.7588653,35.0228558,478.05,-0.047,0.02275,1.00575,-0.06,-0.64,-0.02,23630.0,18430.0,-33780.0
32.7588653,35.0228558,478.05,-0.05075,0.04725,1.00375,0.36,0.08,0.04,23640.0,18490.0,-33770.0
32.7588653,35.0228558,478.05,-0.0615,0.0455,0.984,-0.12,0.74,0.0,23660.0,18410.0,-33770.0
32.7588653,35.0228558,478.05,-0.0645,0.01525,0.9925,-0.34,-0.06,-0.02,23680.0,18410.0,-33770.0
32.7588653,35.0228558,478.05,-0.0595,0.02525,1.012,0.24,-0.54,0.02,23680.0,18350.0,-33770.0
32.7588653,35.0228558,478.05,-0.05925,0.0585,1.0,0.42,0.2,0.08,23660.0,18370.0,-33770.0
32.7588653,35.0228558,478.05,-0.05675,0.0445,0.98225,-0.28,0.32,0.0,23650.0,18400.0,-33770.0
32.7588653,35.0228558,478.05,-0.05075,0.01575,0.99725,-0.38,-0.48,0.02,23670.0,18350.0,-33770.0
32.7588653,35.0228558,478.05,-0.05075,0.033,1.00575,0.38,-0.22,-0.04,23680.0,18350.0,-33770.0
32.7588653,35.0228558,478.05,-0.05825,0.055,0.99,0.26,0.62,0.0,23650.0,18350.0,-33780.0
32.7588653,35.0228558,478.05,-0.0625,0.03625,0.99125,-0.38,0.14,0.02,23660.0,18410.0,-33770.0
32.7588653,35.0228558,478.05,-0.06125,0.02525,1.00875,-0.16,-0.58,-0.02,23710.0,18560.0,-33740.0
32.7588653,35.0228558,478.05,-0.0625,0.04425,1.0015,0.26,0.12,0.08,23740.0,18610.0,-33730.0
32.7588653,35.0228558,478.05,-0.06075,0.04125,0.98325,-0.12,0.36,0.02,23770.0,18650.0,-33720.0
32.7588653,35.0228558,478.05,-0.05075,0.0215,0.9955,-0.34,-0.48,-0.04,23760.0,18580.0,-33730.0
32.7588653,35.0228558,478.05,-0.04575,0.035,1.00875,0.2,-0.44,0.0,23720.0,18540.0,-33740.0
32.7588653,35.0228558,478.05,-0.05525,0.053,0.991,0.16,0.56,-0.02,23640.0,18520.0,-33760.0
32.7588653,35.0228558,478.05,-0.06325,0.02725,0.98275,-0.42,0.4,0.0,23670.0,18450.0,-33760.0
32.7588653,35.0228558,478.05,-0.063,0.0115,1.00525,-0.12,-0.54,-0.02,23700.0,18350.0,-33760.0
32.7588653,35.0228558,478.05,-0.0615,0.045,1.00925,0.48,-0.12,0.02,23700.0,18420.0,-33760.0
32.7588653,35.0228558,478.05,-0.06125,0.0595,0.9875,0.1,0.4,-0.02,23690.0,18440.0,-33760.0
32.7588653,35.0228558,478.05,-0.0555,0.027,0.9865,-0.54,-0.12,0.0,23700.0,18490.0,-33750.0
32.7588653,35.0228558,478.05,-0.04875,0.0185,1.004,0.0,-0.58,0.04,23630.0,18460.0,-33770.0
32.7588653,35.0228558,478.05,-0.0535,0.04675,0.99825,0.38,0.22,-0.08,23670.0,18460.0,-33760.0
32.7588653,35.0228558,478.05,-0.06,0.04725,0.9875,-0.06,0.52,0.06,23660.0,18410.0,-33770.0
32.7588653,35.0228558,478.05,-0.06125,0.02475,1.00275,-0.36,-0.28,-0.04,23630.0,18490.0,-33770.0
32.7588653,35.0228558,478.05,-0.061,0.034,1.008,0.12,-0.32,0.02,23640.0,18480.0,-33770.0
32.7588653,35.0228558,478.05,-0.06275,0.04825,0.987,0.12,0.34,0.06,23650.0,18460.0,-33770.0
32.7588653,35.0228558,478.05,-0.05625,0.02925,0.98375,-0.28,0.02,-0.08,23670.0,18530.0,-33750.0
32.7588653,35.0228558,478.05,-0.048,0.02325,1.00625,-0.04,-0.6,-0.06,23670.0,18520.0,-33760.0
32.7588653,35.0228558,478.05,-0.05275,0.04875,1.00375,0.36,0.1,0.08,23680.0,18530.0,-33760.0
32.7588653,35.0228558,478.05,-0.0625,0.046,0.98425,-0.12,0.7,0.08,23680.0,18630.0,-33750.0
32.7588653,35.0228558,478.05,-0.06325,0.01525,0.9945,-0.38,-0.16,0.0,23650.0,18580.0,-33760.0
32.7588653,35.0228558,478.05,-0.056,0.025,1.0115,0.26,-0.56,0.0,23650.0,18520.0,-33760.0
32.7588653,35.0228558,478.05,-0.05625,0.059,0.997,0.44,0.26,0.04,23670.0,18510.0,-33760.0
32.7588653,35.0228558,478.05,-0.0555,0.04675,0.98125,-0.24,0.32,0.04,23620.0,18520.0,-33770.0
32.7588653,35.0228558,478.05,-0.0525,0.01675,0.9995,-0.32,-0.48,0.0,23640.0,18530.0,-33770.0
32.7588653,35.0228558,478.05,-0.054,0.03325,1.007,0.32,-0.18,0.0,23700.0,18520.0,-33760.0
32.7588653,35.0228558,478.05,-0.06225,0.05425,0.9895,0.16,0.66,0.0,23690.0,18590.0,-33760.0
32.7588653,35.0228558,478.05,-0.06325,0.03625,0.98975,-0.4,0.12,0.0,23650.0,18540.0,-33770.0
32.7588653,35.0228558,478.05,-0.0585,0.0245,1.01,-0.18,-0.58,0.06,23670.0,18510.0,-33760.0
32.7588653,35.0228558,478.05,-0.05775,0.0445,1.00125,0.3,0.14,0.02,23690.0,18540.0,-33750.0
32.7588653,35.0228558,478.05,-0.05675,0.042,0.98225,-0.1,0.38,0.02,23700.0,18470.0,-33760.0
32.7588653,35.0228558,478.05,-0.04975,0.021,0.997,-0.26,-0.46,-0.08,23730.0,18470.0,-33760.0
32.7588653,35.0228558,478.05,-0.04775,0.0345,1.00925,0.28,-0.36,-0.02,23670.0,18500.0,-33760.0
32.7588653,35.0228558,478.05,-0.05975,0.05275,0.991,0.12,0.64,0.02,23700.0,18470.0,-33760.0
32.7588653,35.0228558,478.05,-0.0675,0.02875,0.982,-0.32,0.42,0.02,23760.0,18490.0,-33750.0
32.7588653,35.0228558,478.05,-0.064,0.0125,1.00575,-0.1,-0.54,-0.04,23730.0,18580.0,-33750.0
32.7588653,35.0228558,478.05,-0.059,0.04425,1.011,0.44,-0.24,-0.02,23720.0,18590.0,-33750.0
32.7588653,35.0228558,478.05,-0.05675,0.0595,0.98875,0.12,0.4,0.04,23730.0,18490.0,-33760.0
32.7588653,35.0228558,478.05,-0.05175,0.02675,0.986,-0.5,-0.16,-0.02,23750.0,18520.0,-33760.0
32.7588653,35.0228558,478.05,-0.04875,0.018,1.00325,-0.02,-0.46,0.08,23800.0,18620.0,-33740.0
32.7588653,35.0228558,478.05,-0.057,0.047,0.999,0.42,0.34,-0.02,23800.0,18650.0,-33730.0
32.7588653,35.0228558,478.05,-0.06425,0.048,0.98775,0.0,0.52,0.0,23770.0,18610.0,-33740.0
32.7588653,35.0228558,478.05,-0.0645,0.0265,1.00225,-0.38,-0.3,-0.02,23740.0,18570.0,-33750.0
32.7588653,35.0228558,478.05,-0.061,0.03575,1.0105,0.18,-0.24,0.02,23740.0,18560.0,-33750.0
32.7588653,35.0228558,478.05,-0.06075,0.0495,0.98725,0.14,0.38,0.02,23720.0,18530.0,-33760.0
32.7588653,35.0228558,478.05,-0.05375,0.028,0.98475,-0.34,-0.04,-0.06,23680.0,18530.0,-33770.0
32.7588653,35.0228558,478.05,-0.0455,0.02575,1.0045,-0.06,-0.64,0.0,23670.0,18490.0,-33770.0
32.7588653,35.0228558,478.05,-0.05075,0.05225,1.005,0.36,0.12,0.0,23700.0,18430.0,-33770.0
32.7588653,35.0228558,478.05,-0.0605,0.04975,0.99125,-0.18,0.76,-0.06,23720.0,18450.0,-33760.0
32.7588653,35.0228558,478.05,-0.06675,0.00675,0.9785,-0.48,-0.1,0.04,23740.0,18560.0,-33750.0
32.7588653,35.0228558,478.05,-0.05875,0.0295,1.01,0.34,-0.68,-0.02,23710.0,18520.0,-33760.0
32.7588653,35.0228558,478.05,-0.05875,0.058,1.016,0.4,0.28,-0.04,23680.0,18490.0,-33770.0
32.7588653,35.0228558,478.05,-0.05725,0.04225,0.9775,-0.3,0.36,0.0,23690.0,18500.0,-33760.0
32.7588653,35.0228558,478.05,-0.05175,0.0115,0.992,-0.44,-0.64,0.02,23710.0,18530.0,-33760.0
32.7588653,35.0228558,478.05,-0.0505,0.03375,1.00675,0.46,-0.24,-0.02,23670.0,18530.0,-33760.0
32.7588653,35.0228558,478.05,-0.05675,0.04875,0.99425,0.16,0.76,0.02,23710.0,18450.0,-33770.0
32.7588653,35.0228558,478.05,-0.0635,0.02875,0.99225,-0.46,0.2,0.04,23770.0,18440.0,-33760.0
32.7588653,35.0228558,478.05,-0.062,0.0265,1.00525,0.1,-0.56,0.08,23750.0,18430.0,-33770.0
32.7588653,35.0228558,478.05,-0.06225,0.04425,1.0015,0.22,0.14,0.04,23760.0,18430.0,-33760.0
32.7588653,35.0228558,478.04,-0.05925,0.0395,0.98425,-0.16,0.32,0.0,23770.0,18550.0,-33740.0
32.7588653,35.0228558,478.04,-0.051,0.0215,0.995,-0.22,-0.44,0.0,23700.0,18530.0,-33760.0
32.7588653,35.0228558,478.04,-0.04875,0.03725,1.0045,0.26,-0.36,0.0,23710.0,18480.0,-33760.0
32.7588653,35.0228558,478.04,-0.05825,0.05125,0.99225,0.08,0.62,0.06,23720.0,18450.0,-33760.0
32.7588653,35.0228558,478.04,-0.0655,0.02825,0.98625,-0.32,0.38,0.04,23670.0,18430.0,-33770.0
32.7588653,35.0228558,478.04,-0.06175,0.01525,1.0055,0.04,-0.62,-0.02,23680.0,18420.0,-33770.0
32.7588653,35.0228558,478.04,-0.05825,0.049,1.00725,0.58,-0.08,0.02,23680.0,18380.0,-33770.0
32.7588653,35.0228558,478.04,-0.0565,0.05575,0.98725,0.02,0.38,-0.02,23680.0,18380.0,-33770.0
32.7588653,35.0228558,478.04,-0.053,0.024,0.985,-0.5,-0.16,-0.04,23700.0,18410.0,-33760.0
32.7588653,35.0228558,478.04,-0.05075,0.02275,1.00425,0.08,-0.46,0.02,23720.0,18440.0,-33760.0
32.7588653,35.0228558,478.04,-0.059,0.05125,0.999,0.36,0.52,0.02,23720.0,18470.0,-33760.0
32.7588653,35.0228558,478.04,-0.06175,0.04375,0.987,-0.18,0.4,0.0,23680.0,18410.0,-33770.0
32.7588653,35.0228558,478.04,-0.06,0.024,1.00125,-0.36,-0.46,-0.02,23700.0,18370.0,-33770.0
32.7588653,35.0228558,478.04,-0.05825,0.04025,1.008,0.24,-0.18,0.08,23700.0,18330.0,-33770.0
32.7588653,35.0228558,478.04,-0.0585,0.0465,0.98725,0.08,0.44,0.06,23670.0,18340.0,-33780.0
32.7588653,35.0228558,478.04,-0.053,0.0255,0.9865,-0.36,-0.16,-0.04,23670.0,18380.0,-33770.0
32.7588653,35.0228558,478.04,-0.04775,0.03075,1.0075,0.16,-0.52,0.0,23660.0,18410.0,-33770.0
32.7588653,35.0228558,478.04,-0.05475,0.055,1.00075,0.36,0.42,0.06,23680.0,18500.0,-33760.0
32.7588653,35.0228558,478.04,-0.0635,0.037,0.9835,-0.38,0.62,0.02,23710.0,18390.0,-33760.0
32.7588653,35.0228558,478.04,-0.0645,0.01325,0.99775,-0.26,-0.42,0.02,23690.0,18420.0,-33770.0
32.7588653,35.0228558,478.04,-0.05875,0.0375,1.0105,0.48,-0.38,0.06,23690.0,18510.0,-33750.0
32.7588653,35.0228558,478.04,-0.058,0.06125,0.9965,0.26,0.4,0.0,23730.0,18360.0,-33760.0
32.7588653,35.0228558,478.04,-0.055,0.035,0.98675,-0.54,0.1,0.02,23820.0,18080.0,-33780.0
32.7588653,35.0228558,478.04,-0.0505,0.01825,0.99925,-0.08,-0.58,0.02,23830.0,17980.0,-33800.0
32.7588653,35.0228558,478.04,-0.055,0.042,1.0005,0.42,0.1,0.0,23830.0,17900.0,-33800.0
32.7588653,35.0228558,478.04,-0.06075,0.048,0.9905,0.04,0.64,0.04,23840.0,17850.0,-33810.0
32.7588653,35.0228558,478.04,-0.0635,0.0275,0.999,-0.36,-0.12,0.0,23820.0,17880.0,-33810.0
32.7588653,35.0228558,478.04,-0.0615,0.0325,1.00775,0.06,-0.46,-0.02,23850.0,17850.0,-33800.0
32.7588653,35.0228558,478.04,-0.062,0.047,0.99225,0.18,0.34,0.06,23800.0,18040.0,-33790.0
32.7588653,35.0228558,478.04,-0.05625,0.0305,0.9845,-0.3,0.08,0.04,23720.0,18210.0,-33790.0
32.7588653,35.0228558,478.04,-0.04825,0.02175,1.0,-0.14,-0.58,-0.06,23750.0,18300.0,-33770.0
32.7588653,35.0228558,478.04,-0.0515,0.046,1.003,0.26,-0.02,0.02,23750.0,18290.0,-33770.0
32.7588653,35.0228558,478.04,-0.06175,0.04725,0.98775,-0.08,0.64,0.0,23720.0,18310.0,-33770.0
32.7588653,35.0228558,478.04,-0.06425,0.016,0.9935,-0.38,-0.08,-0.04,23660.0,18350.0,-33780.0
32.7588653,35.0228558,478.04,-0.05875,0.0225,1.0085,0.14,-0.6,0.0,23670.0,18370.0,-33780.0
32.7588653,35.0228558,478.04,-0.0565,0.056,0.99925,0.46,0.12,-0.02,23670.0,18410.0,-33770.0
32.7588653,35.0228558,478.04,-0.054,0.0465,0.9845,-0.22,0.3,0.02,23690.0,18400.0,-33770.0
32.7588653,35.0228558,478.04,-0.05175,0.017,0.99625,-0.36,-0.38,0.02,23700.0,18400.0,-33770.0
32.7588653,35.0228558,478.04,-0.054,0.03375,1.00375,0.34,-0.14,0.02,23690.0,18380.0,-33770.0
32.7588653,35.0228558,478.04,-0.06125,0.052,0.9915,0.22,0.62,0.02,23710.0,18450.0,-33760.0
32.7588653,35.0228558,478.04,-0.062,0.034,0.9935,-0.34,0.02,-0.04,23740.0,18560.0,-33750.0
32.7588653,35.0228558,478.04,-0.059,0.027,1.0085,-0.08,-0.44,0.0,23750.0,18650.0,-33730.0
32.7588653,35.0228558,478.04,-0.05875,0.04625,1.0,0.3,0.12,0.08,23720.0,18710.0,-33730.0
32.7588653,35.0228558,478.04,-0.05725,0.04,0.98425,-0.18,0.32,0.04,23720.0,18650.0,-33740.0
32.7588653,35.0228558,478.04,-0.05,0.02125,0.99775,-0.26,-0.46,0.0,23750.0,18560.0,-33740.0
32.7588653,35.0228558,478.04,-0.049,0.039,1.008,0.32,-0.28,0.02,23720.0,18540.0,-33760.0
32.7588653,35.0228558,478.04,-0.05975,0.05325,0.99125,0.1,0.58,0.04,23690.0,18540.0,-33760.0
32.7588653,35.0228558,478.04,-0.0655,0.02475,0.98525,-0.34,0.3,0.0,23670.0,18560.0,-33760.0
32.7588653,35.0228558,478.04,-0.06275,0.01475,1.0065,-0.04,-0.5,-0.04,23640.0,18570.0,-33770.0
32.7588653,35.0228558,478.04,-0.05925,0.0485,1.0085,0.44,-0.12,0.02,23700.0,18590.0,-33760.0
32.7588653,35.0228558,478.04,-0.05675,0.055,0.988,0.0,0.32,0.04,23740.0,18610.0,-33750.0
32.7588653,35.0228558,478.04,-0.05225,0.0225,0.98875,-0.54,-0.28,-0.04,23680.0,18570.0,-33760.0
32.7588653,35.0228558,478.04,-0.0505,0.023,1.00275,0.04,-0.46,-0.02,23680.0,18540.0,-33760.0
32.7588653,35.0228558,478.04,-0.05875,0.04775,0.99475,0.4,0.5,0.04,23700.0,18460.0,-33760.0
32.7588653,35.0228558,478.04,-0.0635,0.0405,0.98825,-0.16,0.44,0.06,23690.0,18470.0,-33770.0
32.7588653,35.0228558,478.04,-0.0625,0.025,1.005,-0.22,-0.46,0.0,23700.0,18440.0,-33770.0
32.7588653,35.0228558,478.04,-0.061,0.04075,1.007,0.2,-0.16,0.06,23720.0,18450.0,-33760.0
32.7588653,35.0228558,478.04,-0.06025,0.0455,0.9855,0.04,0.4,0.04,23730.0,18550.0,-33750.0
32.7588653,35.0228558,478.04,-0.05325,0.0225,0.987,-0.3,-0.22,-0.02,23750.0,18570.0,-33750.0
32.7588653,35.0228558,478.04,-0.04625,0.0295,1.00525,0.14,-0.54,-0.02,23760.0,18610.0,-33750.0
32.7588653,35.0228558,478.05,-0.05375,0.05475,0.9995,0.32,0.36,0.04,23760.0,18690.0,-33740.0
32.7588653,35.0228558,478.05,-0.06275,0.03825,0.9855,-0.34,0.62,0.04,23740.0,18620.0,-33740.0
32.7588653,35.0228558,478.05,-0.06325,0.0125,0.9995,-0.18,-0.34,0.0,23750.0,18530.0,-33750.0
32.7588653,35.0228558,478.05,-0.05825,0.03525,1.01,0.48,-0.36,-0.08,23780.0,18530.0,-33750.0
32.7588653,35.0228558,478.05,-0.05725,0.0605,0.993,0.3,0.4,-0.04,23710.0,18540.0,-33760.0
32.7588653,35.0228558,478.05,-0.05375,0.03675,0.98625,-0.46,0.06,0.02,23680.0,18540.0,-33760.0
32.7588653,35.0228558,478.05,-0.05075,0.02025,1.00125,-0.16,-0.52,0.0,23690.0,18530.0,-33760.0
32.7588653,35.0228558,478.05,-0.056,0.04325,1.0005,0.38,0.22,0.0,23690.0,18540.0,-33760.0
32.7588653,35.0228558,478.05,-0.0615,0.0475,0.98875,0.04,0.62,0.0,23710.0,18490.0,-33760.0
32.7588653,35.0228558,478.05,-0.0615,0.027,0.99925,-0.32,-0.14,0.0,23740.0,18460.0,-33760.0
32.7588653,35.0228558,478.05,-0.05825,0.03375,1.0095,0.08,-0.42,-0.06,23730.0,18580.0,-33750.0
32.7588653,35.0228558,478.05,-0.05975,0.0495,0.99225,0.18,0.34,0.04,23700.0,18510.0,-33760.0
32.7588653,35.0228558,478.05,-0.05575,0.03075,0.98375,-0.3,0.1,0.04,23710.0,18500.0,-33760.0
32.7588653,35.0228558,478.05,-0.04875,0.02,1.00275,-0.1,-0.6,-0.02,23670.0,18520.0,-33770.0
32.7588653,35.0228558,478.05,-0.05225,0.0465,1.004,0.32,0.0,0.04,23700.0,18510.0,-33770.0
32.7588653,35.0228558,478.05,-0.0625,0.04875,0.9855,-0.08,0.68,0.06,23740.0,18490.0,-33760.0
32.7588653,35.0228558,478.05,-0.066,0.01775,0.991,-0.42,0.0,0.0,23740.0,18480.0,-33750.0
32.7588653,35.0228558,478.05,-0.0605,0.02125,1.0095,0.16,-0.54,-0.02,23770.0,18410.0,-33750.0
32.7588653,35.0228558,478.05,-0.05875,0.0545,1.001,0.48,0.2,0.0,23790.0,18390.0,-33750.0
32.7588653,35.0228558,478.05,-0.0555,0.04675,0.98475,-0.26,0.28,0.04,23810.0,18530.0,-33740.0
32.7588653,35.0228558,478.05,-0.05025,0.0175,0.995,-0.44,-0.46,0.0,23800.0,18650.0,-33730.0
32.7588653,35.0228558,478.05,-0.05175,0.03275,1.00325,0.34,-0.18,0.04,23810.0,18690.0,-33720.0
32.7588653,35.0228558,478.05,-0.06075,0.05125,0.98975,0.22,0.56,0.02,23790.0,18710.0,-33720.0
32.7588653,35.0228558,478.05,-0.064,0.03275,0.9905,-0.38,0.1,-0.04,23810.0,18710.0,-33720.0
32.7588653,35.0228558,478.05,-0.06175,0.02575,1.00925,-0.06,-0.52,-0.02,23810.0,18720.0,-33710.0
32.7588653,35.0228558,478.05,-0.0605,0.047,1.002,0.26,0.14,0.02,23800.0,18750.0,-33710.0
32.7588653,35.0228558,478.05,-0.05825,0.042,0.983,-0.12,0.36,-0.02,23820.0,18740.0,-33710.0
32.7588653,35.0228558,478.05,-0.04925,0.01975,0.99425,-0.28,-0.46,0.02,23840.0,18710.0,-33700.0
32.7588653,35.0228558,478.05,-0.04575,0.0355,1.0075,0.28,-0.36,-0.04,23830.0,18710.0,-33710.0
32.7588653,35.0228558,478.05,-0.0565,0.0545,0.99275,0.2,0.62,0.0,23760.0,18760.0,-33720.0
32.7588653,35.0228558,478.05,-0.0645,0.02925,0.98675,-0.38,0.36,-0.08,23720.0,18770.0,-33720.0
32.7588653,35.0228558,478.05,-0.06225,0.014,1.0065,-0.02,-0.48,-0.04,23720.0,18700.0,-33720.0
32.7588653,35.0228558,478.05,-0.05875,0.045,1.00775,0.48,-0.22,0.04,23720.0,18680.0,-33730.0
32.7588653,35.0228558,478.05,-0.0575,0.057,0.98775,0.08,0.4,0.02,23760.0,18670.0,-33730.0
32.7588653,35.0228558,478.05,-0.05275,0.0255,0.9885,-0.42,-0.18,0.0,23780.0,18700.0,-33720.0
32.7588653,35.0228558,478.05,-0.05,0.0225,1.0045,0.02,-0.46,-0.04,23740.0,18720.0,-33730.0
32.7588653,35.0228558,478.05,-0.0575,0.04925,0.9965,0.34,0.38,0.06,23790.0,18660.0,-33720.0
32.7588653,35.0228558,478.05,-0.063,0.04425,0.98775,-0.14,0.54,0.04,23830.0,18610.0,-33720.0
32.7588653,35.0228558,478.05,-0.06175,0.024,1.0055,-0.26,-0.34,-0.02,23780.0,18640.0,-33720.0
32.7588653,35.0228558,478.05,-0.05875,0.03775,1.0075,0.2,-0.32,0.12,23720.0,18550.0,-33740.0
32.7588653,35.0228558,478.05,-0.06025,0.04925,0.986,0.06,0.42,0.04,23770.0,18560.0,-33730.0
32.7588653,35.0228558,478.05,-0.05475,0.02675,0.9865,-0.32,-0.02,0.02,23760.0,18530.0,-33730.0
32.7588653,35.0228558,478.05,-0.0475,0.02525,1.007,0.02,-0.58,0.0,23750.0,18460.0,-33740.0
32.7588653,35.0228558,478.05,-0.054,0.0515,1.001,0.32,0.22,0.08,23750.0,18390.0,-33750.0
32.7588653,35.0228558,478.05,-0.0645,0.044,0.98325,-0.12,0.66,0.02,23690.0,18350.0,-33770.0
32.7588653,35.0228558,478.05,-0.065,0.014,0.99625,-0.42,-0.24,0.02,23700.0,18310.0,-33770.0
32.7588653,35.0228558,478.05,-0.0585,0.02825,1.012,0.32,-0.52,-0.04,23710.0,18270.0,-33770.0
32.7588653,35.0228558,478.05,-0.05825,0.05975,0.995,0.3,0.28,0.08,23690.0,18330.0,-33770.0
32.7588653,35.0228558,478.05,-0.05525,0.04125,0.9835,-0.4,0.22,-0.02,23680.0,18390.0,-33770.0
32.7588653,35.0228558,478.05,-0.05,0.016,1.00125,-0.34,-0.58,-0.02,23720.0,18420.0,-33760.0
32.7588653,35.0228558,478.05,-0.053,0.036,1.003,0.36,-0.02,0.02,23760.0,18450.0,-33750.0
32.7588653,35.0228558,478.05,-0.062,0.05275,0.98725,0.16,0.68,0.06,23770.0,18430.0,-33750.0
32.7588653,35.0228558,478.05,-0.06375,0.03175,0.99425,-0.34,0.0,0.0,23730.0,18420.0,-33760.0
32.7588653,35.0228558,478.05,-0.05925,0.0255,1.01225,-0.12,-0.56,-0.02,23700.0,18400.0,-33770.0
32.7588653,35.0228558,478.05,-0.05975,0.04625,0.99875,0.18,0.24,0.06,23680.0,18380.0,-33770.0
32.7588653,35.0228558,478.05,-0.0575,0.03875,0.9805,-0.16,0.34,-0.02,23670.0,18360.0,-33780.0
32.7588653,35.0228558,478.05,-0.04825,0.01875,0.99875,-0.28,-0.52,0.04,23670.0,18400.0,-33770.0
32.7588653,35.0228558,478.05,-0.0465,0.03625,1.009,0.24,-0.24,0.0,23670.0,18520.0,-33760.0
32.7588653,35.0228558,478.05,-0.05875,0.05325,0.988,0.14,0.66,0.04,23680.0,18470.0,-33770.0
32.7588653,35.0228558,478.05,-0.06625,0.026,0.9855,-0.38,0.28,0.08,23720.0,18500.0,-33760.0
32.7588653,35.0228558,478.05,-0.0615,0.01225,1.009,-0.02,-0.6,0.0,23730.0,18640.0,-33750.0
32.7588653,35.0228558,478.05,-0.05775,0.0455,1.008,0.56,-0.1,0.0,23740.0,18580.0,-33750.0
32.7588653,35.0228558,478.05,-0.058,0.05775,0.98425,0.06,0.42,0.04,23730.0,18560.0,-33750.0
32.7588653,35.0228558,478.05,-0.053,0.02475,0.98825,-0.48,-0.16,0.0,23730.0,18520.0,-33760.0
32.7588653,35.0228558,478.05,-0.0485,0.0185,1.0065,0.06,-0.44,-0.02,23750.0,18450.0,-33760.0
32.7588653,35.0228558,478.05,-0.0575,0.04875,0.99625,0.48,0.46,0.0,23730.0,18430.0,-33770.0
32.7588653,35.0228558,478.05,-0.063,0.04825,0.985,-0.02,0.52,0.08,23690.0,18480.0,-33770.0
32.7588653,35.0228558,478.05,-0.062,0.02475,1.00475,-0.36,-0.38,-0.04,23670.0,18500.0,-33770.0
32.7588653,35.0228558,478.05,-0.05925,0.03425,1.01025,0.14,-0.28,0.0,23750.0,18260.0,-33790.0
32.7588653,35.0228558,478.05,-0.062,0.04825,0.9855,0.2,0.5,0.04,23830.0,18110.0,-33790.0
32.7588653,35.0228558,478.05,-0.05575,0.02925,0.9835,-0.32,0.0,-0.02,23900.0,18010.0,-33790.0
32.7588653,35.0228558,478.05,-0.0465,0.024,1.00775,-0.02,-0.66,-0.06,23910.0,17970.0,-33790.0
32.7588653,35.0228558,478.05,-0.05125,0.0505,1.00275,0.28,0.18,0.04,23860.0,17950.0,-33800.0
32.7588653,35.0228558,478.05,-0.06275,0.0455,0.98125,-0.14,0.78,0.0,23840.0,17960.0,-33810.0
32.7588653,35.0228558,478.05,-0.0645,0.01475,0.99325,-0.4,-0.22,0.0,23890.0,18020.0,-33790.0
32.7588653,35.0228558,478.05,-0.05775,0.02425,1.014,0.24,-0.54,0.0,23860.0,18210.0,-33770.0
32.7588653,35.0228558,478.05,-0.0585,0.0605,0.998,0.5,0.34,-0.02,23800.0,18360.0,-33770.0
32.7588653,35.0228558,478.05,-0.05675,0.04725,0.98,-0.28,0.26,0.02,23770.0,18430.0,-33770.0
32.7588653,35.0228558,478.05,-0.051,0.01575,0.9975,-0.36,-0.58,0.02,23750.0,18490.0,-33770.0
32.7588653,35.0228558,478.05,-0.051,0.032,1.00675,0.28,-0.16,0.06,23730.0,18530.0,-33760.0
32.7588653,35.0228558,478.05,-0.06,0.054,0.98925,0.26,0.66,0.0,23820.0,18650.0,-33740.0
32.7588653,35.0228558,478.05,-0.06275,0.0375,0.99125,-0.26,0.04,0.04,23830.0,18720.0,-33730.0
32.7588653,35.0228558,478.05,-0.0595,0.02525,1.01125,-0.16,-0.56,0.0,23830.0,18740.0,-33720.0
32.7588653,35.0228558,478.05,-0.0595,0.0445,1.00175,0.2,0.08,0.02,23820.0,18640.0,-33730.0
32.7588653,35.0228558,478.05,-0.059,0.04175,0.9805,-0.08,0.36,-0.06,23850.0,18590.0,-33730.0
32.7588653,35.0228558,478.05,-0.051,0.02125,0.995,-0.26,-0.42,0.02,23800.0,18600.0,-33740.0
32.7588653,35.0228558,478.05,-0.047,0.03425,1.011,0.24,-0.36,0.0,23760.0,18540.0,-33750.0
32.7588653,35.0228558,478.05,-0.05875,0.05425,0.99225,0.2,0.64,-0.02,23760.0,18490.0,-33760.0
32.7588653,35.0228558,478.05,-0.0655,0.031,0.9825,-0.4,0.42,0.06,23770.0,18520.0,-33760.0
32.7588653,35.0228558,478.05,-0.0615,0.01125,1.0055,-0.14,-0.62,-0.04,23800.0,18460.0,-33750.0
32.7588653,35.0228558,478.05,-0.05725,0.04275,1.01025,0.46,-0.18,0.06,23800.0,18530.0,-33750.0
32.7588653,35.0228558,478.05,-0.05875,0.06,0.987,0.1,0.42,0.02,23730.0,18500.0,-33760.0
32.7588653,35.0228558,478.05,-0.0545,0.02825,0.98625,-0.46,-0.12,0.0,23730.0,18510.0,-33760.0
32.7588653,35.0228558,478.05,-0.0495,0.0175,1.006,-0.08,-0.58,-0.02,23750.0,18520.0,-33750.0
32.7588653,35.0228558,478.05,-0.05525,0.046,0.99975,0.34,0.4,0.04,23720.0,18530.0,-33750.0
32.7588653,35.0228558,478.05,-0.06225,0.04875,0.98475,-0.06,0.6,0.02,23690.0,18490.0,-33760.0
32.7588653,35.0228558,478.05,-0.06225,0.02525,1.00075,-0.32,-0.32,-0.06,23700.0,18440.0,-33760.0
32.7588653,35.0228558,478.05,-0.05975,0.03225,1.0105,0.12,-0.4,0.0,23710.0,18490.0,-33760.0
32.7588653,35.0228558,478.05,-0.06225,0.0485,0.98925,0.16,0.44,-0.02,23740.0,18550.0,-33750.0
32.7588653,35.0228558,478.05,-0.0565,0.0305,0.984,-0.32,0.0,0.0,23760.0,18540.0,-33740.0
32.7588653,35.0228558,478.04,-0.047,0.02225,1.0055,-0.1,-0.62,-0.1,23750.0,18660.0,-33740.0
32.7588653,35.0228558,478.04,-0.05075,0.04675,1.00425,0.22,0.1,0.02,23670.0,18670.0,-33750.0
32.7588653,35.0228558,478.04,-0.062,0.04675,0.98325,-0.08,0.76,0.06,23640.0,18590.0,-33760.0
32.7588653,35.0228558,478.04,-0.06425,0.01625,0.99275,-0.34,-0.12,-0.02,23670.0,18510.0,-33760.0
32.7588653,35.0228558,478.04,-0.05725,0.0235,1.01475,0.2,-0.7,-0.04,23620.0,18470.0,-33770.0
32.7588653,35.0228558,478.04,-0.0575,0.0575,1.0015,0.4,0.32,0.04,23630.0,18440.0,-33770.0
32.7588653,35.0228558,478.04,-0.0565,0.04625,0.98075,-0.3,0.36,0.04,23690.0,18380.0,-33760.0
32.7588653,35.0228558,478.04,-0.051,0.0155,0.996,-0.34,-0.48,-0.1,23690.0,18380.0,-33760.0
32.7588653,35.0228558,478.04,-0.05025,0.03025,1.008,0.36,-0.24,0.06,23710.0,18360.0,-33760.0
32.7588653,35.0228558,478.04,-0.05975,0.05375,0.99075,0.32,0.66,0.06,23720.0,18380.0,-33760.0
32.7588653,35.0228558,478.04,-0.0635,0.0375,0.99,-0.24,0.18,0.04,23710.0,18430.0,-33760.0
32.7588653,35.0228558,478.04,-0.06025,0.0235,1.0095,-0.12,-0.64,-0.02,23690.0,18380.0,-33760.0
32.7588653,35.0228558,478.04,-0.06075,0.04275,1.00275,0.26,0.08,0.0,23690.0,18350.0,-33770.0
32.7588653,35.0228558,478.04,-0.05975,0.04275,0.98075,0.0,0.46,0.0,23670.0,18380.0,-33770.0
32.7588653,35.0228558,478.04,-0.0515,0.02275,0.99325,-0.22,-0.46,-0.04,23670.0,18350.0,-33770.0
32.7588653,35.0228558,478.04,-0.0465,0.03425,1.01025,0.14,-0.5,0.04,23730.0,18390.0,-33760.0
32.7588653,35.0228558,478.04,-0.05675,0.05425,0.9925,0.18,0.58,0.06,23750.0,18420.0,-33750.0
32.7588653,35.0228558,478.04,-0.0655,0.03175,0.9815,-0.36,0.48,0.04,23750.0,18380.0,-33750.0
32.7588653,35.0228558,478.04,-0.0625,0.01275,1.00425,-0.2,-0.52,-0.02,23720.0,18370.0,-33760.0
32.7588653,35.0228558,478.04,-0.05875,0.0435,1.0105,0.46,-0.22,0.06,23730.0,18450.0,-33760.0
32.7588653,35.0228558,478.05,-0.05925,0.06075,0.98725,0.2,0.54,0.02,23760.0,18540.0,-33740.0
32.7588653,35.0228558,478.05,-0.0545,0.03025,0.9845,-0.5,-0.1,0.08,23750.0,18520.0,-33740.0
32.7588653,35.0228558,478.05,-0.0485,0.01825,1.0055,-0.1,-0.62,-0.06,23710.0,18490.0,-33750.0
32.7588653,35.0228558,478.05,-0.0545,0.04625,1.0015,0.36,0.3,0.0,23670.0,18450.0,-33760.0
32.7588653,35.0228558,478.05,-0.06175,0.04825,0.98625,-0.1,0.62,0.08,23690.0,18370.0,-33760.0
32.7588653,35.0228558,478.05,-0.06225,0.02525,1.0,-0.32,-0.32,-0.04,23710.0,18360.0,-33760.0
32.7588653,35.0228558,478.05,-0.0595,0.03375,1.01025,0.06,-0.4,0.0,23720.0,18350.0,-33760.0
32.7588653,35.0228558,478.05,-0.06075,0.0485,0.98975,0.18,0.4,-0.02,23700.0,18340.0,-33770.0
32.7588653,35.0228558,478.05,-0.05575,0.03025,0.98275,-0.3,0.06,0.0,23700.0,18390.0,-33770.0
32.7588653,35.0228558,478.05,-0.04775,0.02225,1.0045,0.02,-0.68,0.02,23710.0,18420.0,-33760.0
32.7588653,35.0228558,478.05,-0.05275,0.04675,1.00525,0.28,0.12,0.06,23780.0,18520.0,-33740.0
32.7588653,35.0228558,478.05,-0.063,0.04575,0.9845,-0.06,0.74,0.0,23750.0,18480.0,-33750.0
32.7588653,35.0228558,478.05,-0.064,0.01625,0.99225,-0.4,-0.18,0.02,23700.0,18430.0,-33760.0
32.7588653,35.0228558,478.05,-0.05625,0.0245,1.01225,0.18,-0.54,-0.02,23720.0,18430.0,-33770.0
32.7588653,35.0228558,478.05,-0.0555,0.05725,0.9995,0.38,0.24,0.02,23700.0,18410.0,-33770.0
32.7588653,35.0228558,478.05,-0.05475,0.04475,0.98225,-0.28,0.34,0.0,23700.0,18510.0,-33760.0
32.7588653,35.0228558,478.05,-0.0515,0.016,0.99675,-0.36,-0.52,0.02,23740.0,18490.0,-33760.0
32.7588653,35.0228558,478.05,-0.05325,0.03325,1.00575,0.24,-0.1,0.04,23790.0,18450.0,-33750.0
32.7588653,35.0228558,478.05,-0.0615,0.0535,0.99025,0.2,0.72,0.06,23720.0,18470.0,-33770.0
32.7588653,35.0228558,478.04,-0.06375,0.03475,0.98975,-0.42,0.08,0.0,23720.0,18490.0,-33760.0
32.7588653,35.0228558,478.04,-0.05975,0.025,1.00825,-0.14,-0.6,0.04,23770.0,18590.0,-33740.0
32.7588653,35.0228558,478.04,-0.0595,0.045,1.0015,0.3,0.12,0.06,23760.0,18540.0,-33750.0
32.7588653,35.0228558,478.04,-0.05775,0.04125,0.98275,-0.08,0.38,0.02,23730.0,18530.0,-33760.0
32.7588653,35.0228558,478.04,-0.04975,0.02175,0.99575,-0.22,-0.48,0.02,23710.0,18530.0,-33760.0
32.7588653,35.0228558,478.04,-0.04725,0.03625,1.00875,0.26,-0.36,0.04,23670.0,18510.0,-33770.0
32.7588653,35.0228558,478.04,-0.05875,0.05275,0.991,0.16,0.66,0.12,23710.0,18480.0,-33770.0
32.7588653,35.0228558,478.04,-0.066,0.02675,0.98375,-0.38,0.36,-0.02,23730.0,18430.0,-33770.0
32.7588653,35.0228558,478.04,-0.06175,0.01375,1.00725,-0.02,-0.52,-0.04,23740.0,18480.0,-33770.0
32.7588653,35.0228558,478.04,-0.05825,0.0475,1.0095,0.5,-0.16,0.0,23680.0,18530.0,-33770.0
32.7588653,35.0228558,478.04,-0.05675,0.05825,0.98625,0.0,0.44,0.02,23730.0,18530.0,-33760.0
32.7588653,35.0228558,478.04,-0.05275,0.025,0.98725,-0.5,-0.3,-0.02,23800.0,18550.0,-33750.0
32.7588653,35.0228558,478.04,-0.05,0.0205,1.0055,0.04,-0.5,0.0,23830.0,18490.0,-33750.0
32.7588653,35.0228558,478.04,-0.05875,0.048,0.99825,0.44,0.46,0.06,23820.0,18450.0,-33760.0
32.7588653,35.0228558,478.04,-0.064,0.045,0.9885,-0.1,0.58,-0.02,23800.0,18460.0,-33760.0
32.7588653,35.0228558,478.04,-0.06125,0.02625,1.005,-0.28,-0.48,0.0,23780.0,18470.0,-33760.0
32.7588653,35.0228558,478.04,-0.0575,0.0375,1.009,0.16,-0.3,-0.04,23780.0,18530.0,-33760.0
32.7588653,35.0228558,478.04,-0.05875,0.0465,0.987,0.08,0.46,0.04,23790.0,18550.0,-33760.0
32.7588653,35.0228558,478.04,-0.05375,0.0255,0.98575,-0.32,-0.06,-0.04,23750.0,18610.0,-33750.0
32.7588653,35.0228558,478.04,-0.048,0.0265,1.00775,0.02,-0.62,-0.04,23740.0,18540.0,-33760.0
32.7588653,35.0228558,478.04,-0.0555,0.05225,1.0025,0.24,0.32,0.04,23780.0,18500.0,-33760.0
32.7588653,35.0228558,478.04,-0.0645,0.04125,0.98225,-0.22,0.62,-0.02,23810.0,18600.0,-33740.0
32.7588653,35.0228558,478.04,-0.06375,0.0125,0.99475,-0.36,-0.42,-0.06,23800.0,18550.0,-33740.0
32.7588653,35.0228558,478.04,-0.0565,0.0295,1.011,0.32,-0.52,-0.02,23750.0,18520.0,-33760.0
32.7588653,35.0228558,478.04,-0.056,0.05975,0.99625,0.3,0.42,0.06,23740.0,18490.0,-33760.0
32.7588653,35.0228558,478.04,-0.05425,0.0405,0.98425,-0.32,0.18,0.06,23780.0,18410.0,-33760.0
32.7588653,35.0228558,478.04,-0.05025,0.01725,1.0,-0.26,-0.62,0.02,23770.0,18430.0,-33760.0
32.7588653,35.0228558,478.04,-0.05325,0.0375,1.003,0.34,0.06,-0.02,23740.0,18490.0,-33760.0
32.7588653,35.0228558,478.04,-0.061,0.05025,0.9875,0.1,0.7,0.04,23750.0,18490.0,-33760.0
32.7588653,35.0228558,478.04,-0.06275,0.029,0.99375,-0.34,-0.06,-0.06,23770.0,18510.0,-33750.0
32.7588653,35.0228558,478.04,-0.0595,0.02875,1.01025,0.06,-0.52,-0.02,23780.0,18490.0,-33750.0
32.7588653,35.0228558,478.04,-0.06075,0.04875,0.9985,0.22,0.28,0.12,23820.0,18500.0,-33740.0
32.7588653,35.0228558,478.04,-0.05725,0.036,0.98275,-0.28,0.24,-0.02,23790.0,18430.0,-33750.0
32.7588653,35.0228558,478.04,-0.04875,0.019,0.998,-0.34,-0.58,-0.02,23720.0,18420.0,-33770.0
32.7588653,35.0228558,478.04,-0.04875,0.04,1.00725,0.36,-0.14,0.02,23690.0,18430.0,-33770.0
32.7588653,35.0228558,478.04,-0.06075,0.05025,0.9875,0.16,0.78,-0.02,23770.0,18310.0,-33770.0
32.7588653,35.0228558,478.04,-0.066,0.02175,0.98725,-0.48,0.18,-0.02,23840.0,18150.0,-33780.0
32.7588653,35.0228558,478.04,-0.061,0.01875,1.01075,0.14,-0.6,-0.08,23850.0,18050.0,-33790.0
32.7588653,35.0228558,478.04,-0.0585,0.0525,1.00575,0.5,0.06,-0.04,23860.0,17980.0,-33800.0
32.7588653,35.0228558,478.04,-0.057,0.05075,0.9835,-0.1,0.38,0.02,23860.0,17940.0,-33800.0
32.7588653,35.0228558,478.04,-0.05225,0.01875,0.9905,-0.4,-0.34,-0.04,23870.0,18000.0,-33800.0
32.7588653,35.0228558,478.05,-0.04975,0.02725,1.0045,0.18,-0.34,0.04,23930.0,18090.0,-33770.0
32.7588653,35.0228558,478.05,-0.05825,0.05375,0.99475,0.26,0.6,0.0,23880.0,18320.0,-33750.0
32.7588653,35.0228558,478.05,-0.06225,0.04,0.98975,-0.26,0.34,0.0,23800.0,18460.0,-33740.0
32.7588653,35.0228558,478.05,-0.06075,0.02275,1.00575,-0.2,-0.48,0.04,23800.0,18420.0,-33750.0
32.7588653,35.0228558,478.05,-0.06075,0.041,1.0045,0.28,-0.08,0.0,23820.0,18400.0,-33750.0
32.7588653,35.0228558,478.05,-0.0605,0.04575,0.984,-0.02,0.44,-0.02,23760.0,18410.0,-33760.0
32.7588653,35.0228558,478.05,-0.053,0.0245,0.99025,-0.36,-0.32,0.02,23740.0,18440.0,-33750.0
32.7588653,35.0228558,478.05,-0.04625,0.03225,1.00825,0.1,-0.54,0.0,23720.0,18400.0,-33760.0
32.7588653,35.0228558,478.05,-0.05475,0.0525,0.997,0.2,0.52,0.02,23700.0,18390.0,-33770.0
32.7588653,35.0228558,478.05,-0.06275,0.032,0.983,-0.26,0.52,0.0,23760.0,18360.0,-33760.0
32.7588653,35.0228558,478.05,-0.0615,0.01175,1.00125,-0.16,-0.5,0.04,23760.0,18430.0,-33750.0
32.7588653,35.0228558,478.05,-0.058,0.042,1.0105,0.52,-0.24,0.04,23680.0,18390.0,-33770.0
32.7588653,35.0228558,478.05,-0.05825,0.0625,0.9895,0.12,0.44,0.0,23730.0,18360.0,-33760.0
32.7588653,35.0228558,478.05,-0.05525,0.033,0.98325,-0.5,-0.02,-0.06,23780.0,18300.0,-33760.0
32.7588653,35.0228558,478.05,-0.05075,0.01925,1.0015,-0.02,-0.56,0.02,23750.0,18330.0,-33770.0
32.7588653,35.0228558,478.05,-0.056,0.04625,1.00025,0.42,0.28,0.0,23710.0,18330.0,-33770.0
32.7588653,35.0228558,478.05,-0.062,0.04925,0.988,-0.08,0.58,0.04,23720.0,18350.0,-33770.0
32.7588653,35.0228558,478.05,-0.06125,0.02825,1.0005,-0.4,-0.28,0.0,23730.0,18450.0,-33760.0
32.7588653,35.0228558,478.05,-0.05725,0.03425,1.00875,0.08,-0.38,0.02,23730.0,18420.0,-33760.0
32.7588653,35.0228558,478.05,-0.0585,0.04675,0.99075,0.12,0.42,0.02,23760.0,18450.0,-33750.0
32.7588653,35.0228558,478.05,-0.055,0.02825,0.98425,-0.38,0.08,0.02,23740.0,18520.0,-33740.0
32.7588653,35.0228558,478.05,-0.048,0.02275,1.00425,-0.06,-0.52,-0.06,23700.0,18500.0,-33750.0
32.7588653,35.0228558,478.05,-0.053,0.04875,1.00525,0.3,0.06,0.0,23670.0,18410.0,-33770.0
32.7588653,35.0228558,478.05,-0.06425,0.046,0.98675,-0.12,0.74,0.04,23740.0,18380.0,-33760.0
32.7588653,35.0228558,478.05,-0.06475,0.01475,0.993,-0.4,-0.16,0.02,23700.0,18410.0,-33770.0
32.7588653,35.0228558,478.05,-0.057,0.02425,1.00975,0.16,-0.56,0.08,23690.0,18410.0,-33770.0
32.7588653,35.0228558,478.05,-0.05575,0.0575,0.99975,0.4,0.3,-0.02,23750.0,18370.0,-33760.0
32.7588653,35.0228558,478.05,-0.0545,0.046,0.9845,-0.24,0.32,0.04,23770.0,18380.0,-33760.0
32.7588653,35.0228558,478.05,-0.05225,0.0175,0.9975,-0.32,-0.48,-0.02,23780.0,18370.0,-33760.0
32.7588653,35.0228558,478.05,-0.05475,0.03325,1.00375,0.26,-0.1,0.0,23770.0,18390.0,-33760.0
32.7588653,35.0228558,478.05,-0.063,0.05025,0.98925,0.26,0.66,0.08,23760.0,18460.0,-33750.0
32.7588653,35.0228558,478.05,-0.06425,0.033,0.992,-0.34,0.12,0.0,23740.0,18410.0,-33760.0
32.7588653,35.0228558,478.05,-0.059,0.027,1.00925,-0.1,-0.5,-0.04,23720.0,18390.0,-33770.0
32.7588653,35.0228558,478.05,-0.0585,0.0455,0.99925,0.2,0.18,0.04,23670.0,18410.0,-33780.0
32.7588653,35.0228558,478.05,-0.05725,0.0385,0.98225,-0.16,0.36,0.0,23680.0,18410.0,-33770.0
32.7588653,35.0228558,478.05,-0.0505,0.0185,0.9965,-0.22,-0.5,0.0,23720.0,18440.0,-33770.0
32.7588653,35.0228558,478.05,-0.04925,0.0365,1.00725,0.28,-0.32,-0.06,23690.0,18520.0,-33760.0
32.7588653,35.0228558,478.05,-0.061,0.05275,0.991,0.14,0.72,0.02,23710.0,18460.0,-33760.0
32.7588653,35.0228558,478.05,-0.06675,0.02575,0.9865,-0.3,0.3,0.04,23740.0,18450.0,-33760.0
32.7588653,35.0228558,478.05,-0.06025,0.01425,1.0075,-0.08,-0.6,0.02,23740.0,18500.0,-33760.0
32.7588653,35.0228558,478.05,-0.05575,0.0465,1.008,0.48,-0.14,0.0,23780.0,18600.0,-33740.0
32.7588653,35.0228558,478.05,-0.05475,0.05675,0.987,0.02,0.42,0.06,23780.0,18550.0,-33750.0
32.7588653,35.0228558,478.05,-0.05225,0.02675,0.9895,-0.46,-0.18,0.0,23750.0,18530.0,-33760.0
32.7588653,35.0228558,478.05,-0.0515,0.02275,1.005,0.0,-0.36,-0.02,23710.0,18540.0,-33770.0
32.7588653,35.0228558,478.05,-0.06075,0.04875,0.99625,0.36,0.5,0.02,23740.0,18470.0,-33770.0
32.7588653,35.0228558,478.05,-0.064,0.04475,0.988,-0.14,0.44,0.04,23780.0,18430.0,-33770.0
32.7588653,35.0228558,478.05,-0.06075,0.02575,1.00525,-0.36,-0.5,0.04,23780.0,18400.0,-33770.0
32.7588653,35.0228558,478.05,-0.05675,0.0385,1.008,0.16,-0.24,-0.02,23750.0,18420.0,-33770.0
32.7588653,35.0228558,478.05,-0.05875,0.047,0.986,0.06,0.48,0.06,23730.0,18450.0,-33770.0
32.7588653,35.0228558,478.05,-0.05375,0.02475,0.9875,-0.34,-0.14,0.0,23750.0,18500.0,-33760.0
32.7588653,35.0228558,478.05,-0.04775,0.02575,1.0075,0.18,-0.6,0.02,23810.0,18580.0,-33740.0
32.7588653,35.0228558,478.05,-0.05475,0.052,1.00075,0.3,0.34,0.06,23780.0,18530.0,-33750.0
32.7588653,35.0228558,478.05,-0.064,0.04075,0.98225,-0.22,0.64,-0.08,23750.0,18470.0,-33760.0
32.7588653,35.0228558,478.05,-0.0635,0.01225,0.99675,-0.34,-0.34,0.02,23760.0,18490.0,-33760.0
32.7588653,35.0228558,478.05,-0.0565,0.02925,1.012,0.4,-0.44,0.02,23770.0,18430.0,-33760.0
32.7588653,35.0228558,478.05,-0.057,0.05925,0.99675,0.28,0.36,0.08,23770.0,18490.0,-33760.0
32.7588653,35.0228558,478.05,-0.05425,0.0405,0.9845,-0.3,0.2,-0.04,23800.0,18470.0,-33750.0
32.7588653,35.0228558,478.05,-0.05025,0.017,0.9995,-0.28,-0.52,-0.02,23770.0,18480.0,-33760.0
32.7588653,35.0228558,478.05,-0.05375,0.03775,1.00275,0.36,0.02,0.02,23750.0,18480.0,-33760.0
32.7588653,35.0228558,478.05,-0.062,0.0495,0.987,0.2,0.74,-0.04,23810.0,18500.0,-33750.0
32.7588653,35.0228558,478.05,-0.0635,0.029,0.995,-0.36,0.0,0.02,23840.0,18560.0,-33730.0
32.7588653,35.0228558,478.05,-0.05925,0.02775,1.01175,0.02,-0.52,-0.02,23800.0,18540.0,-33740.0
32.7588653,35.0228558,478.05,-0.061,0.049,0.99675,0.22,0.24,0.06,23780.0,18510.0,-33750.0
32.7588653,35.0228558,478.05,-0.05925,0.0365,0.98025,-0.26,0.24,-0.02,23760.0,18470.0,-33760.0
32.7588653,35.0228558,478.05,-0.0505,0.01825,0.9975,-0.22,-0.56,-0.04,23710.0,18470.0,-33770.0
32.7588653,35.0228558,478.05,-0.04975,0.03925,1.0065,0.28,-0.14,-0.02,23740.0,18400.0,-33770.0
32.7588653,35.0228558,478.05,-0.06125,0.05075,0.988,0.1,0.78,0.06,23730.0,18380.0,-33770.0
32.7588653,35.0228558,478.05,-0.066,0.02325,0.989,-0.4,0.16,0.02,23720.0,18480.0,-33770.0
32.7588653,35.0228558,478.05,-0.05975,0.017,1.0095,0.08,-0.66,0.0,23710.0,18500.0,-33770.0
32.7588653,35.0228558,478.05,-0.05725,0.05075,1.004,0.5,0.04,-0.08,23790.0,18480.0,-33750.0
32.7588653,35.0228558,478.05,-0.056,0.053,0.98275,-0.02,0.32,0.0,23830.0,18500.0,-33750.0
32.7588653,35.0228558,478.05,-0.0525,0.0215,0.9905,-0.44,-0.32,0.0,23790.0,18480.0,-33750.0
32.7588653,35.0228558,478.05,-0.05075,0.027,1.0075,0.2,-0.42,0.0,23750.0,18420.0,-33760.0
32.7588653,35.0228558,478.05,-0.06025,0.052,0.996,0.3,0.6,0.04,23730.0,18390.0,-33770.0
32.7588653,35.0228558,478.05,-0.0635,0.0415,0.98925,-0.2,0.28,0.02,23720.0,18360.0,-33780.0
32.7588653,35.0228558,478.05,-0.05825,0.024,1.00725,-0.26,-0.54,-0.02,23750.0,18410.0,-33760.0
32.7588653,35.0228558,478.05,-0.0545,0.04075,1.0045,0.2,-0.16,0.0,23740.0,18440.0,-33760.0
32.7588653,35.0228558,478.05,-0.0565,0.04825,0.98275,-0.06,0.5,-0.02,23760.0,18440.0,-33750.0
32.7588653,35.0228558,478.05,-0.05275,0.0265,0.99025,-0.26,-0.2,0.02,23790.0,18370.0,-33760.0
32.7588653,35.0228558,478.05,-0.04925,0.03025,1.00975,0.12,-0.52,0.0,23810.0,18360.0,-33760.0
32.7588653,35.0228558,478.05,-0.059,0.05275,0.99725,0.26,0.44,0.0,23770.0,18540.0,-33740.0
32.7588653,35.0228558,478.05,-0.06625,0.03725,0.9815,-0.3,0.56,0.02,23740.0,18490.0,-33750.0
32.7588653,35.0228558,478.05,-0.06175,0.0125,0.99925,-0.3,-0.42,-0.08,23730.0,18390.0,-33760.0
32.7588653,35.0228558,478.05,-0.05375,0.0355,1.01175,0.32,-0.38,-0.08,23720.0,18370.0,-33770.0
32.7588653,35.0228558,478.05,-0.055,0.061,0.9925,0.26,0.36,0.04,23690.0,18320.0,-33770.0
32.7588653,35.0228558,478.05,-0.05425,0.03525,0.983,-0.4,0.12,0.02,23680.0,18330.0,-33780.0
32.7588653,35.0228558,478.05,-0.0515,0.014,1.0025,-0.22,-0.58,-0.02,23630.0,18370.0,-33780.0
32.7588653,35.0228558,478.05,-0.05675,0.0395,1.00175,0.42,0.14,-0.04,23670.0,18360.0,-33780.0
32.7588653,35.0228558,478.05,-0.065,0.05175,0.986,0.08,0.68,0.06,23750.0,18280.0,-33770.0
32.7588653,35.0228558,478.05,-0.06475,0.02925,0.99725,-0.4,-0.1,-0.02,23770.0,18370.0,-33770.0
32.7588653,35.0228558,478.05,-0.059,0.0285,1.0115,0.02,-0.5,-0.04,23760.0,18450.0,-33760.0
32.7588653,35.0228558,478.05,-0.05975,0.04675,0.994,0.16,0.3,0.0,23740.0,18400.0,-33760.0
32.7588653,35.0228558,478.05,-0.05575,0.0345,0.98175,-0.18,0.22,0.06,23750.0,18340.0,-33770.0
32.7588653,35.0228558,478.05,-0.047,0.019,1.00225,-0.2,-0.62,-0.06,23790.0,18300.0,-33760.0
32.7588653,35.0228558,478.05,-0.04925,0.0425,1.0085,0.24,-0.14,0.0,23780.0,18300.0,-33770.0
32.7588653,35.0228558,478.05,-0.0625,0.052,0.9865,-0.02,0.8,0.02,23750.0,18350.0,-33770.0
32.7588653,35.0228558,478.05,-0.06625,0.02125,0.988,-0.42,0.06,0.04,23740.0,18350.0,-33770.0
32.7588653,35.0228558,478.05,-0.05825,0.01675,1.012,0.1,-0.64,-0.04,23730.0,18340.0,-33770.0
32.7588653,35.0228558,478.05,-0.0555,0.052,1.00575,0.5,0.08,-0.02,23740.0,18340.0,-33770.0
32.7588653,35.0228558,478.05,-0.05625,0.05375,0.983,-0.16,0.48,0.06,23690.0,18370.0,-33770.0
32.7588653,35.0228558,478.05,-0.052,0.021,0.9925,-0.44,-0.4,-0.06,23770.0,18470.0,-33750.0
32.7588653,35.0228558,478.05,-0.04975,0.026,1.00725,0.08,-0.36,0.02,23890.0,18320.0,-33740.0
32.7588653,35.0228558,478.05,-0.05925,0.05225,0.993,0.44,0.64,0.14,23970.0,18270.0,-33740.0
32.7588653,35.0228558,478.05,-0.063,0.0415,0.98575,-0.2,0.36,-0.02,24030.0,18220.0,-33740.0
32.7588653,35.0228558,478.05,-0.059,0.02275,1.0075,-0.34,-0.5,0.04,24000.0,18110.0,-33760.0
32.7588653,35.0228558,478.05,-0.0585,0.04,1.0085,0.32,-0.1,0.02,23960.0,17950.0,-33780.0
32.7588653,35.0228558,478.05,-0.06125,0.04825,0.983,0.04,0.46,0.0,23950.0,17910.0,-33780.0
32.7588653,35.0228558,478.05,-0.0545,0.02475,0.98825,-0.36,-0.24,0.02,23920.0,18030.0,-33780.0
32.7588653,35.0228558,478.05,-0.04675,0.027,1.008,0.12,-0.56,0.04,23860.0,18220.0,-33770.0
32.7588653,35.0228558,478.05,-0.05425,0.0525,0.9975,0.2,0.4,0.02,23830.0,18310.0,-33760.0
32.7588653,35.0228558,478.05,-0.064,0.03925,0.98125,-0.26,0.64,0.02,23850.0,18400.0,-33750.0
32.7588653,35.0228558,478.05,-0.063,0.01375,1.0015,-0.3,-0.42,-0.02,23750.0,18400.0,-33760.0
32.7588653,35.0228558,478.05,-0.05775,0.0335,1.014,0.38,-0.38,-0.02,23750.0,18430.0,-33760.0
32.7588653,35.0228558,478.05,-0.0595,0.0605,0.99075,0.26,0.44,0.02,23740.0,18420.0,-33760.0
32.7588653,35.0228558,478.05,-0.05675,0.037,0.9815,-0.36,0.06,-0.1,23710.0,18460.0,-33770.0
32.7588653,35.0228558,478.05,-0.0495,0.01625,1.00275,-0.26,-0.6,-0.06,23720.0,18410.0,-33770.0
32.7588653,35.0228558,478.05,-0.0535,0.04125,1.00525,0.4,0.1,0.04,23740.0,18410.0,-33760.0
32.7588653,35.0228558,478.05,-0.06225,0.052,0.98725,0.06,0.7,0.04,23750.0,18480.0,-33760.0
32.7588653,35.0228558,478.05,-0.063,0.028,0.9955,-0.34,-0.08,-0.04,23780.0,18510.0,-33750.0
32.7588653,35.0228558,478.05,-0.05825,0.026,1.0125,-0.08,-0.6,0.02,23770.0,18540.0,-33750.0
32.7588653,35.0228558,478.05,-0.05975,0.0465,0.995,0.22,0.28,0.0,23760.0,18660.0,-33740.0
32.7588653,35.0228558,478.05,-0.057,0.03625,0.97975,-0.18,0.26,0.0,23690.0,18680.0,-33750.0
32.7588653,35.0228558,478.05,-0.0495,0.02,1.0005,-0.26,-0.62,-0.06,23660.0,18630.0,-33760.0
32.7588653,35.0228558,478.05,-0.04975,0.03975,1.00975,0.3,-0.1,0.0,23660.0,18600.0,-33770.0
32.7588653,35.0228558,478.05,-0.06125,0.04875,0.98725,0.0,0.74,0.0,23670.0,18570.0,-33770.0
32.7588653,35.0228558,478.05,-0.06425,0.0215,0.98675,-0.38,0.12,-0.02,23720.0,18490.0,-33770.0
32.7588653,35.0228558,478.05,-0.05725,0.01675,1.01025,0.02,-0.68,0.0,23750.0,18450.0,-33760.0
32.7588653,35.0228558,478.05,-0.05675,0.052,1.00625,0.48,0.02,-0.04,23730.0,18500.0,-33760.0
32.7588653,35.0228558,478.05,-0.05725,0.05225,0.9825,-0.06,0.5,0.06,23740.0,18490.0,-33770.0
32.7588653,35.0228558,478.05,-0.0535,0.018,0.99,-0.48,-0.4,0.0,23750.0,18490.0,-33760.0
32.7588653,35.0228558,478.05,-0.0505,0.02325,1.0085,0.16,-0.38,0.04,23750.0,18540.0,-33760.0
32.7588653,35.0228558,478.05,-0.05925,0.05025,0.995,0.38,0.58,0.1,23770.0,18460.0,-33760.0
32.7588653,35.0228558,478.05,-0.06325,0.0405,0.986,-0.22,0.38,0.06,23760.0,18470.0,-33760.0
32.7588653,35.0228558,478.05,-0.06075,0.02175,1.00475,-0.22,-0.5,-0.04,23730.0,18480.0,-33770.0
32.7588653,35.0228558,478.05,-0.0585,0.03775,1.00575,0.28,-0.08,0.04,23770.0,18430.0,-33760.0
32.7588653,35.0228558,478.05,-0.05925,0.04325,0.984,0.06,0.48,-0.04,23820.0,18460.0,-33750.0
32.7588653,35.0228558,478.05,-0.0535,0.0225,0.989,-0.22,-0.28,0.0,23780.0,18540.0,-33750.0
32.7588653,35.0228558,478.05,-0.048,0.02875,1.00825,0.16,-0.58,-0.02,23760.0,18530.0,-33750.0
32.7588653,35.0228558,478.05,-0.0575,0.05175,0.9975,0.3,0.48,-0.06,23780.0,18440.0,-33760.0
32.7588653,35.0228558,478.05,-0.06575,0.0355,0.9815,-0.26,0.5,0.02,23790.0,18460.0,-33760.0
32.7588653,35.0228558,478.05,-0.06275,0.0135,0.99975,-0.16,-0.44,-0.08,23810.0,18580.0,-33740.0
32.7588653,35.0228558,478.05,-0.0555,0.0395,1.011,0.46,-0.34,0.0,23780.0,18570.0,-33750.0
32.7588653,35.0228558,478.05,-0.0555,0.0615,0.993,0.2,0.5,0.02,23740.0,18580.0,-33750.0
32.7588653,35.0228558,478.05,-0.05425,0.0345,0.98525,-0.4,-0.02,-0.02,23770.0,18580.0,-33750.0
32.7588653,35.0228558,478.05,-0.05025,0.0205,1.001,-0.14,-0.56,0.04,23810.0,18480.0,-33750.0
32.7588653,35.0228558,478.05,-0.05575,0.0455,1.0005,0.42,0.18,0.02,23820.0,18470.0,-33750.0
32.7588653,35.0228558,478.05,-0.06125,0.05325,0.988,-0.04,0.54,0.04,23740.0,18440.0,-33770.0
32.7588653,35.0228558,478.05,-0.06175,0.03225,0.99875,-0.36,-0.2,0.0,23750.0,18440.0,-33770.0
32.7588653,35.0228558,478.05,-0.05875,0.03425,1.009,0.04,-0.5,-0.02,23770.0,18400.0,-33770.0
32.7588653,35.0228558,478.05,-0.06075,0.0485,0.99375,0.14,0.4,0.06,23810.0,18410.0,-33760.0
32.7588653,35.0228558,478.05,-0.0555,0.03425,0.9855,-0.24,0.04,0.0,23850.0,18510.0,-33740.0
32.7588653,35.0228558,478.05,-0.04625,0.0265,1.00275,-0.04,-0.6,-0.1,23810.0,18480.0,-33750.0
32.7588653,35.0228558,478.05,-0.04825,0.0485,1.004,0.26,0.0,-0.02,23760.0,18430.0,-33760.0
32.7588653,35.0228558,478.05,-0.06025,0.04775,0.9865,-0.1,0.74,0.02,23760.0,18410.0,-33760.0
32.7588653,35.0228558,478.05,-0.06525,0.018,0.9915,-0.36,0.0,0.02,23720.0,18390.0,-33770.0
32.7588653,35.0228558,478.05,-0.0605,0.02475,1.01075,0.24,-0.56,0.02,23680.0,18410.0,-33780.0
32.7588653,35.0228558,478.05,-0.06,0.05825,1.0025,0.34,0.2,0.04,23720.0,18400.0,-33770.0
32.7588653,35.0228558,478.05,-0.057,0.04775,0.984,-0.26,0.32,-0.06,23800.0,18420.0,-33750.0
32.7588653,35.0228558,478.05,-0.05125,0.01725,0.994,-0.5,-0.5,-0.06,23790.0,18430.0,-33760.0
32.7588653,35.0228558,478.05,-0.05,0.03075,1.00425,0.18,-0.18,0.0,23790.0,18420.0,-33760.0
32.7588653,35.0228558,478.05,-0.059,0.05175,0.9925,0.16,0.7,0.0,23820.0,18520.0,-33740.0
32.7588653,35.0228558,478.05,-0.06325,0.03475,0.9925,-0.36,0.24,0.0,23750.0,18510.0,-33760.0
32.7588653,35.0228558,478.05,-0.062,0.02425,1.00775,-0.24,-0.54,0.08,23750.0,18460.0,-33760.0
32.7588653,35.0228558,478.05,-0.0625,0.0425,1.00125,0.3,0.08,0.0,23770.0,18420.0,-33760.0
32.7588653,35.0228558,478.05,-0.05975,0.0385,0.9825,-0.2,0.3,0.0,23730.0,18400.0,-33770.0
32.7588653,35.0228558,478.05,-0.051,0.01875,0.99475,-0.36,-0.48,-0.04,23730.0,18390.0,-33770.0
32.7588653,35.0228558,478.05,-0.047,0.03375,1.008,0.24,-0.34,0.02,23730.0,18360.0,-33770.0
32.7588653,35.0228558,478.05,-0.05775,0.05,0.99175,0.08,0.62,0.16,23760.0,18370.0,-33760.0
32.7588653,35.0228558,478.05,-0.0645,0.02525,0.98525,-0.3,0.36,-0.04,23800.0,18360.0,-33760.0
32.7588653,35.0228558,478.05,-0.0615,0.0115,1.00625,-0.02,-0.64,0.02,23810.0,18410.0,-33760.0
32.7588653,35.0228558,478.05,-0.058,0.04425,1.00825,0.5,-0.16,0.02,23770.0,18460.0,-33760.0
32.7588653,35.0228558,478.05,-0.0575,0.056,0.98675,0.08,0.4,0.0,23770.0,18410.0,-33760.0
32.7588653,35.0228558,478.05,-0.053,0.0235,0.98725,-0.48,-0.18,0.02,23770.0,18360.0,-33770.0
32.7588653,35.0228558,478.05,-0.04825,0.01925,1.005,0.06,-0.54,0.0,23780.0,18330.0,-33770.0
32.7588653,35.0228558,478.05,-0.0555,0.04775,0.99825,0.42,0.4,-0.02,23750.0,18330.0,-33770.0
32.7588653,35.0228558,478.05,-0.061,0.04575,0.98675,-0.1,0.48,-0.04,23720.0,18360.0,-33770.0
32.7588653,35.0228558,478.05,-0.06075,0.0245,1.0025,-0.28,-0.36,0.02,23710.0,18390.0,-33770.0
32.7588653,35.0228558,478.05,-0.05875,0.03675,1.00725,0.2,-0.2,0.0,23720.0,18460.0,-33760.0
32.7588653,35.0228558,478.05,-0.06025,0.047,0.98675,0.12,0.42,0.04,23760.0,18390.0,-33760.0
32.7588653,35.0228558,478.05,-0.05375,0.02725,0.98725,-0.32,-0.16,-0.08,23760.0,18400.0,-33770.0
32.7588653,35.0228558,478.05,-0.04575,0.028,1.0065,0.1,-0.64,0.0,23740.0,18560.0,-33750.0
32.7588653,35.0228558,478.05,-0.05325,0.05275,1.00075,0.32,0.32,-0.04,23790.0,18460.0,-33760.0
32.7588653,35.0228558,478.05,-0.0635,0.04225,0.9825,-0.16,0.64,0.02,23810.0,18350.0,-33760.0
32.7588653,35.0228558,478.05,-0.0645,0.0145,0.99575,-0.32,-0.34,0.04,23770.0,18360.0,-33770.0
32.7588653,35.0228558,478.05,-0.058,0.03375,1.01275,0.34,-0.48,-0.02,23750.0,18340.0,-33770.0
32.7588653,35.0228558,478.05,-0.05825,0.0625,0.997,0.34,0.38,0.08,23770.0,18340.0,-33770.0
32.7588653,35.0228558,478.05,-0.0555,0.0405,0.983,-0.36,0.18,0.02,23730.0,18290.0,-33780.0
32.7588653,35.0228558,478.05,-0.0505,0.0185,0.999,-0.22,-0.52,-0.02,23760.0,18330.0,-33770.0
32.7588653,35.0228558,478.05,-0.053,0.041,1.0035,0.36,0.08,0.08,23770.0,18350.0,-33770.0
32.7588653,35.0228558,478.05,-0.061,0.0525,0.989,0.08,0.62,0.04,23770.0,18390.0,-33770.0
32.7588653,35.0228558,478.05,-0.063,0.03175,0.99575,-0.38,-0.06,0.04,23760.0,18410.0,-33760.0
32.7588653,35.0228558,478.05,-0.06075,0.03175,1.00975,0.02,-0.44,-0.04,23750.0,18360.0,-33770.0
32.7588653,35.0228558,478.05,-0.062,0.04875,0.9945,0.12,0.3,0.06,23730.0,18380.0,-33770.0
32.7588653,35.0228558,478.05,-0.05775,0.035,0.9825,-0.26,0.18,0.04,23710.0,18430.0,-33780.0
32.7588653,35.0228558,478.05,-0.04825,0.02125,0.9995,-0.12,-0.7,-0.02,23720.0,18420.0,-33780.0
32.7588653,35.0228558,478.05,-0.049,0.04425,1.00625,0.28,-0.02,-0.06,23750.0,18400.0,-33770.0
32.7588653,35.0228558,478.05,-0.06075,0.04975,0.988,-0.04,0.8,0.02,23770.0,18480.0,-33760.0
32.7588653,35.0228558,478.05,-0.0655,0.019,0.98925,-0.44,0.08,0.06,23760.0,18450.0,-33760.0
32.7588653,35.0228558,478.05,-0.0595,0.01975,1.009,0.12,-0.62,-0.04,23750.0,18500.0,-33770.0
32.7588653,35.0228558,478.05,-0.057,0.0535,1.00325,0.48,0.08,0.0,23720.0,18540.0,-33770.0
32.7588653,35.0228558,478.05,-0.055,0.04925,0.9845,-0.2,0.42,-0.06,23830.0,18630.0,-33740.0
32.7588653,35.0228558,478.05,-0.05125,0.01825,0.9935,-0.42,-0.46,0.0,23880.0,18670.0,-33720.0
32.7588653,35.0228558,478.05,-0.05075,0.028,1.005,0.18,-0.24,0.04,23780.0,18710.0,-33740.0
32.7588653,35.0228558,478.05,-0.05975,0.049,0.99325,0.2,0.62,0.02,23720.0,18650.0,-33750.0
32.7588653,35.0228558,478.05,-0.06275,0.03525,0.991,-0.16,0.2,-0.02,23720.0,18570.0,-33760.0
32.7588653,35.0228558,478.05,-0.05875,0.024,1.0075,-0.18,-0.52,0.0,23740.0,18510.0,-33760.0
32.7588653,35.0228558,478.05,-0.05725,0.043,1.00275,0.28,0.06,-0.02,23790.0,18470.0,-33760.0
32.7588653,35.0228558,478.05,-0.05675,0.0415,0.98375,-0.14,0.42,-0.02,23850.0,18350.0,-33770.0
32.7588653,35.0228558,478.05,-0.05075,0.01875,0.99325,-0.28,-0.42,0.02,23870.0,18270.0,-33780.0
32.7588653,35.0228558,478.05,-0.04825,0.03175,1.00775,0.18,-0.42,0.0,23900.0,18140.0,-33790.0
32.7588653,35.0228558,478.05,-0.05975,0.053,0.9935,0.22,0.6,0.06,23960.0,18130.0,-33780.0
32.7588653,35.0228558,478.05,-0.06625,0.0315,0.98425,-0.36,0.38,-0.04,23910.0,18030.0,-33800.0
32.7588653,35.0228558,478.05,-0.062,0.013,1.0045,-0.12,-0.54,0.02,23920.0,18010.0,-33800.0
32.7588653,35.0228558,478.05,-0.0565,0.04175,1.009,0.5,-0.16,0.0,23930.0,18000.0,-33790.0
32.7588653,35.0228558,478.05,-0.056,0.05725,0.98925,0.12,0.44,0.0,23890.0,18190.0,-33780.0
32.7588653,35.0228558,478.05,-0.05225,0.0285,0.98825,-0.36,-0.16,-0.04,23870.0,18320.0,-33770.0
32.7588653,35.0228558,478.05,-0.04975,0.02175,1.004,0.0,-0.5,0.04,23850.0,18400.0,-33770.0
32.7588653,35.0228558,478.05,-0.0585,0.0475,0.99825,0.36,0.4,0.1,23850.0,18530.0,-33750.0
32.7588653,35.0228558,478.05,-0.0645,0.046,0.9865,-0.02,0.52,-0.02,23850.0,18540.0,-33760.0
32.7588653,35.0228558,478.05,-0.0625,0.0255,1.00225,-0.3,-0.36,-0.02,23850.0,18590.0,-33750.0
32.7588653,35.0228558,478.05,-0.05925,0.038,1.00975,0.16,-0.34,0.02,23850.0,18650.0,-33740.0
32.7588653,35.0228558,478.05,-0.06,0.05,0.98975,0.02,0.42,0.12,23830.0,18580.0,-33740.0
32.7588653,35.0228558,478.05,-0.054,0.02825,0.98525,-0.38,-0.08,0.0,23820.0,18520.0,-33760.0
32.7588653,35.0228558,478.05,-0.0465,0.0255,1.005,-0.04,-0.64,-0.02,23820.0,18540.0,-33760.0
32.7588653,35.0228558,478.05,-0.05175,0.051,1.00225,0.34,0.28,0.02,23790.0,18500.0,-33770.0
32.7588653,35.0228558,478.05,-0.063,0.0445,0.9845,-0.22,0.72,-0.02,23780.0,18490.0,-33770.0
32.7588653,35.0228558,478.05,-0.06525,0.0155,0.99575,-0.38,-0.24,0.0,23760.0,18500.0,-33770.0
32.7588653,35.0228558,478.05,-0.05875,0.03,1.011,0.26,-0.54,0.02,23750.0,18520.0,-33770.0
32.7588653,35.0228558,478.05,-0.0575,0.0595,0.997,0.34,0.36,0.06,23770.0,18490.0,-33760.0
32.7588653,35.0228558,478.05,-0.0545,0.0415,0.98375,-0.36,0.14,-0.02,23790.0,18510.0,-33760.0
32.7588653,35.0228558,478.05,-0.0495,0.018,0.99875,-0.26,-0.54,-0.02,23750.0,18600.0,-33760.0
32.7588653,35.0228558,478.05,-0.052,0.03825,1.003,0.28,0.06,0.0,23730.0,18530.0,-33760.0
32.7588653,35.0228558,478.05,-0.061,0.05075,0.9895,0.1,0.68,0.12,23770.0,18510.0,-33760.0
32.7588653,35.0228558,478.05,-0.063,0.029,0.996,-0.28,-0.12,-0.02,23780.0,18480.0,-33770.0
32.7588653,35.0228558,478.05,-0.05875,0.028,1.00975,-0.02,-0.52,0.04,23770.0,18450.0,-33770.0
32.7588653,35.0228558,478.05,-0.06025,0.04775,0.9965,0.22,0.28,0.02,23790.0,18470.0,-33770.0
32.7588653,35.0228558,478.05,-0.0575,0.03625,0.98225,-0.24,0.22,0.06,23770.0,18510.0,-33760.0
32.7588653,35.0228558,478.05,-0.04975,0.019,0.99925,-0.14,-0.56,-0.04,23770.0,18480.0,-33760.0
32.7588653,35.0228558,478.05,-0.0495,0.03875,1.007,0.3,-0.2,0.02,23770.0,18440.0,-33770.0
32.7588653,35.0228558,478.05,-0.06075,0.05025,0.98775,0.0,0.72,0.08,23770.0,18440.0,-33770.0
32.7588653,35.0228558,478.05,-0.06525,0.02075,0.9885,-0.36,0.08,0.04,23810.0,18560.0,-33750.0
32.7588653,35.0228558,478.05,-0.059,0.01575,1.009,0.08,-0.6,0.0,23780.0,18500.0,-33750.0
32.7588653,35.0228558,478.05,-0.0565,0.05075,1.00375,0.44,0.04,0.02,23730.0,18490.0,-33760.0
32.7588653,35.0228558,478.05,-0.05675,0.0525,0.98425,-0.16,0.4,0.04,23710.0,18430.0,-33770.0
32.7588653,35.0228558,478.05,-0.053,0.02,0.992,-0.42,-0.32,-0.08,23710.0,18410.0,-33770.0
32.7588653,35.0228558,478.05,-0.05125,0.0245,1.005,0.1,-0.32,-0.02,23700.0,18400.0,-33780.0
32.7588653,35.0228558,478.05,-0.061,0.05025,0.99225,0.36,0.56,0.0,23680.0,18380.0,-33780.0
32.7588653,35.0228558,478.05,-0.0645,0.04075,0.98775,-0.1,0.38,0.0,23730.0,18350.0,-33770.0
32.7588653,35.0228558,478.05,-0.06,0.0235,1.00725,-0.28,-0.54,0.0,23740.0,18400.0,-33770.0
32.7588653,35.0228558,478.05,-0.05725,0.04025,1.0055,0.28,-0.16,0.0,23730.0,18430.0,-33760.0
32.7588653,35.0228558,478.05,-0.05875,0.04575,0.984,0.04,0.48,0.0,23770.0,18540.0,-33740.0
32.7588653,35.0228558,478.05,-0.0525,0.02325,0.9895,-0.38,-0.14,0.04,23740.0,18490.0,-33750.0
32.7588653,35.0228558,478.05,-0.046,0.02775,1.00825,0.06,-0.56,-0.04,23680.0,18430.0,-33770.0
32.7588653,35.0228558,478.05,-0.05475,0.05275,0.9975,0.22,0.46,0.04,23690.0,18370.0,-33770.0
32.7588653,35.0228558,478.05,-0.0645,0.03825,0.982,-0.22,0.54,-0.02,23690.0,18330.0,-33780.0
32.7588653,35.0228558,478.05,-0.063,0.0125,1.0,-0.26,-0.42,-0.08,23690.0,18390.0,-33770.0
32.7588653,35.0228558,478.05,-0.05725,0.0355,1.0135,0.48,-0.44,0.08,23740.0,18400.0,-33760.0
32.7588653,35.0228558,478.05,-0.0585,0.06175,0.9925,0.26,0.44,0.08,23770.0,18350.0,-33770.0
32.7588653,35.0228558,478.05,-0.055,0.03775,0.98325,-0.34,0.06,-0.04,23750.0,18410.0,-33770.0
32.7588653,35.0228558,478.05,-0.0485,0.018,1.00325,-0.16,-0.6,-0.04,23760.0,18480.0,-33760.0
32.7588654,35.0228559,478.05,-0.0515,0.04225,1.0025,0.38,0.14,0.04,23790.0,18590.0,-33750.0
32.7588654,35.0228559,478.05,-0.06125,0.05275,0.986,0.08,0.66,0.0,23760.0,18510.0,-33750.0
32.7588654,35.0228559,478.05,-0.063,0.0295,0.99625,-0.36,-0.1,0.0,23740.0,18470.0,-33760.0
32.7588654,35.0228559,478.05,-0.05975,0.02925,1.01175,0.02,-0.48,0.02,23720.0,18430.0,-33770.0
32.7588654,35.0228559,478.05,-0.0625,0.04925,0.99275,0.22,0.32,0.06,23690.0,18430.0,-33780.0
32.7588654,35.0228559,478.05,-0.05825,0.03775,0.9795,-0.28,0.16,-0.06,23730.0,18380.0,-33770.0
32.7588654,35.0228559,478.05,-0.0485,0.02125,1.00125,-0.2,-0.66,-0.08,23760.0,18390.0,-33760.0
32.7588654,35.0228559,478.05,-0.04775,0.04225,1.0075,0.26,-0.12,0.0,23760.0,18400.0,-33770.0
32.7588654,35.0228559,478.05,-0.0615,0.05,0.9865,0.02,0.84,0.08,23710.0,18410.0,-33770.0
32.7588654,35.0228559,478.05,-0.0655,0.02075,0.98875,-0.38,0.04,-0.04,23720.0,18480.0,-33760.0
32.7588654,35.0228559,478.05,-0.05875,0.01825,1.012,0.02,-0.7,-0.06,23730.0,18500.0,-33760.0
32.7588654,35.0228559,478.05,-0.057,0.0535,1.00425,0.42,0.12,-0.02,23740.0,18480.0,-33760.0
32.7588654,35.0228559,478.05,-0.05775,0.0535,0.98125,-0.16,0.42,0.02,23760.0,18400.0,-33770.0
32.7588654,35.0228559,478.05,-0.05325,0.019,0.99275,-0.44,-0.44,-0.04,23760.0,18430.0,-33770.0
32.7588654,35.0228559,478.05,-0.05,0.024,1.0085,0.12,-0.34,0.04,23750.0,18420.0,-33770.0
32.7588654,35.0228559,478.05,-0.0605,0.05225,0.9945,0.36,0.58,0.04,23770.0,18460.0,-33770.0
32.7588654,35.0228559,478.05,-0.06375,0.042,0.98775,-0.26,0.34,0.06,23750.0,18460.0,-33770.0
32.7588654,35.0228559,478.05,-0.05925,0.02225,1.00725,-0.26,-0.58,-0.06,23720.0,18560.0,-33770.0
32.7588654,35.0228559,478.05,-0.05675,0.03775,1.00625,0.26,-0.14,0.06,23720.0,18520.0,-33770.0
32.7588654,35.0228559,478.05,-0.05875,0.045,0.983,0.06,0.52,0.0,23760.0,18460.0,-33770.0
32.7588653,35.0228559,478.05,-0.05275,0.02425,0.9905,-0.32,-0.3,-0.02,23780.0,18600.0,-33750.0
32.7588653,35.0228559,478.05,-0.04675,0.028,1.011,0.1,-0.58,0.04,23730.0,18570.0,-33760.0
32.7588653,35.0228559,478.05,-0.05675,0.0515,0.99775,0.22,0.46,0.02,23700.0,18550.0,-33770.0
32.7588653,35.0228559,478.05,-0.066,0.03575,0.9805,-0.2,0.52,0.04,23660.0,18550.0,-33780.0
32.7588653,35.0228559,478.05,-0.0625,0.01075,1.00025,-0.18,-0.48,0.02,23730.0,18490.0,-33770.0
32.7588653,35.0228559,478.05,-0.05475,0.03425,1.01375,0.34,-0.4,-0.02,23750.0,18480.0,-33770.0
32.7588653,35.0228559,478.05,-0.05625,0.0615,0.99225,0.26,0.46,-0.02,23710.0,18520.0,-33770.0
32.7588653,35.0228559,478.05,-0.0545,0.0365,0.982,-0.4,0.1,0.02,23710.0,18530.0,-33770.0
32.7588653,35.0228559,478.05,-0.05,0.01425,1.00275,-0.22,-0.58,0.0,23730.0,18480.0,-33780.0
32.7588653,35.0228559,478.05,-0.055,0.04025,1.00475,0.4,0.16,0.02,23780.0,18530.0,-33760.0
32.7588653,35.0228559,478.05,-0.06325,0.0525,0.98575,0.14,0.76,0.04,23830.0,18520.0,-33750.0
32.7588653,35.0228559,478.05,-0.06325,0.0305,0.99575,-0.4,-0.22,0.02,23820.0,18490.0,-33760.0
32.7588653,35.0228559,478.05,-0.05775,0.029,1.0125,-0.06,-0.6,-0.02,23770.0,18540.0,-33760.0
32.7588653,35.0228559,478.05,-0.05925,0.04725,0.994,0.28,0.32,0.02,23760.0,18540.0,-33760.0
32.7588653,35.0228559,478.05,-0.0565,0.035,0.981,-0.24,0.24,0.02,23780.0,18470.0,-33770.0
32.7588653,35.0228559,478.05,-0.0485,0.021,1.00075,-0.12,-0.6,-0.02,23810.0,18470.0,-33760.0
32.7588653,35.0228559,478.05,-0.0495,0.0435,1.008,0.28,-0.18,0.02,23780.0,18500.0,-33760.0
32.7588653,35.0228559,478.05,-0.0625,0.05175,0.98575,0.04,0.72,0.04,23770.0,18530.0,-33760.0
32.7588653,35.0228559,478.05,-0.06625,0.02075,0.987,-0.46,0.06,-0.02,23760.0,18530.0,-33770.0
32.7588653,35.0228559,478.05,-0.059,0.0165,1.0105,0.02,-0.68,-0.04,23730.0,18540.0,-33770.0
32.7588654,35.0228559,478.05,-0.05725,0.0535,1.004,0.44,0.04,-0.02,23800.0,18660.0,-33740.0
32.7588654,35.0228559,478.05,-0.05775,0.0545,0.98275,-0.12,0.42,0.06,23820.0,18730.0,-33730.0
32.7588654,35.0228559,478.05,-0.05325,0.021,0.99275,-0.48,-0.36,0.04,23820.0,18780.0,-33720.0
32.7588654,35.0228559,478.05,-0.0495,0.025,1.007,0.16,-0.42,0.02,23840.0,18670.0,-33730.0
32.7588654,35.0228559,478.05,-0.05925,0.051,0.9925,0.28,0.62,0.04,23860.0,18540.0,-33740.0
32.7588654,35.0228559,478.05,-0.06325,0.0415,0.98675,-0.22,0.38,0.0,23800.0,18500.0,-33760.0
32.7588654,35.0228559,478.05,-0.0605,0.024,1.00725,-0.16,-0.52,0.0,23780.0,18480.0,-33760.0
32.7588654,35.0228559,478.05,-0.05925,0.03975,1.0065,0.18,-0.12,0.04,23750.0,18420.0,-33770.0
32.7588654,35.0228559,478.05,-0.06175,0.0455,0.98325,0.0,0.48,0.0,23740.0,18480.0,-33760.0
32.7588654,35.0228559,478.05,-0.05375,0.02325,0.9905,-0.32,-0.26,0.0,23760.0,18500.0,-33760.0
32.7588654,35.0228559,478.05,-0.0445,0.02825,1.00975,0.08,-0.6,0.02,23770.0,18540.0,-33750.0
32.7588654,35.0228559,478.05,-0.05275,0.05325,0.9965,0.32,0.44,0.08,23710.0,18500.0,-33760.0
32.7588654,35.0228559,478.05,-0.06325,0.03775,0.9805,-0.22,0.62,0.0,23750.0,18520.0,-33760.0
32.7588654,35.0228559,478.05,-0.063,0.0115,1.00075,-0.26,-0.46,-0.06,23790.0,18420.0,-33760.0
32.7588654,35.0228559,478.05,-0.0575,0.03325,1.0145,0.38,-0.4,0.08,23820.0,18220.0,-33780.0
32.7588654,35.0228559,478.05,-0.06,0.0615,0.99225,0.34,0.44,-0.08,23840.0,18100.0,-33790.0
32.7588654,35.0228559,478.05,-0.05675,0.03925,0.98175,-0.38,0.12,-0.02,23870.0,18000.0,-33800.0
32.7588654,35.0228559,478.05,-0.04875,0.016,1.00225,-0.2,-0.6,0.04,23890.0,18020.0,-33790.0
32.7588654,35.0228559,478.05,-0.051,0.0395,1.00275,0.28,0.1,0.02,23890.0,18000.0,-33800.0
32.7588654,35.0228559,478.05,-0.06025,0.0525,0.98575,0.1,0.66,0.04,23910.0,18010.0,-33790.0
32.7588653,35.0228559,478.05,-0.062,0.031,0.99625,-0.3,-0.1,-0.06,23890.0,18250.0,-33760.0
32.7588653,35.0228559,478.05,-0.0595,0.0275,1.0125,-0.08,-0.58,0.02,23870.0,18320.0,-33750.0
32.7588653,35.0228559,478.05,-0.0625,0.0475,0.9945,0.18,0.28,0.06,23850.0,18330.0,-33750.0
32.7588653,35.0228559,478.05,-0.06025,0.038,0.97975,-0.18,0.26,0.02,23820.0,18350.0,-33760.0
32.7588653,35.0228559,478.05,-0.04925,0.02025,1.00125,-0.16,-0.6,-0.06,23720.0,18490.0,-33760.0
32.7588653,35.0228559,478.05,-0.047,0.04075,1.00975,0.3,-0.16,0.06,23670.0,18480.0,-33770.0
32.7588653,35.0228559,478.05,-0.05925,0.05325,0.98725,0.06,0.7,0.04,23690.0,18420.0,-33770.0
32.7588653,35.0228559,478.05,-0.06475,0.02425,0.9865,-0.4,0.18,-0.04,23710.0,18400.0,-33770.0
32.7588653,35.0228559,478.05,-0.05925,0.015,1.01125,-0.02,-0.64,0.02,23730.0,18370.0,-33770.0
32.7588653,35.0228559,478.05,-0.05875,0.05025,1.006,0.4,0.14,-0.02,23730.0,18390.0,-33770.0
32.7588653,35.0228559,478.05,-0.0605,0.05725,0.98175,0.0,0.52,0.0,23760.0,18450.0,-33750.0
32.7588653,35.0228559,478.05,-0.05475,0.02275,0.991,-0.46,-0.36,-0.12,23720.0,18400.0,-33760.0
32.7588653,35.0228559,478.05,-0.0485,0.022,1.0095,0.1,-0.44,0.02,23720.0,18400.0,-33760.0
32.7588653,35.0228559,478.05,-0.0565,0.05,0.996,0.34,0.56,0.14,23670.0,18400.0,-33780.0
32.7588653,35.0228559,478.05,-0.06175,0.044,0.985,-0.18,0.44,0.02,23660.0,18410.0,-33770.0
32.7588653,35.0228559,478.05,-0.05975,0.022,1.00625,-0.32,-0.58,0.0,23710.0,18390.0,-33760.0
32.7588653,35.0228559,478.05,-0.058,0.03675,1.0085,0.22,-0.18,0.0,23750.0,18450.0,-33750.0
32.7588653,35.0228559,478.05,-0.062,0.0475,0.98425,0.1,0.44,0.04,23770.0,18400.0,-33750.0
32.7588653,35.0228559,478.05,-0.05525,0.02475,0.9865,-0.3,-0.12,-0.04,23740.0,18390.0,-33760.0
32.7588653,35.0228559,478.05,-0.04575,0.02475,1.011,0.06,-0.62,-0.02,23730.0,18430.0,-33760.0
32.7588654,35.0228559,478.05,-0.0525,0.05,1.0015,0.28,0.3,0.08,23820.0,18520.0,-33740.0
32.7588654,35.0228559,478.05,-0.063,0.04225,0.98,-0.22,0.74,-0.04,23800.0,18490.0,-33740.0
32.7588654,35.0228559,478.05,-0.06325,0.0145,0.99625,-0.22,-0.34,0.0,23780.0,18520.0,-33750.0
32.7588654,35.0228559,478.05,-0.0555,0.02725,1.01525,0.32,-0.52,-0.06,23750.0,18520.0,-33750.0
32.7588654,35.0228559,478.05,-0.05825,0.05925,0.99475,0.28,0.42,0.04,23750.0,18480.0,-33760.0
32.7588654,35.0228559,478.05,-0.056,0.04175,0.9795,-0.3,0.28,0.0,23780.0,18460.0,-33760.0
32.7588654,35.0228559,478.05,-0.04925,0.015,1.001,-0.28,-0.68,-0.06,23770.0,18400.0,-33760.0
32.7588654,35.0228559,478.05,-0.05075,0.0365,1.00725,0.38,0.0,0.04,23800.0,18420.0,-33760.0
32.7588654,35.0228559,478.05,-0.0615,0.05425,0.98575,0.18,0.72,-0.02,23770.0,18430.0,-33770.0
32.7588654,35.0228559,478.05,-0.064,0.032,0.99125,-0.38,0.06,0.0,23750.0,18510.0,-33760.0
32.7588654,35.0228559,478.05,-0.0595,0.02475,1.01175,-0.1,-0.6,0.04,23770.0,18610.0,-33750.0
32.7588654,35.0228559,478.05,-0.06075,0.046,0.999,0.18,0.24,0.0,23760.0,18550.0,-33750.0
32.7588654,35.0228559,478.05,-0.0595,0.03975,0.98025,-0.14,0.4,0.0,23730.0,18480.0,-33760.0
32.7588654,35.0228559,478.05,-0.05,0.021,0.997,-0.2,-0.5,-0.06,23750.0,18540.0,-33760.0
32.7588654,35.0228559,478.05,-0.047,0.0365,1.01025,0.22,-0.36,0.02,23740.0,18490.0,-33770.0
32.7588654,35.0228559,478.05,-0.05925,0.0525,0.9895,0.2,0.76,0.06,23720.0,18580.0,-33760.0
32.7588654,35.0228559,478.05,-0.06625,0.0275,0.984,-0.4,0.24,0.02,23750.0,18520.0,-33760.0
32.7588654,35.0228559,478.05,-0.06075,0.01425,1.009,-0.06,-0.68,-0.02,23750.0,18520.0,-33760.0
32.7588654,35.0228559,478.05,-0.057,0.04775,1.00975,0.54,-0.04,0.04,23700.0,18530.0,-33770.0
32.7588654,35.0228559,478.05,-0.0585,0.05825,0.98375,0.0,0.5,0.04,23740.0,18530.0,-33760.0
32.7588654,35.0228559,478.06,-0.05375,0.02475,0.98725,-0.46,-0.28,0.02,23830.0,18610.0,-33740.0
32.7588654,35.0228559,478.06,-0.04825,0.021,1.0075,0.0,-0.54,0.02,23810.0,18670.0,-33740.0
32.7588654,35.0228559,478.06,-0.057,0.0505,0.99725,0.36,0.42,0.0,23780.0,18640.0,-33750.0
32.7588654,35.0228559,478.06,-0.063,0.0465,0.9855,-0.14,0.48,0.02,23790.0,18610.0,-33750.0
32.7588654,35.0228559,478.06,-0.06125,0.02475,1.00325,-0.36,-0.46,-0.02,23760.0,18550.0,-33760.0
32.7588654,35.0228559,478.06,-0.058,0.035,1.0085,0.12,-0.32,0.02,23800.0,18500.0,-33760.0
32.7588654,35.0228559,478.06,-0.06075,0.0475,0.98675,0.12,0.48,0.02,23780.0,18470.0,-33760.0
32.7588654,35.0228559,478.06,-0.05425,0.02825,0.984,-0.28,-0.08,-0.02,23750.0,18550.0,-33760.0
32.7588654,35.0228559,478.06,-0.04625,0.025,1.00825,0.02,-0.7,-0.02,23780.0,18580.0,-33750.0
32.7588654,35.0228559,478.06,-0.05125,0.04925,1.00325,0.24,0.26,0.02,23850.0,18560.0,-33740.0
32.7588654,35.0228559,478.06,-0.06275,0.04325,0.9815,-0.2,0.74,0.1,23870.0,18590.0,-33740.0
32.7588654,35.0228559,478.06,-0.06375,0.0135,0.995,-0.34,-0.24,0.0,23780.0,18580.0,-33750.0
32.7588654,35.0228559,478.06,-0.05625,0.027,1.014,0.32,-0.54,0.02,23770.0,18550.0,-33760.0
32.7588654,35.0228559,478.06,-0.05725,0.06025,0.99625,0.32,0.42,0.02,23800.0,18520.0,-33760.0
32.7588654,35.0228559,478.06,-0.0565,0.04325,0.981,-0.32,0.26,0.04,23770.0,18500.0,-33760.0
32.7588654,35.0228559,478.06,-0.05075,0.01525,1.0,-0.3,-0.58,0.02,23740.0,18520.0,-33760.0
32.7588654,35.0228559,478.06,-0.0525,0.0355,1.006,0.28,-0.04,0.06,23750.0,18580.0,-33760.0
32.7588654,35.0228559,478.06,-0.06225,0.05275,0.98875,0.24,0.74,0.0,23770.0,18670.0,-33740.0
32.7588654,35.0228559,478.06,-0.06325,0.03325,0.992,-0.34,0.02,-0.04,23790.0,18550.0,-33750.0
32.7588654,35.0228559,478.06,-0.0585,0.026,1.011,-0.12,-0.58,0.06,23820.0,18510.0,-33750.0
32.7588654,35.0228559,478.05,-0.05875,0.04575,1.00025,0.22,0.18,0.08,23800.0,18640.0,-33740.0
32.7588654,35.0228559,478.05,-0.05825,0.0395,0.981,-0.16,0.38,0.04,23750.0,18580.0,-33750.0
32.7588654,35.0228559,478.05,-0.051,0.01975,0.99725,-0.28,-0.54,0.0,23790.0,18500.0,-33760.0
32.7588654,35.0228559,478.05,-0.0485,0.0365,1.01,0.26,-0.3,-0.02,23820.0,18490.0,-33750.0
32.7588654,35.0228559,478.05,-0.0605,0.05375,0.99,0.06,0.74,0.04,23850.0,18460.0,-33750.0
32.7588654,35.0228559,478.05,-0.06725,0.0275,0.9835,-0.36,0.24,-0.06,23830.0,18470.0,-33750.0
32.7588654,35.0228559,478.05,-0.06025,0.01325,1.00825,-0.02,-0.66,-0.04,23780.0,18440.0,-33760.0
32.7588654,35.0228559,478.05,-0.05625,0.04675,1.00975,0.42,-0.06,-0.02,23790.0,18500.0,-33760.0
32.7588654,35.0228559,478.05,-0.0575,0.0575,0.98575,0.04,0.56,-0.04,23780.0,18470.0,-33760.0
32.7588654,35.0228559,478.05,-0.052,0.0255,0.989,-0.42,-0.3,0.0,23730.0,18530.0,-33760.0
32.7588654,35.0228559,478.05,-0.0475,0.022,1.00625,-0.06,-0.58,0.04,23740.0,18550.0,-33750.0
32.7588654,35.0228559,478.05,-0.05625,0.04975,0.9975,0.34,0.52,-0.04,23740.0,18500.0,-33760.0
32.7588654,35.0228559,478.05,-0.063,0.04625,0.9855,-0.12,0.56,0.0,23720.0,18490.0,-33760.0
32.7588654,35.0228559,478.05,-0.062,0.02475,1.0035,-0.36,-0.42,-0.08,23710.0,18470.0,-33770.0
32.7588654,35.0228559,478.05,-0.05925,0.03625,1.01075,0.14,-0.28,-0.02,23740.0,18470.0,-33760.0
32.7588654,35.0228559,478.05,-0.061,0.0495,0.987,0.14,0.48,0.04,23750.0,18530.0,-33750.0
32.7588654,35.0228559,478.05,-0.055,0.028,0.98475,-0.4,-0.04,-0.04,23720.0,18510.0,-33760.0
32.7588654,35.0228559,478.05,-0.04525,0.023,1.0075,-0.08,-0.7,0.0,23760.0,18530.0,-33750.0
32.7588654,35.0228559,478.05,-0.05075,0.04825,1.00125,0.28,0.28,0.04,23750.0,18470.0,-33760.0
32.7588654,35.0228559,478.05,-0.06275,0.044,0.9805,-0.1,0.76,0.06,23690.0,18520.0,-33760.0
32.7588654,35.0228559,478.05,-0.0645,0.0145,0.99675,-0.34,-0.26,0.02,23760.0,18620.0,-33740.0
32.7588654,35.0228559,478.05,-0.05875,0.02675,1.0145,0.32,-0.56,0.0,23820.0,18630.0,-33720.0
32.7588654,35.0228559,478.05,-0.061,0.05875,0.9945,0.38,0.4,0.02,23820.0,18700.0,-33720.0
32.7588654,35.0228559,478.05,-0.0585,0.042,0.9795,-0.28,0.2,0.02,23790.0,18660.0,-33730.0
32.7588654,35.0228559,478.05,-0.05025,0.01525,0.99975,-0.26,-0.64,-0.04,23730.0,18610.0,-33740.0
32.7588654,35.0228559,478.05,-0.0495,0.03475,1.00725,0.28,-0.08,0.02,23700.0,18530.0,-33760.0
32.7588654,35.0228559,478.05,-0.05875,0.05375,0.98675,0.16,0.72,0.0,23750.0,18470.0,-33750.0
32.7588654,35.0228559,478.05,-0.0625,0.03375,0.991,-0.3,0.0,0.0,23750.0,18430.0,-33760.0
32.7588654,35.0228559,478.05,-0.05925,0.0235,1.0125,-0.16,-0.62,-0.02,23700.0,18490.0,-33760.0
32.7588654,35.0228559,478.05,-0.0615,0.04475,1.0,0.18,0.24,0.06,23720.0,18480.0,-33760.0
32.7588654,35.0228559,478.05,-0.06125,0.04175,0.98,-0.06,0.34,0.04,23750.0,18550.0,-33740.0
32.7588654,35.0228559,478.05,-0.05025,0.021,0.9965,-0.26,-0.54,-0.04,23740.0,18470.0,-33750.0
32.7588654,35.0228559,478.05,-0.04425,0.0345,1.0115,0.18,-0.36,-0.06,23790.0,18450.0,-33750.0
32.7588654,35.0228559,478.05,-0.055,0.0525,0.99075,0.12,0.72,-0.04,23800.0,18470.0,-33750.0
32.7588654,35.0228559,478.05,-0.0635,0.0285,0.9815,-0.3,0.4,-0.04,23740.0,18480.0,-33760.0
32.7588654,35.0228559,478.05,-0.05975,0.0125,1.007,0.0,-0.68,-0.02,23740.0,18450.0,-33760.0
32.7588654,35.0228559,478.05,-0.0585,0.04575,1.01175,0.46,-0.06,0.04,23770.0,18430.0,-33760.0
32.7588654,35.0228559,478.05,-0.06,0.05925,0.98425,0.1,0.58,-0.02,23770.0,18510.0,-33750.0
32.7588654,35.0228559,478.05,-0.0545,0.0265,0.9845,-0.46,-0.22,0.02,23790.0,18530.0,-33740.0
32.7588654,35.0228559,478.05,-0.04725,0.0185,1.0075,0.1,-0.56,0.02,23830.0,18580.0,-33730.0
32.7588654,35.0228559,478.06,-0.05475,0.04825,1.00025,0.48,0.42,0.02,23860.0,18480.0,-33740.0
32.7588654,35.0228559,478.06,-0.06175,0.0485,0.985,-0.06,0.54,0.0,23870.0,18270.0,-33760.0
32.7588654,35.0228559,478.06,-0.0615,0.0255,1.00125,-0.28,-0.4,-0.04,23890.0,18100.0,-33780.0
32.7588654,35.0228559,478.06,-0.05875,0.035,1.01125,0.14,-0.3,0.0,23930.0,18070.0,-33780.0
32.7588654,35.0228559,478.06,-0.0615,0.04925,0.9885,0.12,0.52,0.0,23840.0,18040.0,-33800.0
32.7588654,35.0228559,478.06,-0.05675,0.0295,0.98125,-0.38,0.02,0.0,23820.0,18020.0,-33800.0
32.7588654,35.0228559,478.06,-0.0475,0.02475,1.006,0.0,-0.7,-0.02,23880.0,18110.0,-33780.0
32.7588654,35.0228559,478.06,-0.0525,0.05,1.005,0.3,0.16,0.06,23840.0,18340.0,-33770.0
32.7588654,35.0228559,478.06,-0.064,0.04575,0.98275,-0.2,0.7,0.0,23790.0,18400.0,-33770.0
32.7588654,35.0228559,478.06,-0.065,0.01525,0.9925,-0.32,-0.24,0.0,23780.0,18450.0,-33760.0
32.7588654,35.0228559,478.06,-0.05725,0.02775,1.013,0.26,-0.58,-0.04,23780.0,18530.0,-33750.0
32.7588654,35.0228559,478.06,-0.05775,0.06,0.999,0.32,0.38,0.06,23760.0,18480.0,-33760.0
32.7588654,35.0228559,478.06,-0.057,0.04425,0.98075,-0.32,0.26,0.0,23760.0,18480.0,-33760.0
32.7588654,35.0228559,478.06,-0.05125,0.0165,0.99825,-0.36,-0.6,-0.08,23710.0,18500.0,-33760.0
32.7588654,35.0228559,478.06,-0.051,0.0345,1.007,0.36,-0.14,0.02,23730.0,18460.0,-33770.0
32.7588654,35.0228559,478.06,-0.06025,0.05275,0.99025,0.2,0.7,-0.02,23780.0,18450.0,-33760.0
32.7588654,35.0228559,478.06,-0.06275,0.03225,0.99125,-0.34,0.02,0.02,23780.0,18550.0,-33750.0
32.7588654,35.0228559,478.06,-0.059,0.025,1.0105,-0.12,-0.54,-0.02,23790.0,18550.0,-33750.0
32.7588654,35.0228559,478.06,-0.05925,0.045,1.00125,0.26,0.24,0.06,23810.0,18300.0,-33770.0
32.7588654,35.0228559,478.06,-0.058,0.039,0.98175,-0.18,0.4,0.06,23830.0,18300.0,-33780.0
32.7588654,35.0228559,478.06,-0.0495,0.01975,0.99725,-0.22,-0.56,-0.02,23810.0,18510.0,-33760.0
32.7588654,35.0228559,478.06,-0.0465,0.0365,1.00975,0.26,-0.32,0.02,23760.0,18570.0,-33760.0
32.7588654,35.0228559,478.06,-0.05875,0.05125,0.99075,0.14,0.66,0.08,23740.0,18580.0,-33760.0
32.7588654,35.0228559,478.06,-0.0655,0.0245,0.98475,-0.46,0.34,0.02,23750.0,18570.0,-33760.0
32.7588654,35.0228559,478.06,-0.06,0.0155,1.008,0.06,-0.64,-0.02,23750.0,18550.0,-33760.0
32.7588654,35.0228559,478.06,-0.056,0.049,1.00875,0.42,-0.06,0.02,23750.0,18540.0,-33760.0
32.7588654,35.0228559,478.06,-0.05675,0.056,0.9845,0.02,0.52,-0.02,23750.0,18480.0,-33760.0
32.7588654,35.0228559,478.06,-0.0525,0.02275,0.9875,-0.44,-0.24,0.04,23800.0,18500.0,-33760.0
32.7588654,35.0228559,478.06,-0.0495,0.0215,1.00575,0.08,-0.46,0.02,23760.0,18530.0,-33760.0
32.7588654,35.0228559,478.06,-0.0585,0.05025,0.9975,0.38,0.52,0.04,23770.0,18580.0,-33760.0
32.7588654,35.0228559,478.06,-0.06375,0.0455,0.98625,-0.14,0.42,-0.02,23840.0,18630.0,-33740.0
32.7588654,35.0228559,478.06,-0.06125,0.02525,1.003,-0.32,-0.52,-0.08,23850.0,18570.0,-33740.0
32.7588654,35.0228559,478.06,-0.05825,0.03675,1.0085,0.14,-0.18,0.06,23810.0,18540.0,-33750.0
