SampleTimeFine,Acc_X,Acc_Y,Acc_Z,Gyr_X,Gyr_Y,Gyr_Z
2822680080.0,0.0,0.0,0.0,0.0,0.0,0.0
2822688413.0,-0.8275283575057983,0.3824195861816406,9.832427978515623,-3.2157645225524902,-2.48078989982605,-0.358291894197464
2822696746.0,-0.8212393522262573,0.0254278108477592,9.864459991455078,-3.4994683265686035,-2.656580686569214,-0.3240713477134704
2822705079.0,-0.817240834236145,-0.2037296146154403,9.869890213012695,-3.320322275161743,-2.743694543838501,-0.3335998356342315
2822713412.0,-0.8934082388877869,0.0352625921368598,9.843689918518066,-2.882651090621948,-2.778785467147827,-0.3822923898696899
2822721745.0,-0.8894520998001099,0.3917674422264099,9.730799674987791,-2.793078660964966,-2.99714732170105,-0.438515692949295
2822730078.0,-0.6603611707687378,0.3610519468784332,9.75807285308838,-2.9398229122161865,-3.1426618099212646,-0.4216103553771972
2822738411.0,-0.5152913928031921,0.0711330771446228,9.882287979125977,-3.42569899559021,-3.008110284805298,-0.3215098977088928
2822746744.0,-0.6032766103744507,-0.0457624942064285,9.932056427001951,-3.375572204589844,-2.689750909805298,-0.168900266289711
2822755077.0,-0.829794704914093,0.1091749668121337,9.809566497802734,-3.195094108581543,-2.3059215545654297,-0.269359290599823
2822763410.0,-0.9211878776550292,0.2002588063478469,9.77664566040039,-2.873814582824707,-2.433454751968384,-0.5192005038261414
2822771743.0,-0.8499222993850708,0.089082047343254,9.838482856750488,-2.90993070602417,-2.582298994064331,-0.338415265083313
2822780076.0,-0.8526647686958313,0.1690859496593475,9.811763763427734,-3.17076063156128,-2.765568971633911,-0.3062438070774078
2822788409.0,-0.9084192514419556,0.3530501425266266,9.750473022460938,-3.333616018295288,-2.9346232414245605,-0.3576003611087799
2822796742.0,-0.820683479309082,0.2174305170774459,9.74615478515625,-3.4807698726654053,-3.1767799854278564,-0.2836264371871948
2822805075.0,-0.6193736791610718,-0.0612261816859245,9.84843921661377,-3.4027488231658936,-3.230825901031494,-0.428090751171112
2822813408.0,-0.5375940203666687,-0.1311086118221283,9.890440940856934,-2.999171018600464,-2.957343101501465,-0.4382852017879486
2822821741.0,-0.6503546237945557,0.1635259687900543,9.856554985046388,-2.911057472229004,-2.6035075187683105,-0.4546782672405243
2822830074.0,-0.8103429675102234,0.4195507168769836,9.81155014038086,-2.945739269256592,-2.4302525520324707,-0.4777054190635681
2822838407.0,-0.8601845502853394,0.1818491816520691,9.81272029876709,-3.375008583068848,-2.6309151649475098,-0.3337535262107849
2822846740.0,-0.8561858534812927,-0.1164204254746437,9.878037452697754,-3.3850362300872803,-2.670501708984375,-0.2552586793899536
2822855073.0,-0.9051958322525024,0.0034200644586235,9.874459266662598,-2.95426869392395,-2.737521171569824,-0.4057294726371765
2822863406.0,-0.9218254685401917,0.3933264315128326,9.763981819152832,-2.78352427482605,-2.870919704437256,-0.4015799164772033
2822871739.0,-0.7381938695907593,0.4238637685775757,9.754386901855469,-2.9479682445526123,-3.2180960178375244,-0.4163850247859955
2822880072.0,-0.524005115032196,0.1655960828065872,9.877609252929688,-3.362842082977295,-3.216225862503052,-0.2645950615406036
2822888405.0,-0.5403501987457275,0.0192442517727613,9.916672706604004,-3.417041301727295,-2.732168197631836,-0.2323211282491684
2822896738.0,-0.7598466873168945,0.197545051574707,9.813701629638672,-3.225984811782837,-2.41862416267395,-0.2982265651226043
2822905071.0,-0.8879716992378235,0.2952325642108917,9.78242301940918,-3.050168514251709,-2.464012622833252,-0.3917953073978424
2822913404.0,-0.8658172488212585,0.1865334957838058,9.820378303527832,-3.104931831359864,-2.651662349700928,-0.4229934513568878
2822921737.0,-0.8360157608985901,0.1708724200725555,9.861742973327637,-3.190176010131836,-2.679248571395874,-0.3539630770683288
2822930070.0,-0.9273370504379272,0.2982571721076965,9.83193302154541,-3.535353660583496,-2.788160800933838,-0.335495263338089
2822938403.0,-0.8641147613525391,0.1785361468791961,9.800190925598145,-3.539759397506714,-2.9963533878326416,-0.214365541934967
2822946736.0,-0.6625982522964478,-0.0545443370938301,9.911100387573242,-3.294041872024536,-3.1692495346069336,-0.3476876318454742
2822955069.0,-0.5233134031295776,-0.24418805539608,9.95823860168457,-3.2373831272125244,-2.994252920150757,-0.3815752863883972
2822963402.0,-0.5727041959762573,-0.0363606624305248,9.961299896240234,-2.8635175228118896,-2.729222059249878,-0.426144003868103
2822971735.0,-0.7593322992324829,0.2946073412895202,9.892779350280762,-2.7559123039245605,-2.4211599826812744,-0.2969458103179931
2822980068.0,-0.8509024977684021,0.1864536553621292,9.846943855285645,-3.0583138465881348,-2.4220306873321533,-0.313338965177536
2822988401.0,-0.8460225462913513,-0.1559555381536483,9.91520881652832,-3.158875226974488,-2.540778160095215,-0.3394910395145416
2822996734.0,-0.911843240261078,-0.1152133271098136,9.903812408447266,-2.910238027572632,-2.649203300476074,-0.4379777610301971
2823005067.0,-0.975156307220459,0.2877871692180633,9.800071716308594,-2.708372116088867,-2.828195571899414,-0.3115715384483337
2823013400.0,-0.8273422122001648,0.3960269093513489,9.758737564086914,-2.8372890949249268,-3.2602314949035645,-0.4022203683853149
2823021733.0,-0.6407688856124878,0.1953134536743164,9.823155403137209,-3.0607986450195312,-3.2608461380004883,-0.2249442189931869
2823030066.0,-0.5691888332366943,0.030131971463561,9.891231536865234,-3.3958842754364014,-2.809600114822388,-0.2827043533325195
2823038399.0,-0.7342198491096497,0.0481555163860321,9.837976455688477,-3.183720827102661,-2.495722770690918,-0.2561423182487488
2823046732.0,-0.854989767074585,0.1687522530555725,9.82107162475586,-3.0324947834014893,-2.386887788772583,-0.2830372750759125
2823055065.0,-0.8946990966796875,0.048852901905775,9.824362754821776,-2.913388729095459,-2.5556347370147705,-0.4041926264762878
2823063398.0,-0.8517312407493591,-0.0545777454972267,9.888389587402344,-2.886467933654785,-2.850069999694824,-0.286495178937912
2823071731.0,-0.9083881378173828,0.0853125154972076,9.920029640197754,-3.02196741104126,-2.7753021717071533,-0.3919489979743957
2823080064.0,-0.8847213387489319,0.0444815307855606,9.872721672058104,-3.0289344787597656,-2.9856719970703125,-0.2610090672969818
2823088397.0,-0.7538607716560364,-0.1445307731628418,9.875161170959473,-2.8636457920074463,-2.982419013977051,-0.3184105455875397
2823096730.0,-0.5993996858596802,-0.3075590133666992,9.979554176330566,-2.7591392993927,-3.021736621856689,-0.249303326010704
2823105063.0,-0.5676615238189697,-0.1780172735452652,9.986898422241213,-2.371570348739624,-2.7902605533599854,-0.2610602378845215
2823113396.0,-0.7249689698219299,0.0776203647255897,9.945777893066406,-2.3010549545288086,-2.343292713165283,-0.3174116313457489
2823121729.0,-0.8703179955482483,0.0331223793327808,9.93961238861084,-2.576689958572388,-2.3022077083587646,-0.3257362246513366
2823130062.0,-0.9084187150001526,-0.2188414633274078,9.969907760620115,-2.646795749664306,-2.4881153106689453,-0.2386222183704376
2823138395.0,-0.9184695482254028,-0.1693815439939499,9.919590950012209,-2.308867216110229,-2.629685401916504,-0.3002500534057617
2823146728.0,-0.9775009155273438,0.1413090229034423,9.897552490234377,-1.9837970733642576,-2.811264991760254,-0.3613656461238861
2823155061.0,-0.9060210585594176,0.315045565366745,9.81644058227539,-2.153388500213623,-3.068635940551758,-0.2894152104854584
2823163394.0,-0.6892231702804565,0.2682469487190246,9.848210334777832,-2.3703155517578125,-3.2398674488067627,-0.2369572669267654
2823171727.0,-0.5700881481170654,0.0321924053132534,9.937499046325684,-2.7885448932647705,-3.000502586364746,-0.133194014430046
2823180060.0,-0.6970050930976868,-0.0072512351907789,9.89603042602539,-2.621437788009644,-2.51534366607666,-0.1924397498369217
2823188393.0,-0.9074563384056092,0.2424923479557037,9.81906509399414,-2.268883228302002,-2.2730839252471924,-0.2706143856048584
2823196726.0,-0.987092137336731,0.3222379088401794,9.740266799926758,-2.274749279022217,-2.548283576965332,-0.3559097945690155
2823205059.0,-0.905006229877472,0.302808403968811,9.781947135925291,-2.306920289993286,-2.889772415161133,-0.1664156913757324
2823213392.0,-0.9326645135879515,0.4526384770870209,9.767135620117188,-2.610756158828736,-2.700329303741455,-0.2054261267185211
2823221725.0,-0.9382269978523254,0.4580141007900238,9.745577812194824,-2.9028356075286865,-2.946584701538086,-0.3009416460990906
2823230058.0,-0.8307840824127197,0.2103548496961593,9.730908393859863,-2.9542689323425293,-3.046147108078003,-0.2352667450904846
2823238391.0,-0.5965080261230469,0.1541633009910583,9.7273588180542,-2.821997165679932,-3.224960327148437,-0.32588991522789
2823246724.0,-0.504531741142273,0.3498422801494598,9.753045082092283,-2.624946594238281,-2.850735664367676,-0.1495871096849441
2823255057.0,-0.6292580962181091,0.5190377235412598,9.74518871307373,-2.7070910930633545,-2.5728983879089355,-0.1682342588901519
2823263390.0,-0.7486670613288879,0.4832373559474945,9.724676132202148,-3.1043174266815186,-2.38642692565918,-0.1540696173906326
2823271723.0,-0.7548235058784485,0.2099013477563858,9.792678833007812,-3.2650208473205566,-2.476332902908325,-0.3000451326370239
2823280056.0,-0.8174763917922974,0.093618519604206,9.778637886047363,-3.023939609527588,-2.66249680519104,-0.3631329238414764
2823288389.0,-0.8600137233734131,0.2636803090572357,9.780539512634276,-2.7445647716522217,-2.6629581451416016,-0.3703305423259735
2823296722.0,-0.8316333889961243,0.3638369739055633,9.775837898254396,-2.712700605392456,-2.89363956451416,-0.4724544882774353
2823305055.0,-0.6297619342803955,0.266362577676773,9.798598289489746,-2.788083791732788,-3.1086716651916504,-0.4032705128192901
2823313388.0,-0.4415279924869537,0.1704014390707016,9.84878635406494,-3.106289863586426,-3.0448153018951416,-0.2226133346557617
2823321721.0,-0.4823949635028839,0.0531725361943244,9.885693550109863,-3.108184814453125,-2.555199146270752,-0.2517623007297516
2823330054.0,-0.654396653175354,0.1128316149115562,9.892048835754396,-2.678480625152588,-2.1778247356414795,-0.4995288252830505
2823338387.0,-0.7735273838043213,0.2651324570178985,9.8697509765625,-2.473874092102051,-2.2981348037719727,-0.4727363288402557
2823346720.0,-0.7965818047523499,0.3574439287185669,9.825135231018066,-2.6493828296661377,-2.372749090194702,-0.4006322622299194
2823355053.0,-0.7929311990737915,0.374495267868042,9.826181411743164,-2.9816505908966064,-2.607682704925537,-0.2446671724319458
2823363386.0,-0.9002290368080139,0.3213354051113128,9.853196144104004,-3.1207613945007324,-2.582452774047852,-0.3845208883285522
2823371719.0,-0.8825322985649109,0.1744459122419357,9.87033462524414,-3.214766025543213,-2.80511736869812,-0.2680017650127411
2823380052.0,-0.746626615524292,0.1052824854850769,9.824701309204102,-3.020635843276977,-3.225062847137451,-0.1967941671609878
2823388385.0,-0.5868255496025085,0.164476677775383,9.84908962249756,-2.852452516555786,-2.9481213092803955,-0.2438474893569946
2823396718.0,-0.6050785779953003,0.2612608671188354,9.906072616577148,-2.974760293960572,-2.5398309230804443,-0.2044015973806381
2823405051.0,-0.7344842553138733,0.3207275569438934,9.927084922790527,-2.9920241832733154,-2.381098985671997,-0.2493801563978195
2823413384.0,-0.8424835801124573,0.1493701338768005,9.903512001037598,-3.4006481170654297,-2.3426523208618164,-0.20598965883255
2823421717.0,-0.8692952394485474,-0.1787657141685485,9.910890579223633,-3.2796976566314697,-2.406892776489258,-0.3499416410923004
2823430050.0,-0.8881111145019531,-0.1377200037240982,9.92893886566162,-2.930345296859741,-2.4591970443725586,-0.2419520914554596
2823438383.0,-0.97970449924469,0.1795659959316253,9.906137466430664,-2.5038933753967285,-2.6744585037231445,-0.2400821894407272
2823446716.0,-0.8765644431114197,0.2757003009319305,9.81888198852539,-2.5948755741119385,-3.016998052597046,-0.2665160894393921
2823455049.0,-0.6763810515403748,0.1022360324859619,9.854044914245604,-3.0136942863464355,-2.989309549331665,-0.2402359247207641
2823463382.0,-0.5755189061164856,-0.1165655702352523,9.963757514953612,-3.0526273250579834,-2.725764274597168,-0.2695129513740539
2823471715.0,-0.8128212094306946,-0.1414798647165298,9.910539627075195,-2.823073148727417,-2.227030038833618,-0.2640315890312195
2823480048.0,-0.9573026299476624,0.0042813140898942,9.847137451171877,-2.430483341217041,-2.2745954990386963,-0.3002244234085083
2823488381.0,-0.958516001701355,0.0635444000363349,9.816689491271973,-2.3172430992126465,-2.544774293899536,-0.2630069553852081
2823496714.0,-0.8839212656021118,0.1862252503633499,9.869556427001951,-2.522054433822632,-2.623307228088379,-0.3966107964515686
2823505047.0,-1.0012468099594116,0.3063330352306366,9.802010536193848,-2.853630542755127,-2.689110279083252,-0.2873660624027252
2823513380.0,-0.9543047547340392,0.1306038051843643,9.795130729675291,-3.034774780273437,-2.871509790420532,-0.3255569338798523
2823521713.0,-0.8379326462745667,-0.1017597839236259,9.83906364440918,-2.905319929122925,-2.8718419075012207,-0.2482787370681762
2823530046.0,-0.6963697671890259,-0.0334958136081695,9.80386734008789,-2.670335054397583,-2.911416292190552,-0.3257874250411987
2823538379.0,-0.6779637336730957,0.1461923718452453,9.808399200439451,-2.462859869003296,-2.640033721923828,-0.3086515665054321
2823546712.0,-0.8148859143257141,0.306280255317688,9.829645156860352,-2.558375120162964,-2.444827079772949,-0.3208182752132416
2823555045.0,-0.9187389016151428,0.2236059606075287,9.819448471069336,-2.885827779769897,-2.490574598312378,-0.3980452418327331
2823563378.0,-0.8969032168388367,-0.0377048589289188,9.825685501098633,-3.0782675743103027,-2.5992043018341064,-0.3199217617511749
2823571711.0,-0.9110240340232848,-0.0877153873443603,9.832490921020508,-2.716773509979248,-2.78905725479126,-0.3574210405349731
2823580044.0,-0.9510157108306884,0.1400972753763198,9.821806907653809,-2.369880437850952,-2.880525827407837,-0.3417194783687591
2823588377.0,-0.869810163974762,0.2766858637332916,9.77702522277832,-2.4502320289611816,-3.101320266723633,-0.5125920176506042
2823596710.0,-0.6560037732124329,0.2204781770706176,9.846320152282717,-2.482454776763916,-3.275932788848877,-0.3703818321228027
2823605043.0,-0.537550687789917,0.070151187479496,9.927969932556152,-2.859137773513794,-2.938465118408203,-0.2545798718929291
2823613376.0,-0.6148754954338074,-0.0109882578253746,9.901455879211426,-2.736547946929932,-2.4831206798553467,-0.342436671257019
2823621709.0,-0.8071871995925903,0.0575172193348407,9.90017318725586,-2.3004400730133057,-2.290731906890869,-0.3475595414638519
2823630042.0,-0.8708632588386536,0.185981348156929,9.80034065246582,-2.130284786224365,-2.5251283645629883,-0.3437430262565613
2823638375.0,-0.810314953327179,0.2870153486728668,9.839726448059082,-2.1166837215423584,-2.782705068588257,-0.3468936383724212
2823646708.0,-0.8109796643257141,0.4137217104434967,9.860079765319824,-2.424489974975586,-2.6765851974487305,-0.2061689645051956
2823655041.0,-0.882986307144165,0.3462021052837372,9.819072723388672,-2.7773001194000244,-2.765466451644897,-0.2594721913337707
2823663374.0,-0.799769937992096,0.1213662549853324,9.792299270629885,-2.681041955947876,-3.0093138217926025,-0.0942859947681427
2823671707.0,-0.6162018179893494,0.1181491091847419,9.808797836303713,-2.557145595550537,-3.102856636047364,-0.1152384355664253
2823680040.0,-0.5469177961349487,0.3087162375450134,9.805331230163574,-2.354332208633423,-3.011721611022949,-0.1378301978111267
2823688373.0,-0.6463329792022705,0.5484381914138794,9.811708450317385,-2.403204202651977,-2.591135740280152,-0.1841151118278503
2823696706.0,-0.7498261332511902,0.6300909519195557,9.74855899810791,-2.699740409851074,-2.3451881408691406,-0.2159536331892013
2823705039.0,-0.7735772728919983,0.3814448714256286,9.782245635986328,-3.231414794921875,-2.614419221878052,-0.1693100929260254
2823713372.0,-0.8039551377296448,0.1456688493490219,9.804954528808594,-3.1555449962615967,-2.5275866985321045,-0.0693633407354354
2823721705.0,-0.8781533241271973,0.3182775378227234,9.742745399475098,-2.617185592651367,-2.6514317989349365,-0.1953341513872146
2823730038.0,-0.8909921050071716,0.6036884784698486,9.742467880249023,-2.613548517227173,-2.826556444168091,-0.3063718676567077
2823738371.0,-0.7498759031295776,0.5788972973823547,9.667034149169922,-2.8330368995666504,-3.156800508499145,-0.2655171751976013
2823746704.0,-0.5450186729431152,0.5008570551872253,9.745283126831056,-3.1478872299194336,-3.15662145614624,-0.3305004835128784
2823755037.0,-0.5302354693412781,0.3746835887432098,9.814372062683104,-3.653819561004639,-2.8333957195281982,-0.2969458401203155
2823763370.0,-0.7307692766189575,0.2293299436569214,9.783489227294922,-3.234360456466675,-2.282510280609131,-0.2693336904048919
2823771703.0,-0.8609674572944641,0.348911315202713,9.714661598205566,-2.9980950355529785,-2.424720287322998,-0.4506312310695648
2823780036.0,-0.8438042998313904,0.4357294738292694,9.688441276550291,-2.918869972229004,-2.758371353149414,-0.3912574052810669
2823788369.0,-0.7779069542884827,0.4717229604721069,9.730549812316896,-3.186513662338257,-2.7845239639282227,-0.393101692199707
2823796702.0,-0.9024426341056824,0.5065076947212219,9.711703300476074,-3.427978992462158,-2.760395050048828,-0.4492737352848053
2823805035.0,-0.8380358815193176,0.3675235211849212,9.733418464660645,-3.703434467315674,-2.989053249359131,-0.402117908000946
2823813368.0,-0.702570915222168,0.1500880122184753,9.71269702911377,-3.60845685005188,-3.152087926864624,-0.4430494606494903
2823821701.0,-0.5787464380264282,0.1597311496734619,9.741277694702148,-3.31204891204834,-3.0336475372314453,-0.3067561388015747
2823830034.0,-0.5974819660186768,0.3126522004604339,9.758139610290527,-3.2465531826019287,-2.7712810039520264,-0.3560122847557068
2823838367.0,-0.7287922501564026,0.4288347363471985,9.761788368225098,-3.418732166290283,-2.442035675048828,-0.3906171023845672
2823846700.0,-0.8302355408668518,0.2545263767242431,9.776808738708496,-3.624849796295166,-2.549461603164673,-0.4017592966556549
2823855033.0,-0.8039607405662537,0.0328848771750927,9.78697681427002,-3.720723867416382,-2.695719003677368,-0.4399245083332062
2823863366.0,-0.8268246054649353,0.0043478878214955,9.75985050201416,-3.3778774738311768,-2.7239458560943604,-0.4431519210338592
2823871699.0,-0.9003288149833679,0.2235450893640518,9.759211540222168,-3.149603366851806,-2.797945499420166,-0.420124739408493
2823880032.0,-0.8293193578720093,0.305123507976532,9.75967025756836,-3.136360883712769,-3.1017813682556152,-0.2993279695510864
2823888365.0,-0.6075937151908875,0.1739318668842315,9.822346687316896,-3.503822088241577,-3.1577486991882324,-0.3915904760360718
2823896698.0,-0.5054135918617249,-0.048736322671175,9.87613296508789,-3.686067819595337,-2.8607006072998047,-0.2152620404958725
2823905031.0,-0.6332498788833618,-0.0594139248132705,9.84743595123291,-3.434023857116699,-2.579968214035034,-0.2913875579833984
2823913364.0,-0.8435044288635254,0.0771745666861534,9.87278652191162,-3.1818768978118896,-2.416344404220581,-0.380909264087677
2823921697.0,-0.8353425860404968,0.1089800223708152,9.813703536987305,-2.9505293369293213,-2.5579655170440674,-0.4704054296016693
2823930030.0,-0.7710062861442566,0.1614494174718856,9.837150573730469,-3.0728118419647217,-2.715160131454468,-0.3223039209842682
2823938363.0,-0.8914425373077393,0.231533944606781,9.826715469360352,-3.334563732147217,-2.556684970855713,-0.4142846763134002
2823946696.0,-0.9224684238433838,0.1646214574575424,9.883034706115724,-3.559456825256348,-2.8301682472229004,-0.3350854516029358
2823955029.0,-0.8102095127105713,-0.0053967591375112,9.825182914733888,-3.3669910430908203,-2.9859282970428467,-0.2432840019464492
2823963362.0,-0.6423879265785217,-0.0505817309021949,9.85179328918457,-3.0927908420562744,-3.156083822250366,-0.3393630385398865
2823971695.0,-0.5945226550102234,0.0563298501074314,9.894561767578123,-2.9810612201690674,-2.8534257411956787,-0.3259667456150055
2823980028.0,-0.6998899579048157,0.2851460576057434,9.8710298538208,-2.9403345584869385,-2.4312005043029785,-0.2595489919185638
2823988361.0,-0.8101752996444702,0.3419888913631439,9.850875854492188,-3.2305948734283447,-2.512397766113281,-0.2809881567955017
2823996694.0,-0.8309794068336487,0.0453907921910285,9.857441902160645,-3.585942029953003,-2.6044554710388184,-0.3678460419178009
2824005027.0,-0.9114813208580016,-0.1601366996765136,9.83780002593994,-3.4082303047180176,-2.5983340740203857,-0.2505072355270386
2824013360.0,-0.9602351188659668,0.0755362510681152,9.826836585998535,-2.932650566101074,-2.76106071472168,-0.286162257194519
2824021693.0,-0.9540373682975768,0.3655286133289337,9.798752784729004,-2.8118796348571777,-3.051475048065185,-0.3412840664386749
2824030026.0,-0.7860199809074402,0.3138964474201202,9.806512832641602,-2.9840071201324463,-3.18615460395813,-0.2842923998832702
2824038359.0,-0.5931820869445801,0.0937203615903854,9.857369422912598,-3.301547050476074,-3.060312271118164,-0.2885187566280365
2824046692.0,-0.6035247445106506,-0.0285662300884723,9.927227973937988,-3.4864306449890137,-2.681605577468872,-0.2996353209018707
2824055025.0,-0.8395576477050781,0.0840959474444389,9.849815368652344,-3.027064085006714,-2.388911485671997,-0.3785783350467682
2824063358.0,-0.946117341518402,0.2277662754058838,9.771574020385742,-2.720231771469116,-2.565214395523072,-0.6112324595451355
2824071691.0,-0.8669448494911194,0.1861439049243927,9.820515632629396,-2.825301170349121,-2.8630566596984863,-0.4478905797004699
2824080024.0,-0.8193973302841187,0.211102157831192,9.862298965454102,-3.053139925003052,-2.739928722381592,-0.4011188745498657
2824088357.0,-0.9297381043434144,0.3236909508705139,9.802440643310549,-3.291224479675293,-2.8293228149414062,-0.2602406442165375
2824096690.0,-0.925788640975952,0.2263792902231216,9.764123916625977,-3.3648910522460938,-2.9169492721557617,-0.326504647731781
2824105023.0,-0.7310010194778442,0.0731575116515159,9.798325538635254,-3.2164053916931152,-3.374393939971924,-0.3255825638771057
2824113356.0,-0.5562973022460938,0.0050017950125038,9.872832298278809,-2.876094579696656,-3.031444787979126,-0.2981497049331665
2824121689.0,-0.6402170658111572,0.3102734386920929,9.821455001831056,-2.767464160919189,-2.555814027786255,-0.3153624534606933
2824130022.0,-0.8215197920799255,0.5387237668037415,9.800429344177246,-3.0216856002807617,-2.5619101524353027,-0.3500953316688537
2824138355.0,-0.851388156414032,0.2941370010375976,9.807072639465332,-3.3648910522460938,-2.726430654525757,-0.2986107766628265
2824146688.0,-0.7994422316551208,-0.0641525462269783,9.902743339538574,-3.404080629348755,-2.637139081954956,-0.3897974193096161
2824155021.0,-0.8397151827812195,0.05836683511734,9.86101531982422,-3.1053926944732666,-2.6950783729553223,-0.3512992262840271
2824163354.0,-0.9495913982391356,0.4606089890003204,9.715736389160156,-2.753196954727173,-2.870561361312866,-0.4093666970729828
2824171687.0,-0.8081251382827759,0.5598574280738831,9.735809326171877,-2.963362216949463,-3.1666109561920166,-0.3921027183532715
2824180020.0,-0.5413244962692261,0.2810739278793335,9.86855125427246,-3.331003427505493,-3.1920461654663086,-0.4055758118629455
2824188353.0,-0.4904112815856933,0.0676142573356628,9.920236587524414,-3.549979448318481,-2.798150062561035,-0.2424387484788894
2824196686.0,-0.7159259915351868,0.1731570810079574,9.825382232666016,-3.364173412322998,-2.37287712097168,-0.231731966137886
2824205019.0,-0.8706274032592773,0.3269782960414886,9.793085098266602,-2.959724903106689,-2.4511539936065674,-0.3741215169429779
2824213352.0,-0.8290266394615173,0.2806737124919891,9.84877586364746,-2.961645603179932,-2.7122395038604736,-0.3628512024879455
2824221685.0,-0.7561786770820618,0.2783470153808594,9.867891311645508,-3.1565186977386475,-2.722588062286377,-0.2816284894943237
2824230018.0,-0.9046664237976074,0.3914847373962402,9.790225982666016,-3.463813304901123,-2.5897529125213623,-0.2279411107301712
2824238351.0,-0.9085586667060852,0.3460581004619598,9.798818588256836,-3.621724843978882,-2.818564891815185,-0.2794769406318664
2824246684.0,-0.7543624043464661,0.1019725278019905,9.80979347229004,-3.410100221633911,-3.202061414718628,-0.4345455169677734
2824255017.0,-0.560775637626648,-0.0153923174366354,9.863897323608398,-3.128138780593872,-3.184361934661865,-0.3600849509239197
2824263350.0,-0.5866739153862,0.179086834192276,9.882572174072266,-2.9616971015930176,-2.7926433086395264,-0.2875710427761078
2824271683.0,-0.7704645395278931,0.4594268798828125,9.82846450805664,-3.11279559135437,-2.485374927520752,-0.3062437772750854
2824280016.0,-0.8515029549598694,0.3498298227787018,9.766258239746094,-3.4446282386779785,-2.512603044509888,-0.4461744129657745
2824288349.0,-0.8269540071487427,-0.0588567219674587,9.890788078308104,-3.640986919403076,-2.586064577102661,-0.3788345456123352
2824296682.0,-0.8838593363761902,-0.1391454190015792,9.854684829711914,-3.341428518295288,-2.647846221923828,-0.3644649684429168
2824305015.0,-0.9825727939605712,0.2408604025840759,9.774094581604004,-2.956907272338867,-2.733397483825684,-0.3723284900188446
2824313348.0,-0.8999692797660828,0.4564744830131531,9.72394561767578,-2.903655529022217,-3.147579908370972,-0.3674362301826477
2824321681.0,-0.6624097228050232,0.2678175866603851,9.81822681427002,-3.359384059906006,-3.266096830368042,-0.3382104039192199
2824330014.0,-0.5120077133178711,-0.0412697419524192,9.910531044006348,-3.6287689208984375,-3.000118494033813,-0.3329850733280182
2824338347.0,-0.654384434223175,-0.0546133108437061,9.88314151763916,-3.5406298637390137,-2.482224464416504,-0.2121627330780029
2824346680.0,-0.9106475710868835,0.1379430145025253,9.790549278259276,-3.108748435974121,-2.480149507522583,-0.2640571594238281
2824355013.0,-0.938427209854126,0.1662104874849319,9.769670486450195,-2.9503750801086426,-2.736470937728882,-0.3793980181217193
2824363346.0,-0.8211876153945923,0.1051877960562706,9.830140113830566,-3.0520384311676025,-2.7215893268585205,-0.2973300516605377
2824371679.0,-0.8866760730743408,0.2392891943454742,9.831880569458008,-3.226241111755371,-2.782935619354248,-0.3393886387348175
2824380012.0,-0.9283496141433716,0.2962519228458404,9.783977508544922,-3.5580735206604004,-2.981522798538208,-0.2556557059288025
2824388345.0,-0.8099680542945862,0.0401658415794372,9.78480339050293,-3.4400174617767334,-3.0717103481292725,-0.3579332828521728
2824396678.0,-0.6247031092643738,-0.1474697887897491,9.852375030517578,-3.0821099281311035,-3.209771156311035,-0.3197425007820129
2824405011.0,-0.5541642308235168,0.016480840742588,9.864838600158691,-2.855090856552124,-2.781270265579224,-0.2803990244865417
2824413344.0,-0.7280350923538208,0.3675099015235901,9.82022476196289,-2.954089403152466,-2.5737950801849365,-0.2810137569904327
2824421677.0,-0.8699058294296265,0.4310942888259887,9.799795150756836,-3.147400379180908,-2.6003568172454834,-0.4724801480770111
2824430010.0,-0.8295345902442932,0.0782371014356613,9.85297679901123,-3.4722659587860107,-2.5103745460510254,-0.2926682829856872
2824438343.0,-0.8410096764564514,-0.1751630157232284,9.864043235778809,-3.308488607406616,-2.6977427005767822,-0.3312433063983917
2824446676.0,-0.904751718044281,0.1026809513568878,9.85085105895996,-2.921764373779297,-2.77637791633606,-0.2874685823917389
2824455009.0,-0.8999173641204834,0.4822272658348083,9.77092742919922,-2.6537373065948486,-3.043739557266236,-0.3976610004901886
2824463342.0,-0.6817551255226135,0.4606817662715912,9.769673347473145,-2.98756742477417,-3.185155868530273,-0.3288099467754364
2824471675.0,-0.5303900837898254,0.1376688927412033,9.874273300170898,-3.4371232986450195,-3.147477388381958,-0.3089589178562164
2824480008.0,-0.5814996957778931,0.0195379927754402,9.893106460571287,-3.517244577407837,-2.616647720336914,-0.2545799016952514
2824488341.0,-0.8163465857505798,0.2089587748050689,9.823700904846191,-3.1019606590271,-2.3106088638305664,-0.3352390825748443
2824496674.0,-0.8951725959777832,0.3010983467102051,9.783567428588867,-2.7856760025024414,-2.521746873855591,-0.4347760081291199
2824505007.0,-0.8291828632354736,0.2112679481506347,9.856064796447754,-2.8416943550109863,-2.729503870010376,-0.3633635640144348
2824513340.0,-0.8522257208824158,0.3088644742965698,9.810819625854492,-3.008058786392212,-2.5572733879089355,-0.3047581315040588
2824521673.0,-0.9270283579826356,0.4473366737365722,9.779777526855469,-3.386996030807495,-2.8993520736694336,-0.3425904214382171
2824530006.0,-0.8448684215545654,0.2614103555679321,9.81491470336914,-3.4165806770324707,-3.1233999729156494,-0.3833682835102081
2824538339.0,-0.6722794771194458,0.0363330841064453,9.817955017089844,-3.267608165740967,-3.3023154735565186,-0.2409019023180008
2824546672.0,-0.5398420095443726,0.0112461196258664,9.83791160583496,-3.034364938735962,-2.961467027664185,-0.2405432909727096
2824555005.0,-0.6338472366333008,0.3145055770874023,9.851015090942385,-2.9014267921447754,-2.636985540390014,-0.3284769654273987
2824563338.0,-0.775756299495697,0.5670517683029175,9.807334899902344,-3.0036020278930664,-2.4492077827453613,-0.331115186214447
2824571671.0,-0.8644648790359497,0.270253837108612,9.805408477783203,-3.511507034301758,-2.489985466003418,-0.2728428542613983
2824580004.0,-0.8718895316123962,-0.0963684469461441,9.878507614135742,-3.458869695663452,-2.711318016052246,-0.379474937915802
2824588337.0,-0.9144178628921508,0.0159574300050735,9.862024307250977,-3.072581052780152,-2.7065792083740234,-0.4551905393600464
2824596670.0,-0.9748328924179076,0.4331200122833252,9.761438369750977,-2.812673330307007,-2.9072413444519043,-0.2432840019464492
2824605003.0,-0.8047823905944824,0.5395840406417847,9.72872543334961,-3.015026092529297,-3.2336947917938232,-0.3834195137023926
2824613336.0,-0.5629281997680664,0.2226190716028213,9.869750022888184,-3.3706796169281006,-3.232875347137451,-0.3074733316898346
2824621669.0,-0.5387352108955383,-0.0096311327069997,9.91014575958252,-3.629127025604248,-2.9071645736694336,-0.2682322859764099
2824630002.0,-0.7556706666946411,0.1067712157964706,9.827507019042969,-3.314046621322632,-2.4193155765533447,-0.3316275179386139
2824638335.0,-0.888154149055481,0.2711720168590545,9.808951377868652,-3.0952751636505127,-2.474462985992432,-0.3874921500682831
2824646668.0,-0.8667758107185364,0.1968098133802414,9.825142860412598,-2.902605056762696,-2.6708474159240723,-0.4705847203731537
2824655001.0,-0.8326625227928162,0.1922828108072281,9.84158992767334,-3.0945067405700684,-2.681169986724853,-0.3422317802906036
2824663334.0,-0.9443455934524536,0.3578241765499115,9.806838035583496,-3.3305423259735107,-2.880090475082397,-0.3928199112415313
2824671667.0,-0.9089474081993104,0.3018089532852173,9.806144714355469,-3.510840654373169,-3.034595251083374,-0.2451282292604446
2824680000.0,-0.7374707460403442,0.0027973712421953,9.800390243530272,-3.3556699752807617,-3.079881429672241,-0.3703306317329407
2824688333.0,-0.5969316363334656,-0.1750041842460632,9.880575180053713,-3.154162883758545,-3.0295238494873047,-0.2951528429985046
2824696666.0,-0.6034219861030579,0.1338184624910354,9.851798057556152,-2.8750953674316406,-2.779093265533448,-0.3285793662071228
2824704999.0,-0.751690685749054,0.4974800050258636,9.770090103149414,-2.910212278366089,-2.3875794410705566,-0.3606996536254883
2824713332.0,-0.8471671938896179,0.3451293110847473,9.80775547027588,-3.383589506149292,-2.564727783203125,-0.2503535449504852
2824721665.0,-0.8356884717941284,-0.0765517354011535,9.874947547912598,-3.591448783874512,-2.5556347370147705,-0.3679228723049164
2824729998.0,-0.886520504951477,-0.1580517143011093,9.896191596984863,-3.341453790664673,-2.795332908630371,-0.3522982001304626
2824738331.0,-0.9598894119262696,0.2417816817760467,9.800318717956545,-2.861878156661988,-2.8020176887512207,-0.350530743598938
2824746664.0,-0.8897016048431396,0.4160203635692596,9.756810188293455,-2.810624361038208,-3.0762951374053955,-0.406241774559021
2824754997.0,-0.6397611498832703,0.2328842729330063,9.814610481262209,-3.116586685180664,-3.3667867183685303,-0.3010441064834595
2824763330.0,-0.5314092040061951,0.0080260392278432,9.907252311706545,-3.4308221340179443,-3.014693021774292,-0.1872912794351577
2824771663.0,-0.6630229353904724,0.0475841462612152,9.881511688232422,-3.379465103149414,-2.27077865600586,-0.2857779860496521
2824779996.0,-0.880712628364563,0.207840234041214,9.77204132080078,-3.087616443634033,-2.303539514541626,-0.3756327331066131
2824788329.0,-0.8952045440673828,0.1847383975982666,9.787057876586914,-2.876837015151977,-2.6090660095214844,-0.4921775162220001
2824796662.0,-0.7976641654968262,0.1296999752521515,9.850046157836914,-2.940437078475952,-2.7931041717529297,-0.3479437530040741
2824804995.0,-0.8681310415267944,0.2761015594005584,9.829289436340332,-3.1167657375335693,-2.7074244022369385,-0.3599824607372284
2824813328.0,-0.9146406650543212,0.3592494130134582,9.785457611083984,-3.396728992462158,-2.8185391426086426,-0.3175908923149109
2824821661.0,-0.8096878528594971,0.0966282188892364,9.770293235778809,-3.419090747833252,-3.1057519912719727,-0.2246880978345871
2824829994.0,-0.6066828370094299,-0.0901238620281219,9.873464584350586,-3.2179675102233887,-3.138537883758545,-0.3261460363864898
2824838327.0,-0.5623083114624023,0.0992701724171638,9.895222663879396,-2.831397294998169,-2.8089849948883057,-0.3450493514537811
2824846660.0,-0.7196877002716064,0.4333789944648742,9.81519603729248,-2.903885841369629,-2.664853572845459,-0.3553975224494934
2824854993.0,-0.8600229024887085,0.4599804878234863,9.80072784423828,-3.2171733379364014,-2.46370530128479,-0.3711246252059936
2824863326.0,-0.8164920806884766,0.0698492228984832,9.870043754577637,-3.4354071617126465,-2.6462323665618896,-0.2621105015277862
2824871659.0,-0.8522248864173889,-0.1277268528938293,9.862211227416992,-3.375213623046875,-2.6232564449310303,-0.3554231524467468
2824879992.0,-0.9370036721229552,0.1902049034833908,9.82383632659912,-2.85299038887024,-2.7545034885406494,-0.3572929501533508
2824888325.0,-0.9238135814666748,0.4918038249015808,9.726551055908203,-2.774354696273804,-3.0551633834838867,-0.3709197342395782
2824896658.0,-0.6841971278190613,0.3807345628738403,9.790338516235352,-2.9992477893829346,-3.3222429752349854,-0.3613400459289551
2824904991.0,-0.5355166792869568,0.1258015781641006,9.88124656677246,-3.45302963256836,-3.1462223529815674,-0.3389275670051574
2824913324.0,-0.5957135558128357,0.1161039099097251,9.902408599853516,-3.4810004234313965,-2.541290760040283,-0.2854194343090057
2824921657.0,-0.8280458450317383,0.2534684240818023,9.82325839996338,-3.161897897720337,-2.324286699295044,-0.3777331113815307
2824929990.0,-0.9093271493911744,0.2567499876022339,9.79859733581543,-2.941768884658813,-2.539881944656372,-0.4598011374473572
2824938323.0,-0.8400115370750427,0.1582688391208648,9.859259605407717,-2.940001964569092,-2.7170557975769043,-0.4140797257423401
2824946656.0,-0.8708718419075012,0.3194566965103149,9.83800983428955,-3.1418163776397705,-2.7094738483428955,-0.3527336120605469
2824954989.0,-0.9666494727134703,0.4358278512954712,9.754785537719728,-3.339456081390381,-2.877170324325561,-0.3780917525291443
2824963322.0,-0.8431994915008545,0.2382144629955291,9.785505294799805,-3.4800779819488525,-3.168532133102417,-0.290337324142456
2824971655.0,-0.636580765247345,0.014733905903995,9.8529691696167,-3.238126277923584,-3.198782444000244,-0.3844440877437591
2824979988.0,-0.5577756762504578,-0.0078588426113128,9.870506286621094,-3.0278584957122803,-2.8662586212158203,-0.2876478731632232
2824988321.0,-0.7015452980995178,0.3262903988361358,9.815040588378906,-2.951361656188965,-2.5396127700805664,-0.2293114364147186
2824996654.0,-0.844864010810852,0.5008302330970764,9.794305801391602,-3.222168207168579,-2.483914852142334,-0.2667210102081299
2825004987.0,-0.8298729658126831,0.1779418289661407,9.832855224609377,-3.522802829742432,-2.558682918548584,-0.2486630231142044
2825013320.0,-0.8712109923362732,-0.0852524638175964,9.847217559814451,-3.391657829284668,-2.663188934326172,-0.2537090182304382
2825021653.0,-0.9534901976585388,0.1064778491854667,9.85659408569336,-3.061490058898926,-2.790926933288574,-0.456087052822113
2825029986.0,-0.939679741859436,0.4113709032535553,9.739755630493164,-2.838927984237671,-2.994688034057617,-0.3093686997890472
2825038319.0,-0.747955322265625,0.384827971458435,9.791415214538574,-3.0589287281036377,-3.262126445770264,-0.2755067348480224
2825046652.0,-0.5219485759735107,0.0761501193046569,9.8984956741333,-3.4956514835357666,-3.1637423038482666,-0.3122375309467315
2825054985.0,-0.5730946063995361,-0.0425893403589725,9.896109580993652,-3.582432508468628,-2.756348133087158,-0.1319901645183563
2825063318.0,-0.8033115267753601,0.1946892589330673,9.821450233459473,-3.1830039024353027,-2.5103230476379395,-0.3375699818134308
2825071651.0,-0.8996822834014893,0.256477802991867,9.79607391357422,-2.995020866394043,-2.5696451663970947,-0.4321632981300354
2825079984.0,-0.8371924161911011,0.1531441211700439,9.843469619750977,-2.989820957183838,-2.6504838466644287,-0.3118276298046112
2825088317.0,-0.8406001329421997,0.2057056427001953,9.842195510864258,-3.0668692588806152,-2.766183376312256,-0.4440227150917053
2825096650.0,-0.9437172412872314,0.3257380723953247,9.80104637145996,-3.448880195617676,-2.7071685791015625,-0.2170550525188446
2825104983.0,-0.8735504746437073,0.204096108675003,9.751272201538086,-3.3678879737854004,-2.9337522983551025,-0.3610326647758484
2825113316.0,-0.6893075108528137,0.0046430025249719,9.848395347595217,-3.253981590270996,-3.195990800857544,-0.2536833882331848
2825121649.0,-0.5380593538284302,-0.0831241309642791,9.882458686828612,-3.0788567066192627,-2.9845452308654785,-0.3796029984951019
2825129982.0,-0.6163270473480225,0.2536005973815918,9.846549034118652,-2.8817038536071777,-2.719488859176636,-0.3658224940299988
2825138315.0,-0.7668627500534058,0.4832644462585449,9.79735279083252,-2.99212646484375,-2.565290927886963,-0.4009139537811279
2825146648.0,-0.8283818960189819,0.2393258363008499,9.783308029174805,-3.5026955604553223,-2.483325719833374,-0.3296296000480652
2825154981.0,-0.8209431171417236,-0.120953731238842,9.892914772033691,-3.477516889572144,-2.533581018447876,-0.3713039755821228
2825163314.0,-0.8832529187202454,-0.0319051183760166,9.875687599182127,-3.094788312911988,-2.608348608016968,-0.3627744019031524
2825171647.0,-0.976210355758667,0.3661385178565979,9.78712272644043,-2.8659253120422363,-2.804040908813477,-0.3781172633171081
2825179980.0,-0.8157926201820374,0.4365768730640411,9.732928276062012,-2.9229941368103027,-3.17460298538208,-0.308779627084732
2825188313.0,-0.588799238204956,0.1914212107658386,9.851200103759766,-3.361048936843872,-3.3175556659698486,-0.3599312007427215
2825196646.0,-0.5325301885604858,-0.0006243017269298,9.901494979858398,-3.456461906433105,-2.7635200023651123,-0.3253263831138611
2825204979.0,-0.7179059386253357,0.143773540854454,9.8380126953125,-3.253904342651367,-2.3195486068725586,-0.3273499608039856
2825213312.0,-0.8867933750152588,0.2716366052627563,9.771642684936523,-3.084388971328736,-2.453331470489502,-0.408572643995285
2825221645.0,-0.872802197933197,0.1789947152137756,9.816584587097168,-2.9146182537078857,-2.6174161434173584,-0.4413076341152191
2825229978.0,-0.8164791464805603,0.1713247597217559,9.858327865600586,-3.0779857635498047,-2.6695923805236816,-0.297663003206253
2825238311.0,-0.9210805296897888,0.3365736901760101,9.80618953704834,-3.181032180786133,-2.856781482696533,-0.2456405311822891
2825246644.0,-0.8976740837097168,0.3667239844799042,9.772132873535156,-3.528873443603516,-2.904167652130127,-0.4202527999877929
2825254977.0,-0.7516300082206726,0.093873418867588,9.792593955993652,-3.332463264465332,-3.240482807159424,-0.3172323107719421
2825263310.0,-0.5902837514877319,-0.0423996150493621,9.866747856140137,-3.0999886989593506,-3.0582375526428223,-0.2586525678634643
2825271643.0,-0.600313663482666,0.175705686211586,9.909319877624512,-2.9697399139404297,-2.7089614868164062,-0.2057591378688812
2825279976.0,-0.7910010814666748,0.4671579301357269,9.803592681884766,-2.904167413711548,-2.478945732116699,-0.3369808793067932
2825288309.0,-0.892087459564209,0.3550352752208709,9.791427612304688,-3.256619453430176,-2.5357069969177246,-0.375274121761322
2825296642.0,-0.8428696393966675,-0.0129703115671873,9.877108573913574,-3.44132399559021,-2.5703887939453125,-0.3516578674316406
2825304975.0,-0.8928455710411072,-0.0371958650648593,9.845392227172852,-3.1880502700805664,-2.6987929344177246,-0.3439735472202301
2825313308.0,-0.9662070274353028,0.3589428067207336,9.80010223388672,-2.8280673027038574,-2.8636457920074463,-0.4258878529071808
2825321641.0,-0.8506412506103516,0.5325989723205566,9.70366382598877,-3.046838998794556,-3.12936806678772,-0.3971230685710907
2825329974.0,-0.6212944388389587,0.2720470130443573,9.84869384765625,-3.289764404296875,-3.2127935886383057,-0.3309615552425384
2825338307.0,-0.5244421362876892,0.036684077233076,9.914132118225098,-3.566936016082764,-2.976835250854492,-0.3349317610263824
2825346640.0,-0.6766474843025208,0.0642671436071395,9.857833862304688,-3.327570915222168,-2.55084490776062,-0.2785035669803619
2825354973.0,-0.8859293460845947,0.2654913365840912,9.799015998840332,-2.9758613109588623,-2.4863734245300293,-0.3564476370811462
2825363306.0,-0.8919671177864075,0.2583890259265899,9.81651210784912,-2.941948413848877,-2.669694662094116,-0.4271941781044006
2825371639.0,-0.8056785464286804,0.1953891217708587,9.8219633102417,-3.1121037006378174,-2.768027782440185,-0.2940514087677002
2825379972.0,-0.9081997871398926,0.3091837465763092,9.799692153930664,-3.3135344982147217,-2.8214592933654785,-0.3317811787128448
2825388305.0,-0.9273290634155272,0.3413592875003814,9.792439460754396,-3.5289759635925293,-2.8561668395996094,-0.3928199112415313
2825396638.0,-0.8104397654533386,0.1081719845533371,9.783170700073242,-3.42055082321167,-3.243889570236206,-0.3723285496234894
2825404971.0,-0.6067211031913757,-0.0889104232192039,9.869595527648926,-3.1857452392578125,-3.14880919456482,-0.3968157768249511
2825413304.0,-0.5225980281829834,0.0554290264844894,9.867840766906738,-2.9356472492218018,-2.9079840183258057,-0.2778375744819641
2825421637.0,-0.6911956071853638,0.3962558209896087,9.83896541595459,-2.923224210739136,-2.579199314117432,-0.3154392838478088
2825429970.0,-0.8354496955871582,0.4096166789531708,9.79643440246582,-3.242992401123047,-2.435221910476685,-0.3249421715736389
2825438303.0,-0.8380594253540039,0.0601727329194545,9.872334480285645,-3.4192442893981934,-2.6197218894958496,-0.2723305821418762
2825446636.0,-0.852556586265564,-0.1613014042377472,9.860343933105469,-3.404900550842285,-2.7036337852478027,-0.4249145984649658
2825454969.0,-0.9219565987586976,0.1327151507139206,9.833011627197266,-2.961005449295044,-2.776890516281128,-0.3449468910694122
2825463302.0,-0.9084320664405824,0.4165484607219696,9.756181716918944,-2.896355628967285,-3.039206027984619,-0.3922820389270782
2825471635.0,-0.6913490891456604,0.3571676015853882,9.7904691696167,-3.0927908420562744,-3.1955811977386475,-0.3860065042972564
2825479968.0,-0.5316472053527832,0.0495910681784153,9.871652603149414,-3.511481046676636,-3.03523588180542,-0.2962286174297333
2825488301.0,-0.5935753583908081,-0.0314399972558021,9.882695198059082,-3.3941426277160645,-2.6601407527923584,-0.2107027024030685
2825496634.0,-0.828084409236908,0.1969110816717147,9.82337760925293,-3.1096954345703125,-2.391293525695801,-0.3123399019241333
2825504967.0,-0.8978801369667053,0.2861008048057556,9.799439430236816,-2.821817874908448,-2.57079815864563,-0.507750928401947
2825513300.0,-0.8310448527336121,0.1437590420246124,9.85968017578125,-2.8667962551116943,-2.844127655029297,-0.3275292217731476
2825521633.0,-0.8652082085609436,0.2344097048044204,9.845712661743164,-3.100218772888184,-2.771280765533448,-0.21702940762043
2825529966.0,-0.9334906935691832,0.3374441564083099,9.781157493591309,-3.47026801109314,-2.8166182041168213,-0.3529898226261139
2825538299.0,-0.8433810472488403,0.1981258988380432,9.796955108642578,-3.3549015522003174,-3.045020341873169,-0.3371089696884155
2825546632.0,-0.6753864288330078,0.0079722516238689,9.836565971374512,-3.125884532928467,-3.242403745651245,-0.4407185614109039
2825554965.0,-0.5503109693527222,-0.0166397355496883,9.83984375,-2.883778810501098,-3.088897705078125,-0.3098554313182831
2825563298.0,-0.6601085066795349,0.320886880159378,9.838553428649902,-2.831730604171753,-2.579020500183105,-0.3319860994815826
2825571631.0,-0.8044321537017822,0.5215051770210266,9.811929702758787,-3.206953287124634,-2.4130656719207764,-0.3546802997589111
2825579964.0,-0.8663291931152344,0.2192122042179107,9.858101844787598,-3.4777984619140625,-2.590162754058838,-0.3447420001029968
2825588297.0,-0.8517770767211914,-0.1277016401290893,9.868806838989258,-3.483356714248657,-2.7761988639831543,-0.2722280919551849
2825596630.0,-0.9085062146186828,0.0272994115948677,9.857362747192385,-2.967895746231079,-2.7968180179595947,-0.3529897332191467
2825604963.0,-0.9242679476737976,0.429918110370636,9.752067565917969,-2.6881628036499023,-2.984032392501831,-0.4036034643650055
2825613296.0,-0.7760950922966003,0.5253795385360718,9.75108242034912,-2.980344533920288,-3.100654602050781,-0.4142078459262848
2825621629.0,-0.5527651906013489,0.2081559747457504,9.875539779663086,-3.313841819763184,-3.20723557472229,-0.3235334157943725
2825629962.0,-0.5557958483695984,-0.0246579833328723,9.929784774780272,-3.4351508617401123,-2.810983419418335,-0.1819379180669784
2825638295.0,-0.7917560338973999,0.114987164735794,9.853263854980469,-3.338559150695801,-2.4351449012756348,-0.3928199112415313
2825646628.0,-0.9089342951774596,0.278352826833725,9.78951644897461,-2.99589204788208,-2.4452884197235107,-0.3456896841526031
2825654961.0,-0.8868207931518555,0.2311107665300369,9.839354515075684,-2.784907817840576,-2.7668752670288086,-0.3454079627990722
2825663294.0,-0.8209688067436218,0.2070827782154083,9.829992294311523,-3.141739845275879,-2.752685070037842,-0.3616474270820617
2825671627.0,-0.9191833734512328,0.372243732213974,9.802376747131348,-3.4362268447875977,-2.8592405319213867,-0.1971271783113479
2825679960.0,-0.8865880370140076,0.3006446063518524,9.779314994812012,-3.431718587875366,-2.9628500938415527,-0.2747895419597626
2825688293.0,-0.7316527962684631,0.053953643888235,9.799599647521973,-3.38556170463562,-3.1332101821899414,-0.3484304547309875
2825696626.0,-0.5645732283592224,-0.0792338326573371,9.86374568939209,-3.0655887126922607,-3.0252718925476074,-0.3345474898815155
2825704959.0,-0.5847890973091125,0.1481301933526992,9.880615234375,-2.930857419967652,-2.7299649715423584,-0.2157999277114868
2825713292.0,-0.7603739500045776,0.4765430092811584,9.833162307739258,-2.954576253890991,-2.51880145072937,-0.2239708751440048
2825721625.0,-0.8770291805267334,0.3762841522693634,9.825632095336914,-3.4298999309539795,-2.4808669090271,-0.3985062837600708
2825729958.0,-0.8656657934188843,-0.0597043149173259,9.903200149536133,-3.4747250080108643,-2.485785007476806,-0.2793232798576355
2825738291.0,-0.8507451415061951,-0.1308324933052063,9.843310356140137,-3.240457057952881,-2.928987979888916,-0.4076249599456787
2825746624.0,-0.926661491394043,0.2865455150604248,9.794589042663574,-2.728479385375977,-2.7391350269317627,-0.3103676736354828
2825754957.0,-0.8318284153938293,0.512776255607605,9.748594284057615,-2.8746345043182373,-3.0982980728149414,-0.3703050315380096
2825763290.0,-0.5987460017204285,0.3004184663295746,9.821789741516112,-3.197194576263428,-3.265225887298584,-0.289671391248703
2825771623.0,-0.5263162851333618,0.0026017508935183,9.907331466674805,-3.535097599029541,-3.024375438690185,-0.215441346168518
2825779956.0,-0.6666046380996704,-0.0193735267966985,9.885649681091309,-3.38210391998291,-2.586397647857666,-0.2489959895610809
2825788289.0,-0.8735461831092834,0.2168524861335754,9.800151824951172,-2.9891810417175293,-2.289374589920044,-0.4375167489051819
2825796622.0,-0.9149323105812072,0.2746277451515198,9.79396629333496,-2.866079092025757,-2.5784311294555664,-0.4694576859474182
2825804955.0,-0.8324116468429565,0.2167247384786605,9.834877967834473,-2.934187412261963,-2.880218267440796,-0.4218408167362213
2825813288.0,-0.8783318996429443,0.2893978953361511,9.80337905883789,-3.238996982574463,-2.7014052867889404,-0.2594978213310241
2825821621.0,-0.9151415228843688,0.3201906383037567,9.81540298461914,-3.575081586837769,-2.9381320476531982,-0.3215355277061462
2825829954.0,-0.8373912572860718,0.1314657330513,9.788825988769531,-3.440504312515259,-3.018637657165528,-0.3483279943466186
2825838287.0,-0.6136856079101562,-0.067843846976757,9.835075378417969,-3.090306282043457,-3.12237548828125,-0.3534252643585205
2825846620.0,-0.5615765452384949,0.0174208991229534,9.85536289215088,-2.8353164196014404,-2.801326036453247,-0.293692797422409
2825854953.0,-0.6941327452659607,0.4177763760089874,9.830042839050291,-2.853809595108032,-2.5001025199890137,-0.3585223853588104
2825863286.0,-0.86380535364151,0.5183561444282532,9.787269592285156,-3.186922550201416,-2.4465177059173584,-0.4102119207382202
2825871619.0,-0.850644588470459,0.0972764492034912,9.867431640625,-3.533407211303711,-2.585449695587158,-0.3465605974197387
2825879952.0,-0.8580273985862732,-0.2225075662136078,9.874613761901855,-3.464632987976074,-2.831730604171753,-0.36605304479599
2825888285.0,-0.931652009487152,0.0805206820368766,9.83689022064209,-2.884214162826538,-2.828195810317993,-0.4027070105075836
2825896618.0,-0.9354212284088136,0.4479154050350189,9.764809608459473,-2.732961893081665,-3.035133123397827,-0.268155425786972
2825904951.0,-0.719907283782959,0.4367023408412933,9.79499053955078,-2.9285781383514404,-3.074399948120117,-0.3514529764652252
2825913284.0,-0.5244123339653015,0.1601504683494568,9.867704391479492,-3.4434754848480225,-3.1341323852539062,-0.3272987008094787
2825921617.0,-0.5641918778419495,-0.0095045482739806,9.927364349365234,-3.5381457805633545,-2.5447232723236084,-0.3205109536647796
2825929950.0,-0.8081905245780945,0.149507075548172,9.836358070373535,-3.1129491329193115,-2.2575361728668213,-0.3561147153377533
2825938283.0,-0.9085837006568908,0.2688317596912384,9.793135643005373,-2.845305919647217,-2.491675853729248,-0.441384494304657
2825946616.0,-0.8367060422897339,0.1856360435485839,9.826218605041504,-2.83559799194336,-2.7795286178588867,-0.4145919680595398
2825954949.0,-0.8288056254386902,0.230828121304512,9.865802764892578,-2.9779365062713623,-2.7215893268585205,-0.3055009543895721
2825963282.0,-0.9240077137947084,0.3980005085468292,9.791637420654297,-3.3520326614379883,-2.77845311164856,-0.2927451133728027
2825971615.0,-0.881742537021637,0.27215576171875,9.798948287963867,-3.6021556854248047,-3.038514375686645,-0.3679997324943542
2825979948.0,-0.6876444220542908,0.0299444757401943,9.865285873413086,-3.2746262550354004,-3.188664674758911,-0.4129014611244201
2825988281.0,-0.549872875213623,-0.0603803992271423,9.88478183746338,-3.119147777557373,-3.114255666732788,-0.4063698351383209
2825996614.0,-0.6269358396530151,0.2571814060211181,9.897701263427734,-2.935365915298462,-2.555762767791748,-0.2958444058895111
2826004947.0,-0.7829470038414001,0.4982022047042846,9.839858055114746,-3.1305718421936035,-2.380254030227661,-0.2791182994842529
2826013280.0,-0.8616764545440674,0.2939099073410034,9.812545776367188,-3.37201189994812,-2.500077486038208,-0.4212517440319061
2826021613.0,-0.8494269847869873,-0.0996286049485206,9.893418312072754,-3.5341498851776123,-2.6422877311706543,-0.2476128190755844
2826029946.0,-0.8537101149559021,-0.0385695099830627,9.884007453918455,-3.103317975997925,-2.726327896118164,-0.4493249058723449
2826038279.0,-0.928735375404358,0.3543785512447357,9.798429489135742,-2.7821156978607178,-2.900683879852295,-0.3646186292171478
2826046612.0,-0.7947103977203369,0.5146275758743286,9.69815731048584,-2.8974058628082275,-3.124936580657959,-0.3705099523067474
2826054945.0,-0.5843104720115662,0.239883080124855,9.832449913024902,-3.2391250133514404,-3.1541881561279297,-0.3478412926197052
2826063278.0,-0.5168992280960083,-0.0247437581419944,9.918511390686035,-3.591935396194458,-2.7391865253448486,-0.2688982486724853
2826071611.0,-0.7290205955505371,0.0569442696869373,9.865964889526367,-3.3088982105255127,-2.3125810623168945,-0.2458197921514511
2826079944.0,-0.9249686002731324,0.2454337477684021,9.74402904510498,-3.056853771209717,-2.3942902088165283,-0.3929223120212555
2826088277.0,-0.904762327671051,0.2095103561878204,9.787729263305664,-2.8212029933929443,-2.7354979515075684,-0.3337022364139557
2826096610.0,-0.8174269199371338,0.1957935094833374,9.856378555297852,-2.9625678062438965,-2.826249122619629,-0.3383640348911285
2826104943.0,-0.9293233752250672,0.3360172212123871,9.795571327209473,-3.3640713691711426,-2.851914644241333,-0.3432051241397857
2826113276.0,-0.9023463129997252,0.3139402568340301,9.78740406036377,-3.63092041015625,-2.956677198410034,-0.3314994871616363
2826121609.0,-0.7820093035697937,0.0796699374914169,9.795233726501465,-3.482460260391236,-3.1712472438812256,-0.4561639428138733
2826129942.0,-0.5974228382110596,-0.1210351511836052,9.876229286193848,-3.062540531158448,-3.2622549533843994,-0.3895157277584076
2826138275.0,-0.588599443435669,0.0742423310875892,9.861546516418455,-3.036823272705078,-2.753094434738159,-0.290952056646347
2826146608.0,-0.7343475222587585,0.4356667399406433,9.814284324645996,-2.951758623123169,-2.5394461154937744,-0.3304491937160492
2826154941.0,-0.8671692609786987,0.4381328523159027,9.78765869140625,-3.277904748916626,-2.545593500137329,-0.3160028159618377
2826163274.0,-0.8691619038581848,0.0358086861670017,9.865737915039062,-3.4688844680786133,-2.6823995113372803,-0.3192558288574219
2826171607.0,-0.8848921060562134,-0.1536705046892166,9.877336502075195,-3.3378164768218994,-2.717132568359375,-0.3282720148563385
2826179940.0,-0.9522666335105896,0.1572546660900116,9.833605766296388,-2.911877393722534,-2.84702205657959,-0.3240712881088257
2826188273.0,-0.9049953818321228,0.4401177763938904,9.741710662841797,-2.8009936809539795,-3.135874032974243,-0.3461507856845855
2826196606.0,-0.7077158689498901,0.3579317927360534,9.805688858032228,-3.060952425003052,-3.235743999481201,-0.3336254358291626
2826204939.0,-0.5461440086364746,0.1166270822286605,9.911639213562012,-3.311485290527344,-3.0258097648620605,-0.3074476718902588
2826213272.0,-0.5938630104064941,0.0340464785695076,9.896735191345217,-3.4293363094329834,-2.6583993434906006,-0.2604455351829529
2826221605.0,-0.8296583294868469,0.1958817392587661,9.820199012756348,-3.14143180847168,-2.385197162628174,-0.4181523323059082
2826229938.0,-0.8975856304168701,0.2433516085147857,9.79488468170166,-2.97775673866272,-2.495159387588501,-0.4478136301040649
2826238271.0,-0.8454148769378662,0.1559425890445709,9.874387741088867,-2.93946385383606,-2.8967647552490234,-0.4131832122802734
2826246604.0,-0.8350715041160583,0.2458046227693557,9.800684928894045,-3.1280620098114014,-2.848072528839112,-0.2850352227687835
2826254937.0,-0.8985881209373474,0.3646129071712494,9.80980110168457,-3.416222095489502,-2.865720748901367,-0.3688450157642364
2826263270.0,-0.8214664459228516,0.2183859944343567,9.782301902770996,-3.4062323570251465,-3.070993185043335,-0.4428189396858215
2826271603.0,-0.6416923403739929,0.024779150262475,9.818329811096191,-3.286844491958618,-3.125525951385498,-0.3712271153926849
2826279936.0,-0.5485697388648987,-0.0530667975544929,9.887665748596191,-3.1117711067199707,-2.879501342773437,-0.363158643245697
2826288269.0,-0.6729022860527039,0.2776430249214172,9.874589920043944,-2.933956861495972,-2.5741536617279053,-0.2981753051280975
2826296602.0,-0.8557496666908264,0.4978191554546356,9.799909591674805,-3.1025240421295166,-2.3960065841674805,-0.3682558536529541
2826304935.0,-0.8533737659454346,0.2286866456270218,9.800009727478027,-3.432922601699829,-2.5904700756073,-0.2626484036445617
2826313268.0,-0.8371996879577637,-0.1154880374670028,9.895600318908691,-3.4139678478240967,-2.6812212467193604,-0.3669751584529876
2826321601.0,-0.8684880137443542,0.0150438072159886,9.821455955505373,-3.0041146278381348,-2.919689893722534,-0.3868774175643921
2826329934.0,-0.8825348615646362,0.4140547811985016,9.753153800964355,-2.8627238273620605,-2.957547426223755,-0.3781429827213287
2826338267.0,-0.730006754398346,0.5040767788887024,9.744548797607422,-2.887569665908813,-3.156416654586792,-0.3860321640968323
2826346600.0,-0.5660400390625,0.1948215067386627,9.87129020690918,-3.38407564163208,-3.040691614151001,-0.3201523423194885
2826354933.0,-0.5579512715339661,-0.0180925969034433,9.90332317352295,-3.5730578899383545,-2.7556052207946777,-0.3017613291740417
2826363266.0,-0.7589938640594482,0.1000741198658943,9.838784217834473,-3.35925555229187,-2.430560111999512,-0.2176441401243209
2826371599.0,-0.910874843597412,0.2697602808475494,9.772819519042969,-2.986645460128784,-2.320880174636841,-0.3809348940849304
2826379932.0,-0.9098774194717408,0.212549403309822,9.779541969299316,-2.9215335845947266,-2.716824769973755,-0.3446651101112366
2826388265.0,-0.8179553747177124,0.1640761047601699,9.84264850616455,-3.051961660385132,-2.723151445388794,-0.3230467140674591
2826396598.0,-0.8933737874031067,0.3217771649360657,9.810391426086426,-3.315224885940552,-2.8995823860168457,-0.3661555051803589
2826404931.0,-0.8683291673660278,0.3002407848834991,9.772274017333984,-3.505871534347534,-2.9053971767425537,-0.2912850975990295
2826413264.0,-0.7579873204231262,0.0620958916842937,9.798661231994627,-3.320962429046631,-3.1614370346069336,-0.1986384093761444
2826421597.0,-0.5802431702613831,-0.1496026962995529,9.858882904052734,-3.12178635597229,-3.0113120079040527,-0.4988628923892975
2826429930.0,-0.6020004153251648,0.1010578125715255,9.824172019958496,-2.9178199768066406,-2.712214469909668,-0.3026065826416015
2826438263.0,-0.7940608859062195,0.4762428700923919,9.782410621643066,-3.0139501094818115,-2.45648193359375,-0.2544517815113067
2826446596.0,-0.8748247623443604,0.3961318731307983,9.76602268218994,-3.3703975677490234,-2.4583773612976074,-0.3169249296188354
2826454929.0,-0.8464499115943909,-0.0183242131024599,9.887210845947266,-3.4671430587768555,-2.696641206741333,-0.4169229567050934
2826463262.0,-0.8828181028366089,-0.1156260222196579,9.875268936157228,-3.2567477226257324,-2.814492464065552,-0.4043463468551636
2826471595.0,-0.9647401571273804,0.2395561039447784,9.78323459625244,-2.9194588661193848,-2.772791862487793,-0.3906170427799225
2826479928.0,-0.8707728385925293,0.4651987254619598,9.764376640319824,-2.7490992546081543,-3.181262731552124,-0.3718162775039673
2826488261.0,-0.6492940187454224,0.3011552691459656,9.823691368103027,-3.118661403656006,-3.1652281284332275,-0.3329850733280182
2826496594.0,-0.542959451675415,0.0504318475723266,9.886837005615234,-3.406386137008667,-3.022787094116211,-0.284318059682846
2826504927.0,-0.6768978834152222,0.0659425184130668,9.885991096496582,-3.439889430999756,-2.564779043197632,-0.2711266875267029
2826513260.0,-0.8947824835777283,0.2672800421714782,9.801361083984377,-3.1178157329559326,-2.498924493789673,-0.3011209368705749
2826521593.0,-0.920142650604248,0.2733826339244842,9.820586204528809,-2.88672423362732,-2.69300389289856,-0.4846469163894653
2826529926.0,-0.8295138478279114,0.1600972563028335,9.871106147766112,-2.879833936691284,-2.798457384109497,-0.3796541690826416
2826538259.0,-0.8828260898590088,0.299012690782547,9.854208946228027,-3.235820770263672,-2.7837038040161133,-0.3636453151702881
2826546592.0,-0.9219415187835692,0.3917554914951324,9.7673921585083,-3.3816680908203125,-2.909828424453736,-0.305987685918808
2826554925.0,-0.8105523586273193,0.1442409306764602,9.786550521850586,-3.413275957107544,-3.036977529525757,-0.4086495041847229
2826563258.0,-0.6154569983482361,-0.0600447952747345,9.889426231384276,-3.206108570098877,-3.197809219360352,-0.3743520677089691
2826571591.0,-0.5473852157592773,0.0318343862891197,9.896238327026367,-2.932240724563598,-2.993869066238404,-0.2275056540966034
2826579924.0,-0.7369183301925659,0.3773886263370514,9.822819709777832,-2.9441516399383545,-2.530609369277954,-0.3029139637947082
2826588257.0,-0.858093798160553,0.4865777492523193,9.769548416137695,-3.1097729206085205,-2.5157787799835205,-0.3250958621501922
2826596590.0,-0.8245709538459778,0.105895310640335,9.856504440307615,-3.526132822036743,-2.7231006622314453,-0.291387528181076
2826604923.0,-0.8447672724723816,-0.1361322402954101,9.888334274291992,-3.3476271629333496,-2.763110399246216,-0.2599588930606842
2826613256.0,-0.9111490845680236,0.1530290842056274,9.832139015197754,-2.980625867843628,-2.906139612197876,-0.3217147588729858
2826621589.0,-0.8842593431472778,0.4504468142986297,9.750922203063965,-2.724560260772705,-3.0262701511383057,-0.3768878281116485
2826629922.0,-0.7026804685592651,0.4204734563827514,9.775299072265623,-3.105418920516968,-3.2962703704833984,-0.362569510936737
2826638255.0,-0.517810046672821,0.1022331863641738,9.866280555725098,-3.427799701690674,-3.02271056175232,-0.2697179019451141
2826646588.0,-0.5917403101921082,0.0354315601289272,9.905920028686523,-3.412379741668701,-2.6167759895324707,-0.2541188597679138
2826654921.0,-0.8058521747589111,0.2235345691442489,9.82791233062744,-3.15234375,-2.3513612747192383,-0.328809916973114
2826663254.0,-0.8921604752540588,0.2983811795711517,9.791157722473145,-2.946251630783081,-2.571208000183105,-0.3890545964241028
2826671587.0,-0.8331407308578491,0.1698175817728042,9.844746589660645,-2.970508337020874,-2.6210532188415527,-0.3927430510520935
2826679920.0,-0.8598658442497253,0.2481750547885894,9.854764938354492,-3.270118474960327,-2.7083725929260254,-0.3563196659088135
2826688253.0,-0.9586564898490906,0.3654763400554657,9.796037673950195,-3.522469997406006,-2.774611234664917,-0.3524006605148315
2826696586.0,-0.8830697536468506,0.1989026367664337,9.761285781860352,-3.483715295791626,-3.0919458866119385,-0.3011209368705749
2826704919.0,-0.7021272778511047,-0.0101280361413955,9.855916023254396,-3.2927613258361816,-3.1657402515411377,-0.3800384402275085
2826713252.0,-0.5522366762161255,-0.0620890483260154,9.880455017089844,-3.1204800605773926,-3.096351146697998,-0.3264534175395965
2826721585.0,-0.6725113391876221,0.2455126196146011,9.814629554748535,-2.8751981258392334,-2.632759094238281,-0.3531690537929535
2826729918.0,-0.7873497605323792,0.4776168167591095,9.81535816192627,-3.019303321838379,-2.57743239402771,-0.2905935049057007
2826738251.0,-0.836951494216919,0.1819688230752945,9.806955337524414,-3.31307339668274,-2.608092784881592,-0.312135100364685
2826746584.0,-0.8366342186927795,-0.1625624895095825,9.874471664428713,-3.440709352493286,-2.5937740802764893,-0.3928199112415313
2826754917.0,-0.9351487159729004,0.0075613893568515,9.86563491821289,-3.023632049560547,-2.7097299098968506,-0.4048841893672943
2826763250.0,-0.9728361964225768,0.3705485761165619,9.755480766296388,-2.819307327270508,-2.8578312397003174,-0.387031078338623
2826771583.0,-0.8233486413955688,0.429933100938797,9.703388214111328,-2.9023232460021973,-3.177010536193848,-0.333804726600647
2826779916.0,-0.5808651447296143,0.1333332508802414,9.884233474731444,-3.289713382720948,-3.279288053512573,-0.3841623365879059
2826788249.0,-0.5566692352294922,-0.0241888351738452,9.912729263305664,-3.573723793029785,-2.929321050643921,-0.204478457570076
2826796582.0,-0.7574246525764465,0.1899435222148895,9.836455345153809,-3.17170786857605,-2.3960320949554443,-0.2744564712047577
2826804915.0,-0.8614614605903625,0.2866653501987457,9.785337448120115,-2.9223790168762207,-2.501639604568481,-0.3539887070655823
2826813248.0,-0.836442232131958,0.1796569228172302,9.821938514709473,-2.969919204711914,-2.6742541790008545,-0.4319840371608734
2826821581.0,-0.7944023609161377,0.2229918986558914,9.85688018798828,-3.017997026443481,-2.6500229835510254,-0.3099834620952606
2826829914.0,-0.9315361380577089,0.3419612050056457,9.816009521484377,-3.347754955291748,-2.849558115005493,-0.3599312305450439
2826838247.0,-0.910646915435791,0.2881612777709961,9.78145980834961,-3.4628655910491943,-2.9444591999053955,-0.4207138419151306
2826846580.0,-0.7037668228149414,0.0623271316289901,9.82348346710205,-3.4359450340271,-3.193019390106201,-0.1704627424478531
2826854913.0,-0.5577969551086426,-0.0453634522855281,9.87314510345459,-3.054856061935425,-3.1438658237457275,-0.3022736012935638
2826863246.0,-0.5999314785003662,0.2136487364768982,9.885897636413574,-2.8952536582946777,-2.7793493270874023,-0.2157487273216247
2826871579.0,-0.7500367760658264,0.502450168132782,9.845504760742188,-3.0463011264801025,-2.578303337097168,-0.3197681009769439
2826879912.0,-0.81500643491745,0.306577980518341,9.810790061950684,-3.4483163356781006,-2.598436117172241,-0.4380034506320953
2826888245.0,-0.808943510055542,-0.1003079041838646,9.908943176269531,-3.472419500350952,-2.653045654296875,-0.2609322369098663
2826896578.0,-0.8706470727920532,-0.039733774960041,9.865476608276367,-3.0976316928863525,-2.645233154296875,-0.4251706600189209
2826904911.0,-0.9381939172744752,0.3774592280387878,9.777125358581545,-2.7601897716522217,-2.7980988025665283,-0.3665396869182586
2826913244.0,-0.8297086358070374,0.5045446157455444,9.75387191772461,-2.838953971862793,-3.131186962127685,-0.3628256618976593
2826921577.0,-0.6142403483390808,0.2407610863447189,9.84819507598877,-3.308590888977051,-3.308155536651612,-0.3431027233600616
2826929910.0,-0.5507950782775879,0.0127807930111885,9.887682914733888,-3.5497491359710693,-2.910724878311157,-0.2060921490192413
2826938243.0,-0.7371095418930054,0.114668920636177,9.863374710083008,-3.345423936843872,-2.3590455055236816,-0.3311408162117004
2826946576.0,-0.9146564602851868,0.2815834581851959,9.778544425964355,-3.116150617599488,-2.3896284103393555,-0.3789369165897369
2826954909.0,-0.9108826518058776,0.2185095995664596,9.767730712890623,-2.9285266399383545,-2.730298042297364,-0.5450965166091919
2826963242.0,-0.8197920918464661,0.2196554392576217,9.815982818603516,-3.0451226234436035,-2.758499383926392,-0.3156442046165466
2826971575.0,-0.9200014472007751,0.3751564025878906,9.796125411987305,-3.408665657043457,-2.8171305656433105,-0.3743776977062225
2826979908.0,-0.8966833353042603,0.3582130074501037,9.79684066772461,-3.645930290222168,-3.043611526489258,-0.3052960932254791
2826988241.0,-0.7465488910675049,0.0667360499501228,9.815179824829102,-3.4894020557403564,-3.291762351989746,-0.202224388718605
2826996574.0,-0.5872371792793274,-0.1294469982385635,9.887272834777832,-3.2916855812072754,-3.152933359146118,-0.3281440138816833
2827004907.0,-0.5732051730155945,0.1138428673148155,9.870603561401367,-2.9328808784484863,-2.8211007118225098,-0.3630817532539367
2827013240.0,-0.7485250234603882,0.4829670488834381,9.808653831481934,-2.989642143249512,-2.476640224456787,-0.296561598777771
2827021573.0,-0.8356627225875854,0.3765111863613128,9.82721710205078,-3.3612027168273926,-2.553739309310913,-0.3946897983551025
2827029906.0,-0.8205793499946594,-0.0146799385547637,9.885913848876951,-3.539785146713257,-2.6506123542785645,-0.3023248314857483
2827038239.0,-0.8878952860832214,-0.1486488282680511,9.887740135192873,-3.411816358566284,-2.6370115280151367,-0.3090101778507232
2827046572.0,-0.9658498167991638,0.1976877152919769,9.82882022857666,-2.978909730911255,-2.7602667808532715,-0.3601361215114593
2827054905.0,-0.9185283184051514,0.4509911239147186,9.733878135681152,-2.8112902641296387,-3.0520386695861816,-0.3703306019306183
2827063238.0,-0.6983460187911987,0.293212890625,9.785248756408691,-3.107365369796753,-3.387047290802002,-0.3684607744216919
2827071571.0,-0.4803023040294647,0.0407531335949897,9.908609390258787,-3.558969736099243,-3.033622026443481,-0.3050911724567413
2827079904.0,-0.5972139239311218,0.0708723366260528,9.884490966796877,-3.393348693847656,-2.5134994983673096,-0.2038380801677703
2827088237.0,-0.8297004699707031,0.2332237064838409,9.771001815795898,-3.1773946285247803,-2.397543430328369,-0.3651053011417389
2827096570.0,-0.8540058135986328,0.1806528717279434,9.801379203796388,-2.9665894508361816,-2.565855026245117,-0.2685140073299408
2827104903.0,-0.7906373143196106,0.1239400804042816,9.859664916992188,-2.913568019866944,-2.690749406814575,-0.4676390588283539
2827113236.0,-0.9034862518310548,0.342529147863388,9.821969985961914,-3.161564826965332,-2.658501386642456,-0.3073708117008209
2827121569.0,-0.9750041365623474,0.4107881486415863,9.73704719543457,-3.4913997650146484,-2.8243024349212646,-0.2818590402603149
2827129902.0,-0.8419468998908997,0.121460273861885,9.789185523986816,-3.4997241497039795,-2.925888538360596,-0.3616217672824859
2827138235.0,-0.6272069811820984,-0.0920727327466011,9.869778633117676,-3.2385873794555664,-3.261256217956543,-0.3439992070198059
2827146568.0,-0.5700477361679077,0.0440866015851497,9.887804985046388,-2.911109209060669,-3.081956148147583,-0.3126730024814605
2827154901.0,-0.7079837322235107,0.3584334552288055,9.815670013427734,-2.9186391830444336,-2.598410129547119,-0.3911549150943756
2827163234.0,-0.7824185490608215,0.4584199786186218,9.816726684570312,-3.1048805713653564,-2.537192344665528,-0.4212516844272613
2827171567.0,-0.7838532328605652,0.0800289586186409,9.852398872375488,-3.490042209625244,-2.5891382694244385,-0.3140817582607269
2827179900.0,-0.8375309705734253,-0.1713367849588394,9.862285614013672,-3.390326023101806,-2.6569902896881104,-0.2415678650140762
2827188233.0,-0.9506176710128784,0.117960900068283,9.82225513458252,-2.879757165908813,-2.6331686973571777,-0.3385432958602905
2827196566.0,-0.9345163702964784,0.4576651751995086,9.77273654937744,-2.791285514831543,-2.8909506797790527,-0.4236082136631012
2827204899.0,-0.7629385590553284,0.3531313836574554,9.783158302307127,-3.001066207885742,-3.276906013488769,-0.3877995312213897
2827213232.0,-0.5356671810150146,0.0984191745519638,9.889747619628906,-3.3840248584747314,-3.1410481929779053,-0.3808324933052063
2827221565.0,-0.5977990627288818,0.0582720190286636,9.914436340332031,-3.458638906478882,-2.6653404235839844,-0.2974837124347687
2827229898.0,-0.8567308187484741,0.1865577548742294,9.78596019744873,-3.0815200805664062,-2.394649028778076,-0.223586618900299
2827238231.0,-0.9132194519042968,0.2016026377677917,9.75620174407959,-2.883061408996582,-2.611191749572754,-0.4379265606403351
2827246564.0,-0.8361473083496094,0.1440088301897049,9.850703239440918,-2.889925718307495,-2.6509451866149902,-0.4790118038654327
2827254897.0,-0.8441578149795532,0.2872968912124634,9.84139919281006,-3.0878727436065674,-2.6659038066864014,-0.3540399372577667
2827263230.0,-0.9368749260902404,0.4380518496036529,9.753679275512695,-3.33686900138855,-2.942819595336914,-0.2780937552452087
2827271563.0,-0.8207599520683289,0.2057095319032669,9.790517807006836,-3.536890745162964,-3.0604655742645264,-0.2957419753074646
2827279896.0,-0.6244100332260132,-0.0560318157076835,9.82984447479248,-3.225959539413452,-3.0884368419647217,-0.3744032680988312
2827288229.0,-0.5569537281990051,-0.0214272066950798,9.883667945861816,-3.127754211425781,-2.936415910720825,-0.3471497297286987
2827296562.0,-0.6849981546401978,0.3169496655464172,9.848360061645508,-2.783217191696167,-2.559323072433472,-0.2916180491447449
2827304895.0,-0.8046185374259949,0.4946276247501373,9.792339324951172,-3.069609880447388,-2.444648027420044,-0.377989262342453
2827313228.0,-0.8331666588783264,0.1747507601976394,9.840753555297852,-3.4584085941314697,-2.505021095275879,-0.4114671051502228
2827321561.0,-0.8514256477355957,-0.1285334229469299,9.864900588989258,-3.5236480236053467,-2.6329386234283447,-0.3303980529308319
2827329894.0,-0.9155741333961488,0.04011045768857,9.86744499206543,-3.0488107204437256,-2.6340651512146,-0.3822412192821502
2827338227.0,-0.9128433465957642,0.4112622141838074,9.787274360656738,-2.84576678276062,-2.974222183227539,-0.3702537417411804
2827346560.0,-0.7535030245780945,0.3964032232761383,9.78626537322998,-2.890003204345703,-3.267300844192505,-0.4092642664909363
2827354893.0,-0.4956144094467163,0.148791953921318,9.904857635498049,-3.21909499168396,-3.1083900928497314,-0.2485861778259277
2827363226.0,-0.5548032522201538,0.0697893723845481,9.911880493164062,-3.410125970840454,-2.645540714263916,-0.2495851218700409
2827371559.0,-0.761205792427063,0.1936132907867431,9.8347749710083,-3.3143796920776367,-2.3934195041656494,-0.2164658904075622
2827379892.0,-0.8800339102745056,0.2524233162403106,9.786784172058104,-3.113998889923096,-2.4569168090820312,-0.4417942464351654
2827388225.0,-0.8616595268249512,0.1476181596517563,9.822595596313477,-2.951681613922119,-2.705195903778076,-0.4239155650138855
2827396558.0,-0.8855623006820679,0.2386229336261749,9.859786033630373,-3.0818021297454834,-2.685344934463501,-0.3624157905578613
2827404891.0,-1.0006005764007568,0.4143595099449157,9.777606010437012,-3.229647636413574,-2.7631101608276367,-0.3810885846614837
2827413224.0,-0.9066636562347412,0.3104473650455475,9.77206039428711,-3.41281533241272,-3.107621431350708,-0.3745313584804535
2827421557.0,-0.7020086050033569,0.0372608006000518,9.772143363952637,-3.371474027633667,-3.232772827148437,-0.3362893164157867
2827429890.0,-0.5779020190238953,-0.0523684620857238,9.823841094970703,-3.075424671173096,-3.076525926589966,-0.3771952390670776
2827438223.0,-0.6470681428909302,0.2582924664020538,9.833550453186035,-2.9306013584136963,-2.725277900695801,-0.3186666965484619
2827446556.0,-0.7736287117004395,0.4855014681816101,9.766363143920898,-2.9997849464416504,-2.54021430015564,-0.2713059186935425
2827454889.0,-0.8100996613502502,0.2697907090187073,9.842446327209473,-3.479642868041992,-2.61846661567688,-0.3361100256443023
2827463222.0,-0.8262964487075806,-0.0947350263595581,9.856608390808104,-3.4651196002960205,-2.5975656509399414,-0.400017499923706
2827471555.0,-0.9271174669265748,-0.0159188657999038,9.825504302978516,-3.183772325515747,-2.6901862621307373,-0.3461251556873321
2827479888.0,-0.9627379775047302,0.3757147490978241,9.744927406311035,-2.919741153717041,-2.9345462322235107,-0.4474038481712341
2827488221.0,-0.8065874576568604,0.4266570806503296,9.754847526550291,-2.9263241291046143,-3.193864583969116,-0.3340864777565002
2827496554.0,-0.540157675743103,0.1848268210887909,9.850909233093262,-3.294323682785034,-3.318734169006348,-0.3150807023048401
2827504887.0,-0.5140202641487122,0.0085021583363413,9.922144889831545,-3.481717586517334,-2.8768117427825928,-0.258498877286911
2827513220.0,-0.7013989686965942,0.0975672975182533,9.88373851776123,-3.3123559951782227,-2.48248028755188,-0.3318836092948913
2827521553.0,-0.85209721326828,0.227784052491188,9.82390594482422,-3.075500965118408,-2.408122062683105,-0.3858528137207031
2827529886.0,-0.8455424308776855,0.1319782435894012,9.840672492980955,-3.0485548973083496,-2.637113332748413,-0.3964827060699463
2827538219.0,-0.8132855296134949,0.1263837218284607,9.853226661682127,-3.0130279064178467,-2.7648260593414307,-0.3128778636455536
2827546552.0,-0.92054682970047,0.3655714988708496,9.80413818359375,-3.2553389072418213,-2.8024280071258545,-0.2350874543190002
2827554885.0,-0.8879222273826599,0.353142112493515,9.773627281188965,-3.4433469772338867,-2.9813690185546875,-0.293513536453247
2827563218.0,-0.7137051224708557,0.0397786386311054,9.821232795715332,-3.33046555519104,-3.186129570007324,-0.2122395634651184
2827571551.0,-0.5685617327690125,-0.1345910131931305,9.892837524414062,-3.175012826919556,-2.986184597015381,-0.2855474948883056
2827579884.0,-0.6113502979278564,0.1314946115016937,9.871855735778809,-3.0414340496063232,-2.630888700485229,-0.2665417194366455
2827588217.0,-0.7585210800170898,0.4668853282928467,9.810588836669922,-2.8780665397644043,-2.4846062660217285,-0.3047325611114502
2827596550.0,-0.843830943107605,0.3490124642848968,9.80495834350586,-3.2694520950317383,-2.5039708614349365,-0.3649516105651855
2827604883.0,-0.8477262854576111,-0.0275191217660903,9.873312950134276,-3.5683705806732178,-2.664315938949585,-0.2642876505851745
2827613216.0,-0.9129666686058044,-0.0550062879920005,9.878634452819824,-3.3856894969940186,-2.724867820739746,-0.3970206379890442
2827621549.0,-0.9733046889305116,0.2675118446350097,9.808688163757324,-2.864772319793701,-2.7870330810546875,-0.3706635236740112
2827629882.0,-0.8521749973297119,0.4452465772628784,9.75624656677246,-2.9164879322052,-3.191482782363892,-0.4136442840099334
2827638215.0,-0.6321433782577515,0.2375842034816742,9.817766189575195,-3.126627445220948,-3.276803493499756,-0.2666698396205902
2827646548.0,-0.5453708171844482,0.0095045492053031,9.91319179534912,-3.434356927871704,-2.8927950859069824,-0.2772741317749023
2827654881.0,-0.6819372773170471,0.111293077468872,9.870682716369627,-3.3473706245422363,-2.549922704696656,-0.3684095442295074
2827663214.0,-0.8823635578155518,0.3052915334701538,9.792340278625488,-3.018099784851074,-2.4768452644348145,-0.3830864727497101
2827671547.0,-0.8903462290763855,0.2192979156970977,9.793519973754885,-2.9605185985565186,-2.528944492340088,-0.4195099174976349
2827679880.0,-0.8360371589660645,0.1442136168479919,9.87313461303711,-2.910391569137573,-2.726994037628174,-0.3474827110767364
2827688213.0,-0.9183265566825868,0.3331123888492584,9.806334495544434,-3.1317241191864014,-2.742464780807495,-0.4151555001735687
2827696546.0,-0.9398455023765564,0.3876318335533142,9.7891263961792,-3.46209716796875,-2.983776807785034,-0.260163813829422
2827704879.0,-0.7932054996490479,0.1311573684215545,9.794177055358888,-3.3794655799865723,-3.2260618209838867,-0.2711010873317718
2827713212.0,-0.6021959781646729,-0.0206459332257509,9.876282691955566,-3.111976146697998,-3.039820432662964,-0.3193070888519287
2827721545.0,-0.5589573979377747,0.0802178308367729,9.834742546081545,-2.9476349353790283,-2.8408236503601074,-0.347457081079483
2827729878.0,-0.7308021187782288,0.3819537758827209,9.838480949401855,-2.982572555541992,-2.518544912338257,-0.362876832485199
2827738211.0,-0.8314884901046753,0.4245314598083496,9.811821937561035,-3.207824230194092,-2.6566569805145264,-0.3393885791301727
2827746544.0,-0.8344680070877075,0.0819870382547378,9.85803508758545,-3.512352228164673,-2.653942346572876,-0.320690244436264
2827754877.0,-0.8706879615783691,-0.1223057061433792,9.865530967712402,-3.3482930660247803,-2.665699005126953,-0.3054241240024566
2827763210.0,-0.9496012926101683,0.1706234961748123,9.833945274353027,-2.923992872238159,-2.7502002716064453,-0.2931805253028869
2827771543.0,-0.9021586775779724,0.4761872589588165,9.767532348632812,-2.8666937351226807,-3.019329071044922,-0.3246091902256012
2827779876.0,-0.68114173412323,0.390372633934021,9.782963752746582,-3.023581027984619,-3.1712472438812256,-0.3848538994789123
2827788209.0,-0.5267432928085327,0.0772761777043342,9.921116828918455,-3.449596881866455,-3.115382671356201,-0.2270445674657821
2827796542.0,-0.5888862013816833,0.0323690138757228,9.897298812866213,-3.421114444732666,-2.736624956130981,-0.1935923844575882
2827804875.0,-0.8069377541542053,0.2498171031475067,9.833250999450684,-3.1149215698242188,-2.36145281791687,-0.2522233724594116
2827813208.0,-0.8845736384391785,0.2972535490989685,9.78351593017578,-2.94970965385437,-2.57743239402771,-0.4358261823654175
2827821541.0,-0.815582275390625,0.1653934717178344,9.868603706359863,-2.9715840816497803,-2.6537625789642334,-0.3421805202960968
2827829874.0,-0.8527228832244873,0.2494261115789413,9.821680068969728,-3.176011323928833,-2.649433851242065,-0.3692035675048828
2827838207.0,-0.9327151775360109,0.3601785600185394,9.810996055603027,-3.4125587940216064,-2.869229793548584,-0.3463300764560699
2827846540.0,-0.8539507389068604,0.2469748854637146,9.79564094543457,-3.450263261795044,-3.047043800354004,-0.2880577147006988
2827854873.0,-0.6540435552597046,0.0331808887422084,9.84134292602539,-3.3565406799316406,-3.138205051422119,-0.2947686314582824
2827863206.0,-0.5690603852272034,-0.0374403782188892,9.886178970336914,-3.1068274974823,-2.933573007583618,-0.3015051782131195
2827871539.0,-0.6821475625038147,0.2780874073505401,9.834466934204102,-3.039999723434448,-2.5270490646362305,-0.3144403398036957
2827879872.0,-0.793138325214386,0.4914212524890899,9.839361190795898,-3.266019582748413,-2.4277937412261963,-0.3286305963993072
2827888205.0,-0.832953691482544,0.1798082441091537,9.815048217773438,-3.518653392791748,-2.634321689605713,-0.318974107503891
2827896538.0,-0.8501148819923401,-0.1518593430519104,9.889029502868652,-3.368528366088867,-2.637753963470459,-0.3126217722892761
2827904871.0,-0.91476571559906,0.0165775287896394,9.85992431640625,-3.0226075649261475,-2.7914135456085205,-0.4143871068954468
2827913204.0,-0.96261328458786,0.4187858402729034,9.741925239562988,-2.8956637382507324,-2.973915100097656,-0.300403743982315
2827921537.0,-0.7766576409339905,0.4131861329078674,9.781285285949709,-3.013668298721313,-3.2015490531921387,-0.396636426448822
2827929870.0,-0.547562837600708,0.1062397435307502,9.876226425170898,-3.351008176803589,-3.252649307250977,-0.2619568109512329
2827938203.0,-0.561913788318634,-0.0431095585227012,9.916979789733888,-3.5569722652435303,-2.7143917083740234,-0.3025809526443481
2827946536.0,-0.7767861485481262,0.1474272906780243,9.829078674316406,-3.217813730239868,-2.3129141330718994,-0.2117784917354583
2827954869.0,-0.8825507164001465,0.260012149810791,9.783029556274414,-3.038053035736084,-2.4728236198425293,-0.4368763864040375
2827963202.0,-0.8451693654060364,0.1610340923070907,9.83226203918457,-2.944791793823242,-2.6514315605163574,-0.3532971441745758
2827971535.0,-0.8225781917572021,0.1848994046449661,9.841475486755373,-3.133082389831543,-2.786649465560913,-0.3335486054420471
2827979868.0,-0.9390795826911926,0.3298283815383911,9.834795951843262,-3.295373916625977,-2.7724850177764893,-0.2173367887735366
2827988201.0,-0.8653242588043213,0.2749015986919403,9.777193069458008,-3.3805413246154785,-3.0890257358551025,-0.3036567568778991
2827996534.0,-0.6915420293807983,0.0508099608123302,9.800318717956545,-3.258233070373535,-3.2296221256256104,-0.274379700422287
2828004867.0,-0.5348095893859863,-0.0725681185722351,9.900516510009766,-3.078446865081787,-3.159900426864624,-0.3028883337974548
2828013200.0,-0.6008208394050598,0.1928195655345916,9.80679702758789,-2.919459104537964,-2.6607041358947754,-0.1739462614059448
2828021533.0,-0.774549126625061,0.4707538485527038,9.78988265991211,-2.9651803970336914,-2.482070207595825,-0.2700764536857605
2828029866.0,-0.8676488995552063,0.2984676957130432,9.78723430633545,-3.2707841396331787,-2.5386266708374023,-0.315849095582962
2828038199.0,-0.8497647047042847,-0.0744677186012268,9.879419326782228,-3.4353301525115967,-2.8199479579925537,-0.2984827160835266
2828046532.0,-0.8935451507568359,-0.0514846295118331,9.855657577514648,-3.142841100692749,-2.7974331378936768,-0.3175396919250488
2828054865.0,-0.9404606223106384,0.3300730884075165,9.788422584533691,-2.658501386642456,-2.844767808914185,-0.3789882063865661
2828063198.0,-0.8125144839286804,0.4828517735004425,9.742996215820312,-2.797586441040039,-3.0955827236175537,-0.3021455407142639
2828071531.0,-0.6123579144477844,0.2674312591552734,9.834484100341797,-3.2199912071228027,-3.0792665481567383,-0.3392093181610107
2828079864.0,-0.5184211730957031,6.25227112323e-05,9.90636920928955,-3.5225210189819336,-2.7888009548187256,-0.2893384099006653
2828088197.0,-0.6926364302635193,0.0665193423628807,9.87191390991211,-3.288560152053833,-2.4067389965057373,-0.3102139830589294
2828096530.0,-0.8663817048072815,0.313787043094635,9.795331001281738,-2.8936400413513184,-2.421748876571656,-0.439156025648117
2828104863.0,-0.8920958042144775,0.2776161432266235,9.77149772644043,-2.8226120471954346,-2.653045415878296,-0.4789093434810638
2828113196.0,-0.8265386819839478,0.1945004612207412,9.854164123535156,-3.1897921562194824,-2.74950909614563,-0.4253756105899811
2828121529.0,-0.9177107214927672,0.3091909885406494,9.857502937316896,-3.350239515304565,-2.882216215133667,-0.3166432082653045
2828129862.0,-0.9238199591636658,0.3169775009155273,9.794352531433104,-3.500877141952514,-2.970892906188965,-0.2254052609205246
2828138195.0,-0.8118550181388855,0.1426021307706833,9.799920082092283,-3.3906078338623047,-3.1317758560180664,-0.2333457022905349
2828146528.0,-0.61275714635849,-0.0398994162678718,9.850695610046388,-3.105905294418335,-3.178316831588745,-0.3880557119846344
2828154861.0,-0.5563327074050903,0.1005648374557495,9.84894561767578,-2.9405651092529297,-2.764390468597412,-0.3198961615562439
2828163194.0,-0.6928473114967346,0.4608970284461975,9.852739334106444,-3.0468645095825195,-2.4462873935699463,-0.2609834372997284
2828171527.0,-0.8462589383125305,0.455574482679367,9.775084495544434,-3.284385204315185,-2.4543302059173584,-0.3985062539577484
2828179860.0,-0.8129039406776428,0.0167755596339702,9.863728523254396,-3.629639863967896,-2.654659032821656,-0.306013286113739
2828188193.0,-0.8600791096687317,-0.177373006939888,9.859585762023926,-3.24619460105896,-2.750431060791016,-0.3852637410163879
2828196526.0,-0.9239532351493835,0.1737830489873886,9.793811798095703,-2.817412137985229,-2.831012964248657,-0.3936907649040222
2828204859.0,-0.9185184240341188,0.5130839347839355,9.72144889831543,-2.722229242324829,-3.07698655128479,-0.4371069073677063
2828213192.0,-0.6989367604255676,0.4298940300941467,9.757927894592283,-3.1641266345977783,-3.1718616485595703,-0.4088800549507141
2828221525.0,-0.5185824632644653,0.086078941822052,9.902503967285156,-3.480001449584961,-3.0924065113067627,-0.2310404032468795
2828229858.0,-0.5650972723960876,-0.0396968051791191,9.888312339782717,-3.4951908588409424,-2.6217963695526123,-0.3772464692592621
2828238191.0,-0.8289831876754761,0.1914367079734802,9.82715892791748,-3.227393627166748,-2.325798273086548,-0.2847534418106079
2828246524.0,-0.90620619058609,0.3152145445346832,9.791996955871582,-2.9002482891082764,-2.5705928802490234,-0.416717916727066
2828254857.0,-0.8304957151412964,0.2067271471023559,9.862780570983888,-2.8249170780181885,-2.7590887546539307,-0.405191570520401
2828263190.0,-0.8513537645339966,0.2985305190086365,9.80118465423584,-3.162128448486328,-2.7099862098693848,-0.3101371526718139
2828271523.0,-0.9329602122306824,0.3547841906547546,9.812400817871094,-3.5115838050842285,-2.9793450832366943,-0.4061649441719055
2828279856.0,-0.8514935374259949,0.1626099348068237,9.77981185913086,-3.55261778831482,-3.019969940185547,-0.2115223705768585
2828288189.0,-0.6702970862388611,-0.0401345491409301,9.823583602905272,-3.309922933578491,-3.197988748550415,-0.4077274203300476
2828296522.0,-0.5398886203765869,-0.0108350776135921,9.893966674804688,-2.952809333801269,-2.9640536308288574,-0.3391836881637573
2828304855.0,-0.6425775289535522,0.2980420887470245,9.844364166259766,-2.8457155227661133,-2.664776563644409,-0.2386478036642074
2828313188.0,-0.8214276432991028,0.5034115314483643,9.823159217834473,-3.1092348098754883,-2.402947902679444,-0.2916948497295379
2828321521.0,-0.8441691398620605,0.2168444991111755,9.820642471313477,-3.533714532852173,-2.6535322666168213,-0.3450749814510345
2828329854.0,-0.8361111283302307,-0.1574020832777023,9.895763397216797,-3.56660270690918,-2.770281791687012,-0.3454848229885101
2828338187.0,-0.8966034054756165,-0.0492820776998996,9.867963790893556,-3.07883095741272,-2.7312204837799072,-0.4279626011848449
2828346520.0,-0.9493179321289062,0.3619764149188995,9.77459716796875,-2.78890347480774,-2.801608085632324,-0.3744032680988312
2828354853.0,-0.807508647441864,0.4902384877204895,9.735267639160156,-2.948326826095581,-3.166431903839112,-0.3518627882003784
2828363186.0,-0.5960200428962708,0.1826894730329513,9.85061264038086,-3.3398399353027344,-3.3216793537139893,-0.3316530883312225
2828371519.0,-0.5229192972183228,-0.042532917112112,9.908987998962402,-3.595188856124878,-2.9037835597991943,-0.3118020892143249
2828379852.0,-0.7451542019844055,0.097790390253067,9.83814525604248,-3.353031635284424,-2.501614570617676,-0.3153368830680847
2828388185.0,-0.8644537329673767,0.2816808521747589,9.79648208618164,-2.8959197998046875,-2.528022527694702,-0.3562171757221222
2828396518.0,-0.8730261921882629,0.2245076894760131,9.836296081542969,-2.8085241317749023,-2.734421968460083,-0.3880044221878052
2828404851.0,-0.7998674511909485,0.1939082741737365,9.83843231201172,-3.0393080711364746,-2.811546564102173,-0.2451794296503067
2828413184.0,-0.9113751649856568,0.3405113816261291,9.803950309753418,-3.394859790802002,-2.7363176345825195,-0.2860085368156433
2828421517.0,-0.9138355255126952,0.2803660929203033,9.794431686401367,-3.5852761268615723,-2.872687816619873,-0.3552694320678711
2828429850.0,-0.7809177041053772,0.0760457515716552,9.758500099182127,-3.308257818222046,-3.0035510063171387,-0.3441016674041748
2828438183.0,-0.604526162147522,-0.0685918107628822,9.878040313720703,-3.0746560096740723,-3.1224522590637207,-0.4479674100875854
2828446516.0,-0.5970683097839355,0.1761346757411956,9.86211395263672,-2.883880853652954,-2.7171576023101807,-0.2982777655124664
2828454849.0,-0.7364618182182312,0.4836681187152862,9.842674255371094,-2.9397454261779785,-2.466830015182495,-0.3375956118106842
2828463182.0,-0.8437780141830444,0.3976777195930481,9.81707763671875,-3.4169135093688965,-2.4855031967163086,-0.2641852498054504
2828471515.0,-0.8359096050262451,-0.0389394201338291,9.863344192504885,-3.53376579284668,-2.62235951423645,-0.3781173527240753
2828479848.0,-0.839335024356842,-0.1648952662944793,9.851895332336426,-3.2238330841064453,-2.6396493911743164,-0.3586249053478241
2828488181.0,-0.923768162727356,0.2671595513820648,9.786406517028809,-2.9196643829345703,-2.853246688842773,-0.3432307541370392
2828496514.0,-0.8658998608589172,0.5527507066726685,9.746334075927734,-2.761598587036133,-3.10616135597229,-0.3449469208717346
2828504847.0,-0.6429035067558289,0.3540358245372772,9.83548355102539,-3.136207103729248,-3.1216840744018555,-0.3166432082653045
2828513180.0,-0.5165558457374573,0.0410307943820953,9.920684814453123,-3.5587141513824463,-3.015077590942383,-0.3548596501350403
2828521513.0,-0.6394678354263306,0.0087215220555663,9.919727325439451,-3.555563449859619,-2.543724298477173,-0.1908772885799408
2828529846.0,-0.8847697377204895,0.2100365459918975,9.803098678588867,-3.1213245391845703,-2.460247039794922,-0.3083953261375427
2828538179.0,-0.9440575838088988,0.289927989244461,9.80579948425293,-2.7824227809906006,-2.60445499420166,-0.4050378799438476
2828546512.0,-0.8145308494567871,0.2143719345331192,9.850034713745115,-2.891232252120972,-2.859316825866699,-0.3462788164615631
2828554845.0,-0.8684543967247009,0.3068873286247253,9.798441886901855,-3.174244403839112,-2.763263940811157,-0.3338815867900848
2828563178.0,-0.9249150156974792,0.3607728481292724,9.777358055114746,-3.555563449859619,-2.8670523166656494,-0.2812186777591705
2828571511.0,-0.8444405794143677,0.1436024159193039,9.784628868103027,-3.5000574588775635,-2.9599554538726807,-0.2720488011837005
2828579844.0,-0.6749075055122375,-0.0647283047437667,9.82392120361328,-3.1749613285064697,-3.151831865310669,-0.4128502607345581
2828588177.0,-0.5567862391471863,-0.0023969875182956,9.88328742980957,-2.8909249305725098,-2.9268102645874023,-0.3446139097213745
2828596510.0,-0.671294093132019,0.3838137686252594,9.845721244812012,-2.867769479751587,-2.622000932693481,-0.2148265838623047
2828604843.0,-0.8495538830757141,0.5177218914031982,9.792985916137695,-3.1510887145996094,-2.446594715118408,-0.3087795972824096
2828613176.0,-0.8515551686286926,0.1541917324066162,9.83779525756836,-3.4269027709960938,-2.712188959121704,-0.2837288677692413
2828621509.0,-0.861392617225647,-0.1721125096082687,9.868520736694336,-3.5124547481536865,-2.691210985183716,-0.3236871063709259
2828629842.0,-0.8780521750450134,0.008266182616353,9.836991310119627,-3.027474164962769,-2.8156445026397705,-0.3664628267288208
2828638175.0,-0.9411070346832277,0.416850745677948,9.760802268981934,-2.7325518131256104,-2.884521007537842,-0.4355188310146332
2828646508.0,-0.7684924006462097,0.4844503700733185,9.753583908081056,-2.8963043689727783,-3.2313895225524902,-0.3513504862785339
2828654841.0,-0.5543925762176514,0.2094414085149765,9.870556831359863,-3.419680118560791,-3.299036979675293,-0.21772101521492
2828663174.0,-0.5308945178985596,-0.0627793595194816,9.901029586791992,-3.556690454483032,-2.6811702251434326,-0.2950247824192047
2828671507.0,-0.7692142724990845,0.0727483630180358,9.852237701416016,-3.2330543994903564,-2.2998764514923096,-0.4188951849937439
2828679840.0,-0.9088112115859984,0.2697712481021881,9.78102684020996,-2.9417433738708496,-2.381278276443481,-0.4025788903236389
2828688173.0,-0.853266179561615,0.211264818906784,9.817781448364258,-2.804835081100464,-2.778273344039917,-0.4178193509578705
2828696506.0,-0.7959050536155701,0.2050192207098007,9.856182098388672,-2.99043607711792,-2.8433847427368164,-0.2946149408817291
2828704839.0,-0.8888528943061829,0.3835604786872864,9.798742294311523,-3.4842023849487305,-2.8218181133270264,-0.3141842484474182
2828713172.0,-0.8716970682144165,0.2662577927112579,9.796893119812012,-3.6021556854248047,-2.903270959854126,-0.3516066074371338
2828721505.0,-0.75230872631073,0.0122853722423315,9.856386184692385,-3.4388136863708496,-3.294400691986084,-0.2976630628108978
2828729838.0,-0.5611365437507629,-0.1324601024389267,9.887582778930664,-2.9115447998046875,-3.1219401359558105,-0.357549101114273
2828738171.0,-0.6009275913238525,0.1839867383241653,9.81152057647705,-2.758422613143921,-2.824712038040161,-0.2742772102355957
2828746504.0,-0.7780250906944275,0.5405219793319702,9.8069486618042,-2.901606321334839,-2.4517691135406494,-0.308472216129303
2828754837.0,-0.8654316067695618,0.3871025145053863,9.805849075317385,-3.412482261657715,-2.646104574203491,-0.320664644241333
2828763170.0,-0.8366726636886597,-0.0684844404458999,9.87388801574707,-3.5263376235961914,-2.671180725097656,-0.3585992753505707
2828771503.0,-0.853391170501709,-0.1615050733089447,9.845091819763184,-3.2399959564208984,-2.830783128738404,-0.2918742001056671
2828779836.0,-0.9158717393875122,0.253691166639328,9.814353942871094,-2.7095248699188232,-2.925504207611084,-0.2901068329811096
2828788169.0,-0.8463674783706665,0.5350731015205383,9.761552810668944,-2.7123937606811523,-3.0364646911621094,-0.4102119505405426
2828796502.0,-0.6651427745819092,0.3444559872150421,9.779294967651367,-3.329594612121582,-3.239509344100952,-0.294691801071167
2828804835.0,-0.5351678133010864,-0.0047326888889074,9.912721633911133,-3.584763765335083,-3.044149398803711,-0.205810397863388
2828813168.0,-0.6723487377166748,0.0153799969702959,9.87893772125244,-3.421344995498657,-2.421698093414306,-0.3248653709888458
2828821501.0,-0.8959164619445801,0.2223214954137802,9.788264274597168,-3.0711464881896973,-2.4591970443725586,-0.3833938539028168
2828829834.0,-0.9283137917518616,0.2530918419361114,9.796150207519531,-2.91169810295105,-2.6993308067321777,-0.4438946545124054
2828838167.0,-0.8130930662155151,0.1923096179962158,9.841466903686523,-2.890053987503052,-2.8594448566436768,-0.4092385768890381
2828846500.0,-0.8437581658363342,0.3191839158535003,9.806857109069824,-3.188101530075073,-2.8289389610290527,-0.3430002331733703
2828854833.0,-0.9117538332939148,0.3646235167980194,9.783065795898438,-3.5289759635925293,-2.8682823181152344,-0.2801429033279419
2828863166.0,-0.8272734880447388,0.1209490373730659,9.792747497558594,-3.456845760345459,-3.0425100326538086,-0.3729432821273803
2828871499.0,-0.6393065452575684,-0.0834016576409339,9.84654426574707,-3.1730659008026123,-3.1033694744110107,-0.4686636924743652
2828879832.0,-0.5721655488014221,0.0261103045195341,9.873468399047852,-2.726379156112671,-2.8716630935668945,-0.3938444554805755
2828888165.0,-0.6953371167182922,0.4127172827720642,9.854909896850586,-2.8768880367279053,-2.5533037185668945,-0.3785783648490906
2828896498.0,-0.8640186190605164,0.5332170128822327,9.792012214660645,-3.3184263706207275,-2.4914710521698,-0.39389568567276
2828904831.0,-0.8418526649475098,0.1202965080738067,9.827326774597168,-3.5969817638397217,-2.542187213897705,-0.2763263583183288
2828913164.0,-0.8457282781600952,-0.1936633288860321,9.889132499694824,-3.538837432861328,-2.73572850227356,-0.2752505838871002
2828921497.0,-0.8958417177200317,0.0496215596795082,9.85079860687256,-2.837519407272339,-2.8011467456817627,-0.4551649391651153
2828929830.0,-0.9089093804359436,0.4777191877365112,9.726709365844728,-2.749662399291992,-3.070685625076294,-0.4050634801387787
2828938163.0,-0.7179691791534424,0.4664811789989471,9.761942863464355,-2.998453617095948,-3.217634677886963,-0.2944100201129913
2828946496.0,-0.5162394046783447,0.1635300666093826,9.88099765777588,-3.4039268493652344,-3.069814920425415,-0.3450237810611725
2828954829.0,-0.5614409446716309,0.0003918923903256,9.906960487365724,-3.608175039291382,-2.7125730514526367,-0.2901836633682251
2828963162.0,-0.8218831419944763,0.1275898665189743,9.842583656311035,-3.360741376876831,-2.2924482822418213,-0.2647999823093414
2828971495.0,-0.9238619804382324,0.2509715855121612,9.7681245803833,-2.9871063232421875,-2.47812557220459,-0.4690735042095184
2828979828.0,-0.8596523404121399,0.1985705494880676,9.842596054077148,-2.877246379852295,-2.767669200897217,-0.4177680909633636
2828988161.0,-0.8453816175460815,0.2610308229923248,9.866315841674805,-3.1221706867218018,-2.816131591796875,-0.4594681560993194
2828996494.0,-0.935472011566162,0.3826721906661987,9.805041313171388,-3.4596636295318604,-2.8748650550842285,-0.2854450643062591
2829004827.0,-0.8570598363876343,0.252654492855072,9.780762672424316,-3.575491428375244,-3.021557569503784,-0.3748387098312378
2829013160.0,-0.681870698928833,-0.0132320951670408,9.81401824951172,-3.397549152374268,-3.2743959426879883,-0.3121607005596161
2829021493.0,-0.5446382164955139,-0.1166985481977462,9.903826713562012,-3.0786776542663574,-3.0504250526428223,-0.3430002331733703
2829029826.0,-0.6397066712379456,0.2070013731718063,9.862483978271484,-2.796485185623169,-2.6030209064483643,-0.3986855745315552
2829038159.0,-0.8161614537239075,0.5506192445755005,9.8040771484375,-2.9450221061706543,-2.520901679992676,-0.4573421478271484
2829046492.0,-0.8761188983917236,0.2999712526798248,9.782185554504396,-3.385331153869629,-2.64093017578125,-0.3245579898357391
2829054825.0,-0.8589797019958496,-0.1082900464534759,9.895845413208008,-3.5719566345214844,-2.725841522216797,-0.2219217419624328
2829063158.0,-0.8734610676765442,-0.0951691716909408,9.874466896057127,-3.165945053100586,-2.6814515590667725,-0.4919725954532623
2829071491.0,-0.9541181921958924,0.323042631149292,9.762625694274902,-2.8574981689453125,-2.8063979148864746,-0.3629280924797058
2829079824.0,-0.8057748079299927,0.4549966752529144,9.760746002197266,-2.794487476348877,-3.134465217590332,-0.4421273469924927
2829088157.0,-0.5731865763664246,0.2339402288198471,9.847892761230469,-3.3153276443481445,-3.187793970108032,-0.2989693880081177
2829096490.0,-0.5437628030776978,0.0026099868118762,9.906240463256836,-3.433459997177124,-2.764544486999512,-0.2482787668704986
2829104823.0,-0.7254395484924316,0.0999972000718116,9.841096878051758,-3.323907852172852,-2.391831636428833,-0.2324491590261459
2829113156.0,-0.8841182589530945,0.3022291362285614,9.802499771118164,-3.085055112838745,-2.330101251602173,-0.4140540659427643
2829121489.0,-0.8656471371650696,0.1937615275382995,9.78988265991211,-2.939771175384521,-2.71354603767395,-0.4609280526638031
2829129822.0,-0.807900607585907,0.1637332290410995,9.882444381713867,-3.0725297927856445,-2.755195140838623,-0.1993555873632431
2829138155.0,-0.915286660194397,0.3179299831390381,9.809524536132812,-3.3234474658966064,-2.719770669937134,-0.2812699377536773
2829146488.0,-0.8987441062927246,0.3324076235294342,9.776200294494627,-3.4515953063964844,-2.908163547515869,-0.1988945454359054
2829154821.0,-0.7762760519981384,0.0831255316734314,9.790851593017578,-3.4289004802703857,-3.103932857513428,-0.2881857752799988
2829163154.0,-0.5972474217414856,-0.1113537326455116,9.912641525268556,-3.129931688308716,-3.126345634460449,-0.3187435567378998
2829171487.0,-0.5801389217376709,0.1106936112046241,9.842418670654297,-2.8384923934936523,-2.8595986366271973,-0.3776818513870239
2829179820.0,-0.7463333010673523,0.4401060938835144,9.793046951293944,-2.878092050552368,-2.5117318630218506,-0.3675898611545563
2829188153.0,-0.8224940299987793,0.3967468440532684,9.785436630249023,-3.2843594551086426,-2.526844024658203,-0.4025532901287079
2829196486.0,-0.8217039108276367,0.0023366520181298,9.896422386169434,-3.588964462280273,-2.54016375541687,-0.3527849018573761
2829204819.0,-0.8583068251609802,-0.1199539750814437,9.875000953674316,-3.320680856704712,-2.713162422180176,-0.3914111852645874
2829213152.0,-0.9626813530921936,0.237076923251152,9.830803871154783,-2.950913429260254,-2.7272756099700928,-0.4496578872203827
2829221485.0,-0.901722252368927,0.4793643355369568,9.75395965576172,-2.943178176879883,-2.997992992401123,-0.3534508347511291
2829229818.0,-0.6974213123321533,0.3145511746406555,9.794677734375,-3.058288812637329,-3.3393282890319824,-0.4015031456947326
2829238151.0,-0.5480498671531677,0.0498062968254089,9.901113510131836,-3.4628396034240723,-2.971712589263916,-0.1995861232280731
2829246484.0,-0.6325621604919434,0.0704144537448883,9.87370491027832,-3.373830556869507,-2.557863235473633,-0.2789133787155151
2829254817.0,-0.8658133745193481,0.2786493599414825,9.820208549499512,-3.0918426513671875,-2.4623472690582275,-0.3862882256507873
2829263150.0,-0.8925914764404297,0.2583780586719513,9.750754356384276,-2.8742499351501465,-2.60629940032959,-0.4146431982517242
2829271483.0,-0.785348653793335,0.136739432811737,9.86885929107666,-3.0150513648986816,-2.7369577884674072,-0.4666400849819183
2829279816.0,-0.8574154376983643,0.269243448972702,9.82538604736328,-3.240457057952881,-2.6641881465911865,-0.3912318646907806
2829288149.0,-0.9448238611221312,0.3826792538166046,9.776267051696776,-3.3862533569335938,-2.8687684535980225,-0.2390576601028442
2829296482.0,-0.8570152521133423,0.1567224264144897,9.7616548538208,-3.569702625274658,-3.046250104904175,-0.4164362251758575
2829304815.0,-0.6477803587913513,-0.0065197008661925,9.846332550048828,-3.0512702465057373,-3.2002170085906982,-0.3456897139549255
2829313148.0,-0.5695780515670776,0.0353392213582992,9.894370079040527,-3.084287166595459,-2.902861356735229,-0.3323959708213806
2829321481.0,-0.6965613961219788,0.3443826138973236,9.832733154296877,-2.907625436782837,-2.5812230110168457,-0.2399029284715652
2829329814.0,-0.8374623656272888,0.4567581713199615,9.79458713531494,-3.1960926055908203,-2.5526373386383057,-0.3757351338863373
2829338147.0,-0.823664665222168,0.1301279515028,9.847233772277832,-3.4391210079193115,-2.582324981689453,-0.2844204604625702
2829346480.0,-0.8267936706542969,-0.1205286160111427,9.867142677307127,-3.4450888633728027,-2.7677462100982666,-0.4372093379497528
2829354813.0,-0.908356547355652,0.1404556632041931,9.789891242980955,-2.986568212509156,-2.722664594650269,-0.3707916140556335
2829363146.0,-0.8987333178520203,0.4945743381977081,9.74716854095459,-2.676968812942505,-2.974939107894897,-0.3497879207134247
2829371479.0,-0.710290253162384,0.4253417551517486,9.76379680633545,-3.1043686866760254,-3.144864797592163,-0.3584456443786621
2829379812.0,-0.5581721663475037,0.0761458575725555,9.90794277191162,-3.536865234375,-3.081085443496704,-0.2370597571134567
2829388145.0,-0.5986191630363464,-0.013473386876285,9.92481803894043,-3.50384783744812,-2.6531224250793457,-0.2922071814537048
2829396478.0,-0.8359580636024475,0.2077237516641616,9.817065238952637,-3.2176854610443115,-2.3145534992218018,-0.3199729919433594
2829404811.0,-0.8947445750236511,0.3014078438282013,9.780253410339355,-2.8840601444244385,-2.549743413925171,-0.5037295818328857
2829413144.0,-0.8169075846672058,0.1834530532360077,9.858147621154783,-2.894279956817627,-2.7783243656158447,-0.3489938676357269
2829421477.0,-0.8239588737487793,0.2438652068376541,9.850401878356934,-3.124936580657959,-2.7876484394073486,-0.3209207653999328
2829429810.0,-0.9500100016593932,0.3805786669254303,9.821889877319336,-3.4535675048828125,-2.803785562515259,-0.2921047508716583
2829438143.0,-0.8764139413833618,0.1886695027351379,9.786755561828612,-3.442194938659668,-3.012900114059448,-0.348942756652832
2829446476.0,-0.6558403372764587,-0.0157879181206226,9.841059684753418,-3.3329243659973145,-3.135951042175293,-0.3746338188648224
2829454809.0,-0.5583466291427612,-0.0538836233317852,9.890155792236328,-2.973761558532715,-3.014411687850952,-0.2918229699134826
2829463142.0,-0.6508305072784424,0.2976860105991363,9.85988426208496,-2.9423069953918457,-2.569568634033203,-0.2815772593021393
2829471475.0,-0.8102545142173767,0.5062381029129028,9.801798820495604,-3.029139518737793,-2.5804803371429443,-0.3934602439403534
2829479808.0,-0.83607417345047,0.1828768998384475,9.805538177490234,-3.5805885791778564,-2.5579397678375244,-0.4126197099685669
2829488141.0,-0.8411311507225037,-0.1512259840965271,9.881017684936523,-3.467834711074829,-2.601074457168579,-0.3497623801231384
2829496474.0,-0.8998980522155762,-0.0004689801717177,9.833148002624512,-3.074911594390869,-2.6679017543792725,-0.3435637056827545
2829504807.0,-0.9485499262809752,0.3941521942615509,9.761829376220703,-2.789876699447632,-2.8212029933929443,-0.317360371351242
2829513140.0,-0.8107768297195435,0.4186856746673584,9.747797966003418,-3.1100807189941406,-3.18992018699646,-0.4272454679012298
2829521473.0,-0.552139163017273,0.1288556307554245,9.867513656616213,-3.3704748153686523,-3.207926988601685,-0.284907191991806
2829529806.0,-0.5391954183578491,-0.0074949320405721,9.910037994384766,-3.4558215141296387,-2.893640279769897,-0.1741767972707748
2829538139.0,-0.7600467801094055,0.1563026309013366,9.839900016784668,-3.2226035594940186,-2.4808411598205566,-0.2825762331485748
2829546472.0,-0.8867120146751404,0.2798943519592285,9.784947395324709,-2.996173620223999,-2.502690076828003,-0.4762966930866241
2829554805.0,-0.8248454332351685,0.1608530730009079,9.831480979919434,-2.983571529388428,-2.700047731399536,-0.3661042749881744
2829563138.0,-0.7945032119750977,0.195967361330986,9.880146026611328,-3.061439037322998,-2.70816707611084,-0.3293478190898895
2829571471.0,-0.9508473873138428,0.3447139859199524,9.805648803710938,-3.371345996856689,-2.667543649673462,-0.3753510117530823
2829579804.0,-0.9166178703308104,0.2991022765636444,9.780117988586426,-3.4930899143218994,-2.9571635723114014,-0.3343426287174225
2829588137.0,-0.714866042137146,0.065377190709114,9.803680419921877,-3.301111459732056,-3.1883575916290283,-0.2967665493488312
2829596470.0,-0.558849573135376,-0.0814175829291343,9.894567489624023,-3.13533616065979,-3.147451639175415,-0.2985083162784576
2829604803.0,-0.6176732778549194,0.2066531926393509,9.858501434326172,-2.8366739749908447,-2.639418840408325,-0.3627232015132904
2829613136.0,-0.7766706943511963,0.4917654395103454,9.8115816116333,-3.040588855743408,-2.49052357673645,-0.4017848670482635
2829621469.0,-0.8306559920310974,0.2909300923347473,9.808329582214355,-3.329312801361084,-2.66162657737732,-0.3369552791118622
2829629802.0,-0.8148728013038635,-0.0656974837183952,9.864919662475586,-3.454335451126098,-2.6701560020446777,-0.3654126822948456
2829638135.0,-0.9151342511177064,-0.0254981350153684,9.844545364379885,-3.1097989082336426,-2.712803602218628,-0.4050891101360321
2829646468.0,-0.9692294001579284,0.3773588538169861,9.758840560913086,-2.843461513519287,-2.8687427043914795,-0.4095971882343292
2829654801.0,-0.8425799012184143,0.469775915145874,9.761109352111816,-2.88805627822876,-3.1480154991149902,-0.4357494115829468
2829663134.0,-0.6154359579086304,0.2144481837749481,9.842167854309082,-3.2885091304779053,-3.2048020362854004,-0.3357514142990112
2829671467.0,-0.5416768193244934,0.0079975444823503,9.884855270385742,-3.5160915851593018,-2.954371690750122,-0.281756579875946
2829679800.0,-0.7079548239707947,0.134258434176445,9.848929405212402,-3.2824385166168213,-2.468725681304932,-0.4139516353607178
2829688133.0,-0.8773864507675171,0.2927305102348327,9.807950019836426,-3.0431501865386963,-2.367908000946045,-0.4496322572231293
2829696466.0,-0.90020352602005,0.2219636887311935,9.78724765777588,-2.9775779247283936,-2.556402921676636,-0.4532438814640045
2829704799.0,-0.8182243704795837,0.1942672282457351,9.830248832702637,-3.091176986694336,-2.7472035884857178,-0.4409490525722503
2829713132.0,-0.9479756355285645,0.343961238861084,9.819186210632324,-3.321218729019165,-2.6720004081726074,-0.2312709540128708
2829721465.0,-0.9578396081924438,0.3515805602073669,9.770940780639648,-3.43225646018982,-3.037259340286255,-0.2666954398155212
2829729798.0,-0.7723994851112366,0.0821615606546402,9.807036399841309,-3.4593820571899414,-3.3378679752349854,-0.3109056055545807
2829738131.0,-0.5748473405838013,-0.098359040915966,9.86414623260498,-3.128727912902832,-3.176908254623413,-0.3216123282909393
2829746464.0,-0.5603603720664978,0.1462203413248062,9.860183715820312,-2.9873368740081787,-2.83288311958313,-0.3204852938652038
2829754797.0,-0.731594443321228,0.4725851118564605,9.806655883789062,-2.976553201675415,-2.402819871902466,-0.2789645791053772
2829763130.0,-0.8357332348823547,0.3765283823013305,9.804801940917969,-3.3182733058929443,-2.6477694511413574,-0.4205345511436462
2829771463.0,-0.7955713868141174,-0.0221819560974836,9.88266944885254,-3.483997344970703,-2.636601448059082,-0.4243510067462921
2829779796.0,-0.8788424730300903,-0.105884775519371,9.86990737915039,-3.302699565887451,-2.658194065093994,-0.424735277891159
2829788129.0,-0.9826663732528688,0.2508516013622284,9.797554969787598,-2.971968412399292,-2.8869287967681885,-0.3862370252609253
2829796462.0,-0.8975471258163452,0.4378567636013031,9.741212844848633,-2.8684356212615967,-3.0641539096832275,-0.4040133357048034
2829804795.0,-0.6542654633522034,0.273337572813034,9.828106880187988,-3.177266836166382,-3.249037742614746,-0.3160796463489532
2829813128.0,-0.5087220072746277,-0.0068720411509275,9.928526878356934,-3.4882490634918213,-3.029754638671875,-0.327580451965332
2829821461.0,-0.623435378074646,0.0483826920390129,9.89793300628662,-3.358615636825561,-2.560142993927002,-0.1369849443435669
2829829794.0,-0.8422882556915283,0.2475600987672805,9.827974319458008,-3.045942068099976,-2.360991954803467,-0.3547059297561645
2829838127.0,-0.8698972463607788,0.2386456578969955,9.782209396362305,-2.976886034011841,-2.689955472946167,-0.4448167979717254
2829846460.0,-0.8076739311218262,0.1246653795242309,9.868109703063965,-3.044840812683105,-2.681810140609741,-0.3713039457798004
2829854793.0,-0.901539385318756,0.2896880507469177,9.825510025024414,-3.300163745880127,-2.7030956745147705,-0.3107519149780273
2829863126.0,-0.9591304063796996,0.3567496240139007,9.785326957702637,-3.525338649749756,-2.7703332901000977,-0.3196912705898285
2829871459.0,-0.8404795527458191,0.1132220178842544,9.779393196105955,-3.470139980316162,-3.131904125213623,-0.3412328660488128
2829879792.0,-0.6356792449951172,-0.0296965781599283,9.84661865234375,-3.2878432273864746,-3.16443395614624,-0.3389275968074798
2829888125.0,-0.5669323205947876,0.0612417608499527,9.871394157409668,-3.0293188095092773,-2.8832406997680664,-0.2816029191017151
2829896458.0,-0.7178658843040466,0.3774717450141907,9.82559585571289,-2.9764506816864014,-2.551433563232422,-0.257627934217453
2829904791.0,-0.8407981395721436,0.4451038539409637,9.794045448303224,-3.168531656265259,-2.4349656105041504,-0.3792186975479126
2829913124.0,-0.8328880071640015,0.07156752794981,9.833791732788086,-3.544318437576294,-2.630889415740967,-0.4592376351356506
2829921457.0,-0.874387800693512,-0.1679771244525909,9.87765121459961,-3.321807861328125,-2.60542893409729,-0.4013494849205017
2829929790.0,-0.947450578212738,0.1661229580640792,9.818779945373535,-2.8895926475524902,-2.8090617656707764,-0.4150786697864532
2829938123.0,-0.9152010679244996,0.503713846206665,9.729902267456056,-2.692798852920532,-3.078651666641236,-0.3511199057102203
2829946456.0,-0.7002139091491699,0.4024357497692108,9.784978866577148,-3.1173551082611084,-3.245887279510498,-0.3918209969997406
2829954789.0,-0.4862249791622162,0.1068995743989944,9.89455223083496,-3.5629403591156006,-3.121479034423828,-0.3341633677482605
2829963122.0,-0.5738216042518616,0.0241662729531526,9.891623497009276,-3.379516839981079,-2.5735647678375244,-0.3089589178562164
2829971455.0,-0.8227194547653198,0.202720507979393,9.798802375793455,-3.0926623344421387,-2.315449476242065,-0.2932060956954956
2829979788.0,-0.9124888777732848,0.244831308722496,9.793904304504396,-2.948608160018921,-2.541623592376709,-0.361032634973526
2829988121.0,-0.8672924637794495,0.1620952486991882,9.872994422912598,-2.9075489044189453,-2.688521385192871,-0.3814728260040283
2829996454.0,-0.8943352699279785,0.2769607603549957,9.834978103637695,-3.125064849853516,-2.878758192062378,-0.3476108312606811
2830004787.0,-0.9589424729347228,0.3769262135028839,9.78072738647461,-3.5109691619873047,-2.871535062789917,-0.3554744124412536
2830013120.0,-0.8254308700561523,0.2233868092298507,9.773008346557615,-3.4815382957458496,-3.110337018966675,-0.424120545387268
2830021453.0,-0.644190788269043,-0.0137455109506845,9.8563871383667,-3.29465651512146,-3.2818496227264404,-0.3251727223396301
2830029786.0,-0.5313463807106018,-0.0506018809974193,9.857523918151855,-3.058621644973755,-2.950145483016968,-0.1856776028871536
2830038119.0,-0.6405341029167175,0.2807609140872955,9.832271575927734,-2.8863658905029297,-2.5582215785980225,-0.2628788948059082
2830046452.0,-0.7988680601119995,0.4944014549255371,9.783791542053224,-3.050219774246216,-2.5383450984954834,-0.3186154365539551
2830054785.0,-0.8277952671051025,0.1932664215564727,9.834637641906738,-3.4123542308807373,-2.49280309677124,-0.3717650175094604
2830063118.0,-0.870149552822113,-0.1274622976779937,9.88868522644043,-3.429515600204468,-2.6199264526367188,-0.3232260048389435
2830071451.0,-0.9264763593673706,0.0153350103646516,9.85581398010254,-3.028038024902344,-2.794718027114868,-0.3819082379341125
2830079784.0,-0.9369106888771056,0.3916587233543396,9.762258529663086,-2.72269058227539,-3.031726360321045,-0.4113389551639557
2830088117.0,-0.7386760115623474,0.462564080953598,9.77000331878662,-2.903911590576172,-3.2509331703186035,-0.2968689799308777
2830096450.0,-0.5269483327865601,0.1900123357772827,9.870367050170898,-3.31302261352539,-3.1730401515960693,-0.279400110244751
2830104783.0,-0.5085064768791199,-0.0130394008010625,9.905925750732422,-3.561070442199707,-2.845869541168213,-0.3144915699958801
2830113116.0,-0.7358230948448181,0.0999756082892417,9.85378360748291,-3.282693862915039,-2.377461671829224,-0.2859829068183899
2830121449.0,-0.8933658599853516,0.2622425258159637,9.824200630187988,-2.9913582801818848,-2.4700827598571777,-0.3792442977428436
2830129782.0,-0.8906986117362976,0.2054155319929123,9.834941864013672,-2.9048075675964355,-2.6378049850463867,-0.4783714115619659
2830138115.0,-0.8716400861740112,0.1982034891843795,9.84282398223877,-3.0483243465423584,-2.6649560928344727,-0.3851868510246277
2830146448.0,-0.9627832770347596,0.3905439674854278,9.811771392822266,-3.340070962905884,-2.738264560699463,-0.278349906206131
2830154781.0,-0.8941742181777954,0.3228451609611511,9.812360763549805,-3.505666971206665,-3.0563418865203857,-0.3033238053321838
2830163114.0,-0.7186931371688843,0.0561365783214569,9.844237327575684,-3.390556573867798,-3.130034208297729,-0.3595470488071441
2830171447.0,-0.5462279915809631,-0.1239794939756393,9.88458251953125,-3.110925912857056,-2.9698171615600586,-0.2948966920375824
2830179780.0,-0.6018887162208557,0.1665740758180618,9.86964988708496,-2.942102193832397,-2.6162378787994385,-0.2906703650951385
2830188113.0,-0.7708904147148132,0.5117005109786987,9.79664134979248,-2.922404766082764,-2.610576868057251,-0.3490451276302337
2830196446.0,-0.8765649199485779,0.3871845006942749,9.802412986755373,-3.2697854042053223,-2.617313861846924,-0.356268435716629
2830204779.0,-0.8670849204063416,-0.027863411232829,9.890766143798828,-3.547648668289185,-2.566546678543091,-0.2977398633956909
2830213112.0,-0.9084507822990416,-0.0820867493748664,9.866528511047363,-3.204929828643799,-2.75783371925354,-0.312135100364685
2830221445.0,-0.9683181047439576,0.2865867018699646,9.80502986907959,-2.775378942489624,-2.814056396484375,-0.3115971386432647
2830229778.0,-0.8413851857185364,0.4865593016147613,9.766499519348145,-2.897072553634644,-3.134439468383789,-0.3977890610694885
2830238111.0,-0.6140527129173279,0.2984963953495025,9.814407348632812,-3.137897491455078,-3.2030346393585205,-0.4284493327140808
2830246444.0,-0.4903708100318908,0.0157579332590103,9.884103775024414,-3.608354330062866,-3.014206647872925,-0.2560911476612091
2830254777.0,-0.6440781354904175,0.0763425230979919,9.871320724487305,-3.459894180297852,-2.449002742767334,-0.2916692793369293
2830263110.0,-0.8710137605667114,0.2691380381584167,9.772863388061523,-3.0783698558807373,-2.3524625301361084,-0.332626461982727
2830271443.0,-0.8809983730316162,0.2651768326759338,9.782057762145996,-2.9161036014556885,-2.629992723464966,-0.4658204615116119
2830279776.0,-0.8321697115898132,0.1603680104017257,9.851602554321287,-2.979498624801636,-2.717926025390625,-0.3749411404132843
2830288109.0,-0.9154982566833496,0.296415776014328,9.815003395080566,-3.221963882446289,-2.7502517700195312,-0.3961498141288757
2830296442.0,-0.9360567331314088,0.3624376356601715,9.764721870422363,-3.464914560317993,-2.925273895263672,-0.2800660729408264
2830304775.0,-0.8119978904724121,0.1461285203695297,9.780522346496582,-3.401775598526001,-3.1706583499908447,-0.1614721417427063
2830313108.0,-0.6138742566108704,-0.0698474049568176,9.86017894744873,-3.234591245651245,-3.144813537597656,-0.4137980043888092
2830321441.0,-0.5108075141906738,0.0444120019674301,9.869311332702637,-2.9040138721466064,-2.8283493518829346,-0.2460759431123733
2830329774.0,-0.6622582077980042,0.3974224328994751,9.839244842529297,-2.833420753479004,-2.5123720169067383,-0.284061849117279
2830338107.0,-0.8041964769363403,0.4726183414459228,9.832404136657717,-3.2410457134246826,-2.53898549079895,-0.4670499563217163
2830346440.0,-0.8096106648445129,0.0676612854003906,9.885998725891112,-3.5620434284210205,-2.663547277450561,-0.3628000319004059
2830354773.0,-0.8646937608718872,-0.1588355600833892,9.864354133605955,-3.4738285541534424,-2.604814052581787,-0.3993003368377685
2830363106.0,-0.9357969760894777,0.0758064985275268,9.828106880187988,-2.901938915252685,-2.7689242362976074,-0.3438454270362854
2830371439.0,-0.9559711217880248,0.4485664069652557,9.75078582763672,-2.789543628692627,-2.964155673980713,-0.4121330082416534
2830379772.0,-0.7503241896629333,0.4157161712646484,9.776145935058594,-2.986261367797852,-3.160181999206543,-0.3846233785152435
2830388105.0,-0.5374847054481506,0.1312340050935745,9.902334213256836,-3.4484448432922363,-3.189330816268921,-0.3106494545936584
2830396438.0,-0.5583119988441467,-0.0250992812216281,9.886969566345217,-3.533074140548706,-2.615700483322144,-0.2320649921894073
2830404771.0,-0.8197016716003418,0.1543318927288055,9.82851219177246,-3.1354126930236816,-2.3812785148620605,-0.4141053259372711
2830413104.0,-0.910927414894104,0.2578006982803345,9.782407760620115,-2.900068759918213,-2.590930700302124,-0.3810885548591614
2830421437.0,-0.8368287086486816,0.1475654393434524,9.833791732788086,-2.8379037380218506,-2.7613167762756348,-0.3685632050037384
2830429770.0,-0.8291656970977783,0.2273974418640136,9.832073211669922,-3.1349775791168213,-2.7666447162628174,-0.3444090485572815
2830438103.0,-0.926152229309082,0.3791057467460632,9.784415245056152,-3.35292911529541,-2.815183639526367,-0.3108031451702118
2830446436.0,-0.8619450926780701,0.2496162205934524,9.7969331741333,-3.5505943298339844,-3.0453789234161377,-0.3226369321346283
2830454769.0,-0.6853640079498291,0.0225364658981561,9.820430755615234,-3.2463481426239014,-3.154930830001831,-0.2918998301029205
2830463102.0,-0.5627317428588867,-0.0738740116357803,9.891454696655272,-3.1012182235717773,-2.8719706535339355,-0.3637221455574035
2830471435.0,-0.6711631417274475,0.2106922268867492,9.834969520568848,-2.795153379440308,-2.6175696849823,-0.3524774312973022
