SampleTimeFine,Acc_X,Acc_Y,Acc_Z,Gyr_X,Gyr_Y,Gyr_Z
2822605083.0,0.0,0.0,0.0,0.0,0.0,0.0
2822613416.0,-0.6200246810913086,0.2028147131204605,9.874401092529297,2.9253504276275635,-0.5691098570823669,1.1496694087982178
2822621749.0,-0.7282148599624634,0.2595637738704681,9.989739418029783,3.1152801513671875,-0.7190812230110168,0.8754945397377014
2822630082.0,-0.6277466416358948,0.1987630873918533,10.10349178314209,3.241635322570801,-1.028910994529724,1.0321513414382937
2822638415.0,-0.5830920338630676,0.2772137820720672,10.061372756958008,3.082801342010498,-0.9271712899208068,1.0567153692245483
2822646748.0,-0.7028894424438477,0.4638286530971527,10.06810188293457,2.9697399139404297,-1.0436135530471802,1.0219310522079468
2822655081.0,-0.6190532445907593,0.3500612676143646,9.985416412353516,2.6339502334594727,-1.3042513132095337,0.9809868931770324
2822663414.0,-0.4624640643596649,0.0324216745793819,9.953999519348145,2.839030504226685,-1.2658426761627195,1.126821517944336
2822671747.0,-0.3486922979354858,-0.0027465652674436,9.881900787353516,3.032648801803589,-1.0650016069412231,1.0111221075057983
2822680080.0,-0.4591172933578491,0.2799373567104339,9.881646156311035,3.291762590408325,-0.8573213219642639,1.048851728439331
2822688413.0,-0.6201069951057434,0.5223914384841919,9.991768836975098,3.218479633331299,-0.6527659296989441,1.0416028499603271
2822696746.0,-0.6259004473686218,0.321262925863266,10.086752891540527,2.8637354373931885,-0.7760601043701172,0.9991216063499452
2822705079.0,-0.6076490879058838,-0.0402614176273345,10.069849967956545,2.700637102127075,-0.8662094473838806,1.083405375480652
2822713412.0,-0.6809557676315308,-0.0177072249352931,9.931244850158691,3.0291647911071777,-0.9103682041168212,0.9784893989562988
2822721745.0,-0.7161526679992676,0.3884585797786712,10.002432823181152,3.543447494506836,-1.0373636484146118,0.9050533175468444
2822730078.0,-0.5461164116859436,0.5428553819656372,10.006091117858888,3.379593133926392,-1.3372807502746582,0.8923743367195129
2822738411.0,-0.3234942555427551,0.3643058836460113,9.994281768798828,2.8996596336364746,-1.4001127481460571,1.075157642364502
2822746744.0,-0.3061094880104065,0.0871973857283592,9.89652156829834,2.738212823867798,-0.9661561250686646,1.148977756500244
2822755077.0,-0.5652827620506287,0.1219061464071273,9.861515045166016,2.786060333251953,-0.549105167388916,1.0066907405853271
2822763410.0,-0.7230828404426575,0.2995281219482422,9.920238494873049,3.16294813156128,-0.6801987886428833,0.966501772403717
2822771743.0,-0.6663845777511597,0.2580531239509582,10.050494194030762,3.267454147338867,-0.9011984467506408,0.9145305156707764
2822780076.0,-0.5928869247436523,0.2421994507312774,10.062594413757324,3.089384317398072,-0.9479700922966005,1.0136834383010864
2822788409.0,-0.6656858325004578,0.4379673600196838,10.038687705993652,2.9377477169036865,-0.9804232716560364,1.0082019567489624
2822796742.0,-0.6635996103286743,0.4342817068099975,9.97584342956543,2.753120422363281,-1.0631828308105469,1.0230581760406494
2822805075.0,-0.4698113799095154,0.170382559299469,9.96896743774414,2.695155620574951,-1.350881814956665,1.056817650794983
2822813408.0,-0.3314071893692016,-0.0182662419974803,9.900327682495115,2.967716693878174,-1.305314302444458,1.0306143760681152
2822821741.0,-0.3683050870895386,0.1438259482383728,9.8787841796875,3.345808506011963,-0.8939496874809265,1.0746454000473022
2822830074.0,-0.5673136115074158,0.4421271681785583,9.959588050842283,3.218505859375,-0.6256917715072632,1.0154250860214231
2822838407.0,-0.6463512778282166,0.4494378566741943,10.052348136901855,3.101038694381714,-0.6494873762130737,1.034712791442871
2822846740.0,-0.6235835552215576,0.1042087823152542,10.091161727905272,2.7654154300689697,-0.7547875046730042,1.0403478145599363
2822855073.0,-0.6928586959838867,0.0054301461204886,10.005951881408691,3.028243064880371,-0.8903636932373047,0.9963168501853944
2822863406.0,-0.7404747009277344,0.3460764288902282,10.002230644226074,3.387840986251831,-1.134544014930725,1.0061014890670776
2822871739.0,-0.604035496711731,0.6029388904571533,9.992609977722168,3.2388174533843994,-1.3850256204605105,0.9490073919296264
2822880072.0,-0.3628350794315338,0.4367024004459381,10.02961254119873,2.9316775798797607,-1.43563973903656,0.992730975151062
2822888405.0,-0.248757317662239,0.166389912366867,9.959940910339355,2.670284032821656,-1.1094164848327637,1.0949828624725342
2822896738.0,-0.4527673721313476,0.175614133477211,9.858511924743652,2.788083553314209,-0.6755369901657104,1.2195191383361816
2822905071.0,-0.7005386352539062,0.3499112427234649,9.906723022460938,3.118251085281372,-0.4607616364955902,0.9973414540290833
2822913404.0,-0.6953359842300415,0.3646396100521087,10.00131130218506,3.238740921020508,-0.9066799879074096,0.8964983224868774
2822921737.0,-0.6008322238922119,0.2677616477012634,10.072636604309082,3.000937938690185,-1.0434855222702026,0.9630951881408693
2822930070.0,-0.6903286576271057,0.3974743783473968,10.087274551391602,2.745999574661255,-0.9674368500709534,0.9935248494148254
2822938403.0,-0.6847099661827087,0.3769185841083526,10.048835754394531,2.6762518882751465,-1.0950212478637695,1.0714176893234253
2822946736.0,-0.5413175821304321,0.1548914313316345,9.993599891662598,2.6542749404907227,-1.322578191757202,1.0028741359710691
2822955069.0,-0.3546392321586609,-0.0658887103199958,9.988451957702637,2.87781023979187,-1.3576695919036863,1.0057427883148191
2822963402.0,-0.3354883193969726,-0.0610653758049011,9.939626693725586,3.237562656402588,-1.033572793006897,1.00243878364563
2822971735.0,-0.5248088836669922,0.2749713659286499,10.015225410461426,3.462916374206543,-0.6677246689796448,0.9999284744262696
2822980068.0,-0.5948593616485596,0.4169659912586212,10.064618110656738,3.178034782409668,-0.6387293934822083,0.8897872567176819
2822988401.0,-0.6296919584274292,0.0917903259396553,10.119025230407717,2.907266855239868,-0.646003782749176,1.0493894815444946
2822996734.0,-0.6671209931373596,-0.0914776548743248,10.053003311157228,3.1777021884918213,-0.8953328132629395,0.9572297930717468
2823005067.0,-0.723886251449585,0.2392662912607193,10.02170181274414,3.44816255569458,-0.8923358917236328,0.9413743615150452
2823013400.0,-0.6970972418785095,0.527520477771759,10.002026557922363,3.495125770568848,-1.248130202293396,0.9807561635971068
2823021733.0,-0.5066878199577332,0.4270912110805511,9.990829467773438,3.194735527038574,-1.4005224704742432,1.0479809045791626
2823030066.0,-0.3222492039203644,0.2424478977918625,9.970311164855955,2.8282978534698486,-1.1632319688796997,1.1240805387496948
2823038399.0,-0.4204534590244293,0.1272694915533065,9.920162200927734,2.8330626487731934,-0.8088079690933228,1.144930720329285
2823046732.0,-0.6540502309799194,0.2039617747068405,9.924120903015137,3.070736885070801,-0.5610414147377014,1.0749270915985107
2823055065.0,-0.6914766430854797,0.2355359643697738,9.980825424194336,3.2318248748779297,-0.7694132328033447,0.9927566051483154
2823063398.0,-0.6429082751274109,0.0854117721319198,10.116912841796877,3.2280850410461426,-0.8661324977874756,1.137425661087036
2823071731.0,-0.6631636619567871,0.1220933124423027,10.12559700012207,3.1929681301116943,-0.9821394681930542,1.142215609550476
2823080064.0,-0.7032834887504578,0.2183754444122314,10.109620094299316,3.091510057449341,-1.0851343870162964,1.0873242616653442
2823088397.0,-0.5945793986320496,0.0668070465326309,10.04629611968994,3.0954036712646484,-1.213282346725464,1.0737231969833374
2823096730.0,-0.4559232890605926,-0.1532469689846038,10.032934188842772,3.341991186141968,-1.4416072368621826,1.031254529953003
2823105063.0,-0.3488255441188812,-0.1557107716798782,9.988170623779297,3.5909616947174072,-1.1079820394515991,1.126795768737793
2823113396.0,-0.4323196411132812,0.0959963202476501,9.988218307495115,3.871617317199707,-0.6683906316757202,1.1303561925888062
2823121729.0,-0.6296741962432861,0.2311985790729522,10.105708122253418,3.9228196144104,-0.6408553719520569,0.9871469736099244
2823130062.0,-0.6874434351921082,0.0109979314729571,10.164340019226074,3.508253574371338,-0.5469791889190674,1.0870168209075928
2823138395.0,-0.7009547352790833,-0.1217377334833145,10.098329544067385,3.7083001136779785,-0.7944381237030029,0.995061695575714
2823146728.0,-0.7709943652153015,0.1234946697950363,10.063397407531738,4.1205878257751465,-0.8955376744270325,1.0132735967636108
2823155061.0,-0.7306522727012634,0.4045792520046234,10.080297470092772,4.232304096221924,-1.0560492277145386,1.1052415370941162
2823163394.0,-0.5587503910064697,0.4470797181129455,10.084300994873049,3.974945068359375,-1.2467601299285889,1.0761821269989014
2823171727.0,-0.3664540946483612,0.2915085256099701,10.044024467468262,3.5568437576293945,-1.1565210819244385,1.2119886875152588
2823180060.0,-0.3938889503479004,0.090286873281002,9.897732734680176,3.455360174179077,-0.7996379733085632,1.2524079084396362
2823188393.0,-0.6509312987327576,0.2029092162847519,9.887492179870604,3.8099637031555176,-0.5126816630363464,1.1011816263198853
2823196726.0,-0.790308952331543,0.4243216514587402,9.983739852905272,3.884731531143189,-0.6348360776901245,1.054205060005188
2823205059.0,-0.6921898126602173,0.4359149932861328,10.008138656616213,3.914597988128662,-0.8951278328895569,1.0796912908554075
2823213392.0,-0.6848834753036499,0.4901542961597442,10.025642395019531,3.749923706054688,-0.9441278576850892,1.1211349964141846
2823221725.0,-0.7444701790809631,0.6076734066009521,10.034187316894531,3.326110601425171,-0.9841629266738892,1.1552786827087402
2823230058.0,-0.6905035972595215,0.426627516746521,9.942317962646484,3.201292991638184,-1.0599299669265747,1.0854545831680298
2823238391.0,-0.5177842378616333,0.2536837160587311,9.866972923278809,3.4041061401367188,-1.423651933670044,1.1728501319885254
2823246724.0,-0.2978145182132721,0.3884758949279785,9.77626895904541,3.50973916053772,-1.2499617338180542,1.1519490480422974
2823255057.0,-0.3762504756450653,0.574748694896698,9.818885803222656,3.493858337402344,-0.8801947236061096,1.1807135343551636
2823263390.0,-0.500830352306366,0.6283586025238037,9.942914009094238,3.345244646072388,-0.5934433937072754,1.0013371706008911
2823271723.0,-0.5478478670120239,0.4538044929504394,10.01526927947998,2.92503023147583,-0.6779831647872925,1.040232539176941
2823280056.0,-0.5863100290298462,0.1962984949350357,9.950554847717283,2.966204881668091,-0.8038899302482605,0.9794881939888
2823288389.0,-0.6197605729103088,0.2936612665653229,9.892756462097168,3.359614610671997,-0.739162802696228,0.902748167514801
2823296722.0,-0.6755351424217224,0.4754371643066406,10.002543449401855,3.547801971435547,-1.0131582021713257,0.8751103281974792
2823305055.0,-0.5010813474655151,0.4747471511363983,10.069473266601562,3.3941421508789062,-1.2889466285705566,0.924238383769989
2823313388.0,-0.2692347764968872,0.3453753292560577,10.02846622467041,3.144608497619629,-1.2477591037750244,1.0398868322372437
2823321721.0,-0.224846214056015,0.1798305660486221,9.887821197509766,2.9874908924102783,-0.8782481551170349,1.0301276445388794
2823330054.0,-0.386046439409256,0.1558746397495269,9.85902976989746,3.360844135284424,-0.5617842674255371,0.9686023592948914
2823338387.0,-0.5362554788589478,0.3179215490818023,9.99732494354248,3.603384971618652,-0.3995692431926727,0.9544888734817504
2823346720.0,-0.5830450057983398,0.4590752124786377,10.072561264038086,3.62436318397522,-0.6486676335334778,0.984073281288147
2823355053.0,-0.5501378178596497,0.514624834060669,10.072072982788086,3.442322492599488,-0.6738977432250977,0.9364821314811708
2823363386.0,-0.6611858606338501,0.5005353689193726,10.100208282470703,3.0994248390197754,-0.694132924079895,1.04206383228302
2823371719.0,-0.6917213797569275,0.3651033639907837,10.061844825744627,2.9343411922454834,-0.8166714906692505,1.160529851913452
2823380052.0,-0.5970742106437683,0.2515554130077362,10.032188415527344,3.019355058670044,-1.054218053817749,1.0707775354385376
2823388385.0,-0.4169832468032837,0.2704037725925445,9.954376220703123,3.239508867263794,-1.244966983795166,1.2134742736816406
2823396718.0,-0.3482348620891571,0.3563451170921325,9.93216323852539,3.29901123046875,-0.9433082342147828,1.1820459365844729
2823405051.0,-0.4838731288909912,0.4299470484256744,10.061656951904297,3.210641860961914,-0.546799898147583,1.186963677406311
2823413384.0,-0.5933279395103455,0.3729855418205261,10.137263298034668,2.980753898620605,-0.4453162550926208,1.063554286956787
2823421717.0,-0.6513143181800842,0.05995499715209,10.14512825012207,2.7506871223449707,-0.5084553956985474,1.1620410680770874
2823430050.0,-0.6639086604118347,-0.1121936589479446,10.010623931884766,3.1449413299560547,-0.6392159461975098,1.1700325012207031
2823438383.0,-0.7052987217903137,0.1402801871299743,10.070573806762695,3.648414373397827,-0.7046090364456177,1.093010425567627
2823446716.0,-0.7319803237915039,0.3948594033718109,10.13507843017578,3.5992348194122314,-0.9976360201835632,0.9940115213394164
2823455049.0,-0.5017514228820801,0.3438039720058441,10.084845542907717,3.276777505874634,-1.3376649618148804,1.022059202194214
2823463382.0,-0.3597338199615478,0.0789496749639511,9.990486145019531,3.021135330200196,-1.0734413862228394,1.1619001626968384
2823471715.0,-0.4839546382427215,-0.081926628947258,9.846548080444336,3.171067714691162,-0.3496983349323272,1.2069170475006104
2823480048.0,-0.7451751828193665,0.0520194806158542,9.94281005859375,3.651309013366699,-0.3791546821594238,1.0447276830673218
2823488381.0,-0.7841051816940308,0.1595680713653564,10.047242164611816,3.7619879245758057,-0.7583734393119812,0.9387104511260986
2823496714.0,-0.6684976816177368,0.2598806917667389,10.034006118774414,3.730482339859009,-0.8525570034980774,0.9813838005065918
2823505047.0,-0.7275766730308533,0.3914684355258941,10.038212776184082,3.6122214794158936,-0.7239223122596741,1.097928524017334
2823513380.0,-0.7904931306838989,0.3746922612190246,10.052153587341309,3.1608221530914307,-1.0591613054275513,0.9858149886131288
2823521713.0,-0.7127947211265564,0.0836281478404998,10.049901008605955,3.1169707775115967,-1.1996042728424072,0.9637869000434875
2823530046.0,-0.5546780824661255,0.0084054144099354,9.915868759155272,3.473878860473633,-1.2181488275527954,1.0643993616104126
2823538379.0,-0.4720858931541443,0.1737857311964035,9.825907707214355,3.6876299381256095,-1.0653854608535769,0.9995954036712646
2823546712.0,-0.5733455419540405,0.3598654568195343,9.925734519958496,3.707378387451172,-0.7414423823356628,1.0038986206054688
2823555045.0,-0.6836494207382202,0.4061107635498047,10.08632755279541,3.481614589691162,-0.5875265002250671,1.0374021530151367
2823563378.0,-0.6820419430732727,0.1745337843894958,10.055391311645508,3.229775905609131,-0.7573745250701904,0.9974440336227416
2823571711.0,-0.7091569304466248,-0.0050452891737222,9.9475736618042,3.2452213764190674,-0.8974587917327881,1.0182939767837524
2823580044.0,-0.7469121217727661,0.1497232764959335,9.928361892700195,3.7439045906066895,-0.8757378458976746,0.9986989498138428
2823588377.0,-0.7162768244743347,0.368038922548294,10.040775299072266,3.7957730293273926,-1.1437139511108398,0.8608686923980713
2823596710.0,-0.5288345217704773,0.3971296846866607,10.073651313781738,3.6133997440338135,-1.3416353464126587,1.0174742937088013
2823605043.0,-0.3487483263015747,0.2772455513477325,10.014945030212402,3.369578123092652,-1.2366167306900024,1.1175490617752075
2823613376.0,-0.3467158377170563,0.0933051630854606,9.881031036376951,3.2609996795654297,-0.9194101691246032,1.056382417678833
2823621709.0,-0.5508463978767395,0.1075829491019249,9.917495727539062,3.808580636978149,-0.5730287432670593,1.0918322801589966
2823630042.0,-0.6560338139533997,0.2652149498462677,10.04085636138916,3.925458431243897,-0.7297367453575134,1.077155351638794
2823638375.0,-0.603799045085907,0.3775602281093597,10.05747413635254,4.0240478515625,-0.9023253917694092,1.0118391513824463
2823646708.0,-0.556526243686676,0.4860818982124328,10.052607536315918,3.897090435028076,-0.912763237953186,1.0655392408370972
2823655041.0,-0.6632099747657776,0.5106436014175415,10.08873462677002,3.5710597038269043,-1.014080286026001,1.1394492387771606
2823663374.0,-0.6370419859886169,0.3236978054046631,10.03638744354248,3.3771088123321533,-1.0885921716690063,1.0196770429611206
2823671707.0,-0.5174182653427124,0.2004586011171341,9.980809211730955,3.612016677856445,-1.305724024772644,1.1069447994232178
2823680040.0,-0.3418311178684234,0.3368517756462097,9.854738235473633,3.609275579452514,-1.1994119882583618,1.1141679286956787
2823688373.0,-0.3726682662963867,0.5454033613204956,9.873834609985352,3.881017684936523,-0.8082443475723267,1.2306101322174072
2823696706.0,-0.5055714845657349,0.7557425498962402,9.978093147277832,3.6583786010742174,-0.6039964556694031,1.0932412147521973
2823705039.0,-0.549364447593689,0.6159125566482544,10.039928436279297,3.260000944137573,-0.5984894633293152,1.173439383506775
2823713372.0,-0.6166200041770935,0.3028047084808349,9.986410140991213,2.9966604709625244,-0.7647257447242737,1.1003361940383911
2823721705.0,-0.6454480290412903,0.2956669330596924,9.869011878967283,3.3017263412475586,-0.7574770450592041,1.104024887084961
2823730038.0,-0.7010406255722046,0.5980385541915894,9.96087646484375,3.620059728622437,-0.8288125991821289,1.071699619293213
2823738371.0,-0.621134877204895,0.7376362681388855,10.02329158782959,3.597083806991577,-1.297655463218689,0.968986451625824
2823746704.0,-0.3994642794132232,0.6727544069290161,9.943120956420898,3.092457771301269,-1.3815934658050537,1.200257658958435
2823755037.0,-0.2878364324569702,0.5543439984321594,9.831893920898438,2.617800235748291,-1.068254470825195,1.2518956661224363
2823763370.0,-0.4410687685012817,0.3502236604690552,9.7930269241333,2.8298861980438232,-0.6779447197914124,1.0717763900756836
2823771703.0,-0.6494296193122864,0.382411390542984,9.848968505859377,3.1935572624206543,-0.599052906036377,0.924366533756256
2823780036.0,-0.6626869440078735,0.5293404459953308,9.921605110168455,3.2786731719970703,-0.9243792295455932,0.8620982766151428
2823788369.0,-0.5428665280342102,0.6036121249198914,9.96249771118164,3.039000988006592,-1.0748116970062256,0.9230857491493224
2823796702.0,-0.6292234063148499,0.6189784407615662,9.920648574829102,2.828477621078491,-0.866542398929596,0.969857394695282
2823805035.0,-0.6790561676025391,0.5796460509300232,9.973630905151367,2.4933409690856934,-0.9196662902832032,0.9589200615882874
2823813368.0,-0.5517563223838806,0.3110500574111938,9.862330436706545,2.511552572250366,-1.2318782806396484,0.963453769683838
2823821701.0,-0.4070900976657867,0.2600313723087311,9.824549674987791,2.676021337509156,-1.232390522956848,0.9408621191978456
2823830034.0,-0.3697969019412994,0.3761485517024994,9.774432182312012,2.888619899749756,-1.0084965229034424,0.9662457704544068
2823838367.0,-0.471867173910141,0.5103948712348938,9.885257720947266,2.832294225692749,-0.7610629796981812,1.004154920578003
2823846700.0,-0.6124390959739685,0.4730322062969208,10.0060396194458,2.6095783710479736,-0.6161632537841797,0.8977532386779785
2823855033.0,-0.583001434803009,0.243721067905426,9.983911514282228,2.3927793502807617,-0.8644933104515076,0.8940648436546326
2823863366.0,-0.6180015802383423,0.114814817905426,9.904687881469728,2.55475115776062,-1.0152201652526855,1.0202534198760986
2823871699.0,-0.6802012324333191,0.2382726073265075,9.905760765075684,2.925427198410034,-1.0548837184906006,0.9984429478645324
2823880032.0,-0.642169713973999,0.4241001009941101,10.030138969421388,3.0403075218200684,-1.206059217453003,0.9305908679962158
2823888365.0,-0.4616661965847015,0.4043566882610321,10.069180488586426,2.8743271827697754,-1.4750087261199951,0.9498527646064758
2823896698.0,-0.2779434025287628,0.1923540234565735,9.958138465881348,2.4248738288879395,-1.1886413097381592,1.0454707145690918
2823905031.0,-0.3344421684741974,0.025928234681487,9.817538261413574,2.5192370414733887,-0.7985366582870483,1.0690613985061646
2823913364.0,-0.5788016319274902,0.1163142696022987,9.93475341796875,3.011183738708496,-0.5597094297409058,1.1524614095687866
2823921697.0,-0.6493034362792969,0.1978119760751724,10.09506130218506,3.1227848529815674,-0.8502516746520996,0.9440382122993468
2823930030.0,-0.551628053188324,0.2686122953891754,10.074824333190918,3.161462783813477,-1.011518955230713,1.0581496953964231
2823938363.0,-0.599388062953949,0.2968302071094513,10.025774002075195,2.960621356964112,-0.8123682737350464,1.0623503923416138
2823946696.0,-0.7066133618354797,0.3363011181354522,10.102499961853027,2.7193868160247803,-0.9824468493461608,1.14055073261261
2823955029.0,-0.6596413254737854,0.1695335209369659,10.021970748901367,2.7242534160614014,-1.0758363008499146,1.1084303855895996
2823963362.0,-0.5085198283195496,0.0656252950429916,9.985357284545898,2.9175126552581787,-1.1776272058486938,1.0742610692977903
2823971695.0,-0.3683555722236633,0.1166034191846847,9.904152870178224,2.9909229278564453,-1.1658960580825806,1.193341612815857
2823980028.0,-0.4353172481060028,0.3379857838153839,9.945730209350586,3.2725517749786377,-0.839826762676239,1.0542563199996948
2823988361.0,-0.5593056678771973,0.4833895862102508,10.02289581298828,3.086310148239136,-0.6652913093566895,1.017935276031494
2823996694.0,-0.5957794189453125,0.3142789304256439,10.049180030822754,2.675560235977173,-0.6344517469406128,1.1265907287597656
2824005027.0,-0.6667410731315613,-0.0200844686478376,10.041553497314451,2.6885855197906494,-0.6969377398490906,1.0091367959976196
2824013360.0,-0.7273894548416138,0.0330403037369251,9.947980880737305,3.1055212020874023,-0.8228445649147034,1.037581443786621
2824021693.0,-0.7519198060035706,0.3669570386409759,9.99599838256836,3.4362776279449463,-1.0335981845855713,1.016859531402588
2824030026.0,-0.6767957210540771,0.471199631690979,10.07066822052002,3.315659999847412,-1.305006742477417,1.0043340921401978
2824038359.0,-0.4436256885528564,0.346438854932785,10.050697326660156,2.885699987411499,-1.3930944204330444,1.0353018045425415
2824046692.0,-0.3410969972610473,0.1012971401214599,9.890920639038086,2.67635464668274,-1.1942253112792969,1.0098155736923218
2824055025.0,-0.537310004234314,0.1168403178453445,9.85942840576172,3.044174909591675,-0.4503622949123382,1.1412166357040403
2824063358.0,-0.7503284811973572,0.2848862111568451,9.968023300170898,3.3014700412750244,-0.6723609566688538,1.0201126337051392
2824071691.0,-0.6950371265411377,0.3347929418087005,10.04002571105957,3.409843683242798,-0.995817482471466,0.9262108206748962
2824080024.0,-0.5619953870773315,0.3220564424991607,10.078084945678713,3.2215538024902344,-1.0880800485610962,0.960482656955719
2824088357.0,-0.6738795042037964,0.4299831688404083,10.04830265045166,2.951169729232788,-0.9299120306968688,1.0195746421813965
2824096690.0,-0.7496113181114197,0.3956223130226135,10.011457443237305,2.7106263637542725,-0.9559615850448608,0.9725980162620544
2824105023.0,-0.6204817891120911,0.2321493327617645,9.944456100463867,2.850147008895874,-1.2250136137008667,0.9585615396499634
2824113356.0,-0.3946507573127746,0.1043978780508041,9.929682731628418,3.102805852890014,-1.3104114532470703,0.985251486301422
2824121689.0,-0.377071350812912,0.2880882918834686,9.836196899414062,3.403798341751098,-1.0514769554138184,0.9277218580245972
2824130022.0,-0.567763090133667,0.6119685173034668,9.939286231994627,3.215534448623657,-0.7392909526824951,1.074696660041809
2824138355.0,-0.6538004279136658,0.5830910205841064,10.029826164245604,2.9796271324157715,-0.7428768277168274,1.0473405122756958
2824146688.0,-0.5932235717773438,0.1702746152877807,10.06502628326416,2.67533016204834,-0.95941960811615,1.1287168264389038
2824155021.0,-0.5919609069824219,0.0597636625170707,9.956804275512695,3.0136172771453857,-0.8850359320640564,1.0817660093307495
2824163354.0,-0.7219347953796387,0.4380027949810028,9.937481880187988,3.3975234031677246,-1.0678445100784302,1.027796745300293
2824171687.0,-0.6590136885643005,0.6896098256111145,10.032342910766602,3.40771746635437,-1.2425848245620728,0.9901180863380432
2824180020.0,-0.4230301678180694,0.5662384033203125,10.087746620178224,3.0506808757781982,-1.446884036064148,1.0370179414749146
2824188353.0,-0.2618968784809112,0.2826122939586639,9.993782043457031,2.597360134124756,-1.212360143661499,1.0805364847183228
2824196686.0,-0.4130608439445495,0.1970777958631515,9.830686569213867,2.617748975753784,-0.6580937504768372,1.0984152555465698
2824205019.0,-0.6450761556625366,0.3612226843833923,9.885858535766602,2.9868505001068115,-0.5575578808784485,1.0390926599502563
2824213352.0,-0.6692066192626953,0.425380140542984,10.02956771850586,3.33282208442688,-0.8319119811058044,0.9553341865539552
2824221685.0,-0.5472564101219177,0.4032171964645386,10.118693351745604,3.1928274631500244,-1.0301021337509155,1.013363242149353
2824230018.0,-0.6015956401824951,0.4859340190887451,10.045133590698242,2.8961377143859863,-0.8995462656021118,1.0490182638168335
2824238351.0,-0.7226321697235107,0.5037527084350586,10.043684005737305,2.6529431343078613,-0.9325757622718812,1.1393210887908936
2824246684.0,-0.6379310488700867,0.3193031847476959,9.988391876220703,2.558119058609009,-1.1208148002624512,1.0842249393463137
2824255017.0,-0.4351466596126556,0.1097010299563407,9.957066535949709,2.911569833755493,-1.462867259979248,0.9679107069969176
2824263350.0,-0.2987177073955536,0.2020915150642395,9.870739936828612,3.188126802444458,-1.130958080291748,1.0497736930847168
2824271683.0,-0.4842827618122101,0.4934579730033874,9.964195251464844,3.227496385574341,-0.805324375629425,1.0903980731964111
2824280016.0,-0.6365885734558105,0.565456211566925,10.02759075164795,2.7905173301696777,-0.6479761004447937,1.068369746208191
2824288349.0,-0.6076201796531677,0.2388538718223571,10.046433448791504,2.427742958068848,-0.7455407977104187,0.9655030369758606
2824296682.0,-0.6451169848442078,-0.0659037753939628,10.004193305969238,2.553149938583374,-0.7740750312805176,0.9624804854393004
2824305015.0,-0.7342082858085632,0.1869786977767944,9.93993854522705,3.2196578979492188,-0.8850870132446289,1.029512882232666
2824313348.0,-0.756189227104187,0.5203006863594055,9.990540504455566,3.390760898590088,-1.0644123554229736,0.9370455145835876
2824321681.0,-0.5360466241836548,0.5275224447250366,10.048847198486328,3.059108257293701,-1.4849724769592283,0.9812814593315125
2824330014.0,-0.3200168907642364,0.2076277285814285,10.02076530456543,2.6422107219696045,-1.2752686738967896,0.9892985820770264
2824338347.0,-0.3736120164394378,0.0206196419894695,9.864367485046388,2.590444564819336,-0.7466934323310852,1.0705469846725464
2824346680.0,-0.6546406149864197,0.1291047036647796,9.863502502441406,2.9051921367645264,-0.5029996037483215,1.0776422023773191
2824355013.0,-0.7726070284843445,0.2601465582847595,9.989094734191896,3.336587190628052,-0.7060691714286804,0.9182704091072084
2824363346.0,-0.6365565657615662,0.2587562799453735,10.063294410705566,3.2635865211486816,-1.036313533782959,0.9803335666656494
2824371679.0,-0.5980249643325806,0.3092301487922668,10.083935737609863,3.1753201484680176,-0.945639193058014,0.9847649335861206
2824380012.0,-0.6978114247322083,0.4331468939781189,10.077214241027832,2.8369815349578857,-0.9315000176429749,1.0893220901489258
2824388345.0,-0.6694283485412598,0.2833462953567505,9.995643615722656,2.629916191101074,-1.1638212203979492,1.0481345653533936
2824396678.0,-0.5006463527679443,0.0037434655241668,9.945119857788086,2.8772218227386475,-1.4071052074432373,1.081484317779541
2824405011.0,-0.313196450471878,0.028585897758603,9.89599895477295,3.2137160301208496,-1.178626298904419,0.9755693674087524
2824413344.0,-0.4302484095096588,0.3460733592510223,9.908930778503418,3.5251588821411133,-0.8222809433937073,1.1090195178985596
2824421677.0,-0.5925626158714294,0.5671165585517883,10.016399383544922,3.1721694469451904,-0.6284581422805786,1.0816891193389893
2824430010.0,-0.6266158819198608,0.3598969876766205,10.083733558654783,2.7778635025024414,-0.8873667120933533,1.046597599983215
2824438343.0,-0.6310310363769531,-0.0098009724169969,10.036919593811035,2.7025065422058105,-0.8295297622680664,1.041167378425598
2824446676.0,-0.6636504530906677,0.0405262783169746,9.963747024536133,3.03323745727539,-0.9109830260276794,1.0022850036621094
2824455009.0,-0.7386364936828613,0.461004376411438,10.013999938964844,3.558483123779297,-1.049709677696228,0.9566659927368164
2824463342.0,-0.5721443295478821,0.6445067524909973,10.009538650512695,3.366338014602661,-1.353814721107483,0.9775800108909608
2824471675.0,-0.3055548667907715,0.4216445982456207,10.039838790893556,2.9569075107574463,-1.383975625038147,1.080946445465088
2824480008.0,-0.3008268773555755,0.1524200737476349,9.922800064086914,2.644772291183472,-0.972098708152771,1.2002061605453491
2824488341.0,-0.550015389919281,0.1842710822820663,9.865859985351562,2.858241081237793,-0.4891678690910339,1.1442646980285645
2824496674.0,-0.7093809247016907,0.3626979887485504,9.953668594360352,3.206697702407837,-0.6414189338684082,1.0987483263015747
2824505007.0,-0.656347930431366,0.3643523454666137,10.052308082580566,3.350624084472656,-0.8869569897651672,0.9039008617401124
2824513340.0,-0.5722427368164062,0.3925066888332367,10.111723899841309,3.272602796554565,-0.9078838229179382,0.966425120830536
2824521673.0,-0.7052924036979675,0.5375706553459167,10.065715789794922,2.955857276916504,-0.980884313583374,1.0979797840118408
2824530006.0,-0.6776443719863892,0.4869720637798309,10.021347045898438,2.749508857727051,-1.0680240392684937,1.0421663522720337
2824538339.0,-0.5465490221977234,0.2136901319026947,9.920101165771484,2.8009424209594727,-1.2666624784469604,1.1230305433273315
2824546672.0,-0.362153023481369,0.1089379116892814,9.889294624328612,3.034698009490967,-1.2497825622558594,0.948956310749054
2824555005.0,-0.3679878413677215,0.2976846992969513,9.906977653503418,3.335895538330078,-0.9860584139823914,1.0386828184127808
2824563338.0,-0.5531302094459534,0.6192911267280579,9.9678316116333,3.188690662384033,-0.6692103743553162,1.0061016082763672
2824571671.0,-0.6325331926345825,0.5810797810554504,10.079341888427734,2.806244373321533,-0.7486144304275513,0.9789504408836364
2824580004.0,-0.644572377204895,0.1573238670825958,10.068829536437988,2.579174280166626,-0.6480017304420471,1.0539745092391968
2824588337.0,-0.6823910474777222,0.0138067305088043,9.979300498962402,2.907395124435425,-0.7948225140571594,1.0365567207336426
2824596670.0,-0.7614479064941406,0.3940629661083221,9.970541954040527,3.31491756439209,-1.0004280805587769,1.037171721458435
2824605003.0,-0.6852995157241821,0.6726973056793213,10.00556182861328,3.3147380352020264,-1.3191970586776731,1.0666279792785645
2824613336.0,-0.4190228879451751,0.5192451477050781,10.0635986328125,3.039512872695923,-1.4294662475585938,0.964042901992798
2824621669.0,-0.3022270202636719,0.1888950020074844,9.96384334564209,2.554943084716797,-1.2252440452575684,1.120469093322754
2824630002.0,-0.4728747010231018,0.127199649810791,9.859529495239258,2.655325174331665,-0.5574809908866882,1.062990665435791
2824638335.0,-0.6833085417747498,0.2957030534744262,9.889697074890137,3.01725435256958,-0.6965663433074951,1.0303069353103638
2824646668.0,-0.6947240233421326,0.3521894216537475,10.016844749450684,3.2579004764556885,-0.8059135675430298,0.9241873621940612
2824655001.0,-0.5973585247993469,0.3260798156261444,10.061264991760254,3.19447922706604,-0.9667963981628418,0.9456519484519958
2824663334.0,-0.6716129779815674,0.4286267757415771,10.065312385559082,2.8866734504699707,-1.0581880807876587,0.9989808201789856
2824671667.0,-0.7283498644828796,0.4706178903579712,10.043973922729492,2.60711932182312,-1.0712257623672483,1.0187807083129885
2824680000.0,-0.6117897033691406,0.2336978018283844,9.938913345336914,2.570644855499268,-1.2526001930236816,1.1015658378601074
2824688333.0,-0.44032022356987,-0.0423837453126907,9.904607772827148,2.942614793777466,-1.3555694818496704,1.0489031076431274
2824696666.0,-0.334963858127594,0.0771082937717437,9.843809127807615,3.2009084224700928,-1.1508090496063232,1.0276687145233154
2824704999.0,-0.503078818321228,0.4910339415073395,9.90640926361084,3.4371485710144043,-0.816748321056366,0.9461129903793336
2824713332.0,-0.6212431192398071,0.5955089330673218,10.04736042022705,2.9414873123168945,-0.6688004732131958,0.9584845900535583
2824721665.0,-0.5856736302375793,0.2096857875585556,10.089030265808104,2.545901298522949,-0.7352181673049927,1.1050750017166138
2824729998.0,-0.6501695513725281,-0.0896254107356071,9.997986793518066,2.7614450454711914,-0.8920542001724243,1.0418846607208252
2824738331.0,-0.7141798734664917,0.1809417605400085,9.938603401184082,3.2171225547790527,-0.9486616253852844,0.959995985031128
2824746664.0,-0.7137328386306763,0.4832842648029327,10.029555320739746,3.480846405029297,-1.1323667764663696,0.9586125612258912
2824754997.0,-0.5345895290374756,0.4739237129688263,10.01392936706543,3.209207534790039,-1.3523675203323364,0.9598934650421144
2824763330.0,-0.3209778666496277,0.2339051216840744,10.003653526306152,2.764646530151367,-1.4300554990768433,1.0736205577850342
2824771663.0,-0.3752322793006897,0.0922100096940994,9.88245964050293,2.670796155929565,-0.8618037104606628,1.0960843563079834
2824779996.0,-0.6178024411201477,0.255986213684082,9.843265533447266,2.9493510723114014,-0.5493356585502625,1.0438312292099
2824788329.0,-0.7295060753822327,0.3389961123466491,9.97512435913086,3.2742929458618164,-0.7422363758087158,0.9444992542266846
2824796662.0,-0.5964920520782471,0.2707201540470123,10.079843521118164,3.233771800994873,-1.0759389400482178,0.942501425743103
2824804995.0,-0.5911412835121155,0.3571360111236572,10.079788208007812,3.127959728240967,-0.9188466668128968,1.0056151151657104
2824813328.0,-0.6984805464744568,0.4988012611865997,10.04193878173828,2.866053819656372,-0.8827818036079407,1.005871057510376
2824821661.0,-0.6621303558349609,0.3530723750591278,9.973514556884766,2.732706069946289,-1.271657109260559,1.0372484922409058
2824829994.0,-0.4931214451789856,0.0493449680507183,9.925895690917969,2.81941032409668,-1.2152801752090454,0.9883509278297424
2824838327.0,-0.3422816693782806,0.0788775384426117,9.891575813293455,3.1813395023345947,-1.115154266357422,1.030563235282898
2824846660.0,-0.4312887787818908,0.4128310680389404,9.946447372436523,3.3613052368164062,-0.7391884326934814,1.055665135383606
2824854993.0,-0.6016799807548523,0.63530433177948,10.014533996582031,3.1231184005737305,-0.7187995314598083,1.0323817729949951
2824863326.0,-0.6170163750648499,0.3978394567966461,10.083755493164062,2.7324883937835693,-0.8367146849632263,1.0059350728988647
2824871659.0,-0.6176243424415588,0.0268718488514423,10.048081398010254,2.812033176422119,-0.8660300374031067,0.9647858142852784
2824879992.0,-0.7151699066162109,0.1421469449996948,9.99781608581543,3.14115047454834,-0.8975356221199036,1.0326123237609863
2824888325.0,-0.7346996665000916,0.5310508012771606,10.019548416137695,3.4684998989105225,-1.185311198234558,1.0051281452178955
2824896658.0,-0.568320631980896,0.6104567050933838,10.032657623291016,3.2748310565948486,-1.440403699874878,0.9101249575614928
2824904991.0,-0.3376903533935547,0.3677671551704407,10.044074058532717,2.8604443073272705,-1.409948468208313,1.0720839500427246
2824913324.0,-0.3128382563591003,0.1951450705528259,9.921287536621094,2.7888779640197754,-0.934727430343628,1.075900316238403
2824921657.0,-0.5408574938774109,0.2946017384529114,9.88921070098877,2.912569522857666,-0.5488491058349609,1.0311522483825684
2824929990.0,-0.7154605388641357,0.3842226266860962,9.944073677062988,3.278442621231079,-0.5313032269477844,0.9161186814308168
2824938323.0,-0.6492140293121338,0.3173938393592834,10.034720420837402,3.209745407104492,-0.9851107001304626,0.9462410807609558
2824946656.0,-0.5862278938293457,0.3804644644260406,10.078577041625977,3.107340097427368,-0.9362388253211976,0.9872495532035828
2824954989.0,-0.7141152024269104,0.5550860166549683,10.0863618850708,2.905755519866944,-0.896049976348877,1.0546917915344238
2824963322.0,-0.7028350234031677,0.4756124019622803,10.003716468811035,2.6370625495910645,-1.1960183382034302,1.015092134475708
2824971655.0,-0.4993017613887787,0.1803848147392273,9.957380294799805,2.7558865547180176,-1.3715782165527344,1.0374789237976074
2824979988.0,-0.3373719155788421,0.101229541003704,9.88818359375,3.049016237258911,-1.2202750444412231,1.02262282371521
2824988321.0,-0.4225024580955505,0.2910911440849304,9.898947715759276,3.22644567489624,-0.7217194437980652,1.0196514129638672
2824996654.0,-0.5941047668457031,0.5665096640586853,9.977999687194824,3.17806077003479,-0.6112709641456604,1.0199077129364014
2825004987.0,-0.6295837163925171,0.4542771577835083,10.089970588684082,2.784318447113037,-0.7030466794967651,1.0135807991027832
2825013320.0,-0.6295425295829773,0.0926645770668983,10.038487434387209,2.806679964065552,-0.8426187038421631,1.0053844451904297
2825021653.0,-0.7045511603355408,0.0687241181731224,9.991437911987305,3.0462496280670166,-0.9078580737113952,1.047161102294922
2825029986.0,-0.753271758556366,0.418877899646759,9.990036964416504,3.225959300994873,-1.134031891822815,1.0658339262008667
2825038319.0,-0.6327636241912842,0.5627371072769165,10.001006126403809,3.2584891319274902,-1.374574899673462,1.044650912284851
2825046652.0,-0.3574927747249603,0.3571876883506775,10.058026313781738,2.771101713180542,-1.2382560968399048,0.9525933861732484
2825054985.0,-0.3201882541179657,0.1104031205177307,9.949010848999023,2.558990001678467,-1.0865685939788818,1.0348150730133057
2825063318.0,-0.4991796314716339,0.169673204421997,9.890235900878906,2.792822360992432,-0.6232070922851562,1.0369923114776611
2825071651.0,-0.6993855237960815,0.3396562337875366,9.941120147705078,3.077627420425415,-0.6530733704566956,1.0105841159820557
2825079984.0,-0.6612357497215271,0.321171760559082,10.047770500183104,3.304133892059326,-0.9230730533599854,0.8887115716934204
2825088317.0,-0.6014518737792969,0.2759852409362793,10.058281898498535,3.1833112239837646,-1.014054775238037,1.0301021337509155
2825096650.0,-0.6918683648109436,0.418314516544342,10.049606323242188,2.949760913848877,-0.8950766921043396,1.0658594369888306
2825104983.0,-0.7160218358039856,0.408079445362091,10.011292457580566,2.770230770111084,-1.1192524433135986,1.051669359207153
2825113316.0,-0.5702086687088013,0.1883082687854766,9.954980850219728,2.8226633071899414,-1.3693240880966189,0.9930126070976256
2825121649.0,-0.3574666678905487,0.0388877801597118,9.909046173095703,2.963311195373535,-1.3595908880233765,0.982024312019348
2825129982.0,-0.3583781719207763,0.1899757534265518,9.87022590637207,3.1756527423858643,-0.8982527852058411,1.1587623357772827
2825138315.0,-0.5315097570419312,0.5141420364379883,9.97630214691162,3.2275984287261963,-0.6681345701217651,0.9739044308662416
2825146648.0,-0.6099374294281006,0.5360428094863892,10.030872344970703,2.7632126808166504,-0.7673384547233582,1.0806645154953003
2825154981.0,-0.6156962513923645,0.105494737625122,10.060647010803224,2.7365736961364746,-0.747256875038147,0.9839964509010316
2825163314.0,-0.6493480205535889,-0.0208092778921127,9.966456413269045,3.0053184032440186,-0.9045539498329164,0.9302834272384644
2825171647.0,-0.7552610635757446,0.3355801701545715,9.9876127243042,3.3950130939483643,-0.9739426970481871,0.9493659734725952
2825179980.0,-0.6717773079872131,0.5587284564971924,10.02716827392578,3.265994071960449,-1.2818002700805664,0.9987502098083496
2825188313.0,-0.4233842194080353,0.4438020586967468,10.044673919677734,3.013873815536499,-1.4297484159469604,0.941758632659912
2825196646.0,-0.2951526641845703,0.1800596714019775,9.969314575195312,2.7380847930908203,-1.2117453813552856,1.0984408855438232
2825204979.0,-0.4457283616065979,0.1488069295883178,9.872310638427734,2.792130708694458,-0.7145731449127197,1.08537757396698
2825213312.0,-0.6365775465965271,0.3286139070987701,9.92735195159912,3.0601067543029785,-0.5219027996063232,1.0938047170639038
2825221645.0,-0.6747276782989502,0.3377284407615661,10.006407737731934,3.2515738010406494,-0.7443625330924988,0.951748251914978
2825229978.0,-0.5685582756996155,0.2716093361377716,10.084412574768066,3.221681833267212,-0.9316282272338868,0.9568454027175904
2825238311.0,-0.6622333526611328,0.4353211224079132,10.059563636779783,3.102088928222656,-0.8984066247940063,1.0909615755081177
2825246644.0,-0.7449531555175781,0.4888902604579925,10.019964218139648,2.7717418670654297,-1.0382089614868164,1.124157428741455
2825254977.0,-0.62508624792099,0.3237736225128174,9.955696105957031,2.74330997467041,-1.1798555850982666,1.0133503675460815
2825263310.0,-0.4339310824871063,0.1132875978946685,9.967784881591797,2.947788715362549,-1.3818496465682983,0.9881972074508668
2825271643.0,-0.3367467820644378,0.1616201549768448,9.904017448425291,3.1560070514678955,-1.042230486869812,1.0278736352920532
2825279976.0,-0.5196674466133118,0.4767327606678009,9.941767692565918,3.290379524230957,-0.766109049320221,1.073287844657898
2825288309.0,-0.6143438220024109,0.5864229202270508,10.02530574798584,3.046480178833008,-0.6643948554992676,1.059532880783081
2825296642.0,-0.6336046457290649,0.2547034621238708,10.087872505187988,2.7115228176116943,-0.7838083505630493,1.0542819499969482
2825304975.0,-0.6593902111053467,0.0096980519592762,10.012503623962402,2.8962528705596924,-0.7720515131950378,0.9760047793388368
2825313308.0,-0.7253960371017456,0.2887187898159027,9.94318962097168,3.217941999435425,-0.9915398359298706,0.9930382370948792
2825321641.0,-0.710140585899353,0.6129127740859985,9.995265007019045,3.283078908920288,-1.280032992362976,1.0353529453277588
2825329974.0,-0.498546689748764,0.563007652759552,10.03913116455078,3.0327510833740234,-1.5002896785736084,0.9958301782608032
2825338307.0,-0.2939423620700836,0.2666102647781372,10.0198335647583,2.6771233081817627,-1.2611552476882937,1.034687042236328
2825346640.0,-0.3823030889034271,0.1056339666247367,9.85357666015625,2.625523090362549,-0.7042121291160583,1.0429476499557495
2825354973.0,-0.6352928876876831,0.2709201574325561,9.876019477844238,3.108415365219116,-0.5038192272186279,0.982459545135498
2825363306.0,-0.7325968146324158,0.3865151703357696,9.994795799255373,3.238177537918091,-0.6876781582832336,0.9906817078590392
2825371639.0,-0.6132752895355225,0.3556536436080932,10.08848762512207,3.2226550579071045,-0.8997384905815125,1.027540683746338
2825379972.0,-0.599505603313446,0.3712145090103149,10.074383735656738,3.116535425186157,-1.0098284482955933,1.0421921014785769
2825388305.0,-0.7185279726982117,0.5034044981002808,10.018820762634276,2.798175573348999,-1.0637975931167605,1.042858004570007
2825396638.0,-0.6665366888046265,0.350324809551239,9.988022804260254,2.666800737380981,-1.1354405879974363,1.0128637552261353
2825404971.0,-0.4842175841331482,0.0563184171915054,9.959572792053224,2.845741510391236,-1.4255986213684082,0.9834585785865784
2825413304.0,-0.3176898062229156,0.0667080655694007,9.898107528686523,3.0734012126922607,-1.0985817909240725,1.0038987398147583
2825421637.0,-0.432922750711441,0.3937654793262481,9.880537986755373,3.3243179321289062,-0.7864210605621338,0.924238383769989
2825429970.0,-0.595451295375824,0.5820836424827576,9.981850624084473,3.142867088317871,-0.7539422512054443,1.001516580581665
2825438303.0,-0.6150325536727905,0.3660776913166046,10.062736511230469,2.732449769973755,-0.7706426978111267,1.0030277967453003
2825446636.0,-0.6252877116203308,-0.0093002282083034,10.027286529541016,2.6664421558380127,-0.9026840925216676,1.0075103044509888
2825454969.0,-0.6716132164001465,0.0987287536263465,9.97251319885254,3.17401385307312,-1.0332655906677246,0.9848162531852722
2825463302.0,-0.7394269108772278,0.4579032957553863,9.98984718322754,3.3432204723358154,-1.0866196155548096,1.024005651473999
2825471635.0,-0.584525465965271,0.5232580900192261,10.00967788696289,3.275958299636841,-1.402392029762268,1.0092008113861084
2825479968.0,-0.3351910412311554,0.3147262930870056,10.019251823425291,2.9087014198303223,-1.2842336893081665,1.05517840385437
2825488301.0,-0.3241786658763885,0.0878197699785232,9.905303001403809,2.5467464923858643,-1.0358779430389404,1.218981385231018
2825496634.0,-0.5686264634132385,0.1815102398395538,9.835128784179688,2.9831619262695312,-0.5901904106140137,1.0417566299438477
2825504967.0,-0.7298072576522827,0.3700989186763763,9.944323539733888,3.194863796234131,-0.6384220123291016,0.96038019657135
2825513300.0,-0.6308819651603699,0.331503689289093,10.04483413696289,3.30129075050354,-0.9259930849075316,0.9721114635467528
2825521633.0,-0.5777984857559204,0.2951755225658417,10.089518547058104,3.1478872299194336,-0.9947928190231324,1.094009518623352
2825529966.0,-0.7014168500900269,0.4490521252155304,10.081430435180664,2.997531652450561,-1.0632084608078003,1.0245182514190674
2825538299.0,-0.6890069842338562,0.3937607109546661,9.980806350708008,2.727813720703125,-1.2834397554397583,1.0102766752243042
2825546632.0,-0.5617826581001282,0.1873792856931686,9.925711631774902,2.815568208694458,-1.3420450687408447,1.000773787498474
2825554965.0,-0.3543107509613037,0.0942373052239418,9.91718578338623,3.1314940452575684,-1.330083250999451,0.9619938135147096
2825563298.0,-0.3823349773883819,0.2879256904125213,9.89317512512207,3.319579839706421,-0.973353922367096,0.9828182458877563
2825571631.0,-0.5752108693122864,0.5836120843887329,9.967041015625,3.263150930404663,-0.6845531463623047,1.0296921730041504
2825579964.0,-0.6255127787590027,0.5095056891441345,10.0429048538208,2.880551338195801,-0.7673128247261047,1.053231716156006
2825588297.0,-0.6378430724143982,0.077640414237976,10.044429779052734,2.6517651081085205,-0.7873432040214539,1.0876572132110596
2825596630.0,-0.6687315106391907,-0.0275496114045381,9.976927757263184,3.030983686447144,-0.8088846802711487,1.0420894622802734
2825604963.0,-0.744311511516571,0.3804944455623626,9.955803871154783,3.4130196571350098,-1.0006072521209717,0.990989089012146
2825613296.0,-0.6383267045021057,0.6573716998100281,10.00157070159912,3.40049409866333,-1.397499680519104,0.9525164365768432
2825621629.0,-0.4011937081813812,0.5189923644065857,10.063912391662598,3.005420446395874,-1.4514689445495603,0.972521185874939
2825629962.0,-0.2978818118572235,0.1553739011287689,9.97215175628662,2.54244327545166,-1.116101861000061,1.1121957302093506
2825638295.0,-0.4962053000926971,0.0920845195651054,9.84268283843994,2.812622308731079,-0.6540210843086243,1.1130666732788086
2825646628.0,-0.7071436047554016,0.290123701095581,9.910152435302734,3.1268835067749023,-0.6242830157279968,1.1421644687652588
2825654961.0,-0.6975507140159607,0.373429536819458,9.990203857421877,3.2810301780700684,-0.8172094225883484,0.9379164576530457
2825663294.0,-0.5993406772613525,0.3248853981494903,10.091872215270996,3.25223970413208,-0.9718937873840332,0.9383007884025574
2825671627.0,-0.6671113967895508,0.4434522688388824,10.06055736541748,2.9640021324157715,-1.0148488283157349,1.062990665435791
2825679960.0,-0.6892557740211487,0.4635850787162781,10.02350902557373,2.646847009658813,-1.090820550918579,1.0438055992126465
2825688293.0,-0.5922152400016785,0.2554575204849243,9.959111213684082,2.693324089050293,-1.1626558303833008,1.0942274332046509
2825696626.0,-0.4341853857040405,0.0576745569705963,9.940710067749023,2.8520681858062744,-1.3444528579711914,0.9035678505897522
2825704959.0,-0.3171775043010711,0.1503392308950424,9.907015800476074,3.2506768703460693,-1.12176251411438,1.034123420715332
2825713292.0,-0.4876516759395599,0.491556167602539,9.938318252563477,3.289892673492432,-0.6751272678375244,1.0192673206329346
2825721625.0,-0.6446201801300049,0.5858350992202759,10.046491622924805,3.0452122688293457,-0.7267783284187317,1.0538848638534546
2825729958.0,-0.6463342905044556,0.2059552520513534,10.08357048034668,2.579353809356689,-0.7812982797622681,0.9584078788757324
2825738291.0,-0.6475930213928223,-0.077053315937519,9.982834815979004,2.749790668487549,-0.900225043296814,1.0149128437042236
2825746624.0,-0.6900586485862732,0.1970585435628891,9.95549201965332,3.2044050693511963,-1.0727753639221191,1.0476607084274292
2825754957.0,-0.6836524605751038,0.5888327360153198,10.00249195098877,3.4428091049194336,-1.234618902206421,1.0273867845535278
2825763290.0,-0.4778467714786529,0.5805943608283997,10.047988891601562,2.996532678604126,-1.5077437162399292,0.9598679542541504
2825771623.0,-0.299336701631546,0.2474284172058105,10.01987361907959,2.7469730377197266,-1.279674410820007,1.02549147605896
2825779956.0,-0.3616011440753937,0.0434500351548194,9.885882377624512,2.622205972671509,-0.8033776879310608,1.074594020843506
2825788289.0,-0.6261537075042725,0.2196199744939804,9.84054183959961,3.053908586502075,-0.5451605916023254,1.0363775491714478
2825796622.0,-0.7360332012176514,0.378692477941513,9.939114570617676,3.3121767044067383,-0.7317346334457397,0.9872751235961914
2825804955.0,-0.644099771976471,0.3776076436042785,10.078433990478516,3.3240621089935303,-1.0344182252883911,0.94818776845932
2825813288.0,-0.5979633331298828,0.3912995159626007,10.099693298339844,3.0553171634674072,-0.991719126701355,1.151411056518555
2825821621.0,-0.6696147918701172,0.4781501889228821,10.042455673217772,2.761317253112793,-1.0184348821640017,1.1433169841766355
2825829954.0,-0.6562122106552124,0.3067088425159454,9.972906112670898,2.60829758644104,-1.0657954216003418,1.0229300260543823
2825838287.0,-0.5024703741073608,0.1185520067811012,9.921974182128906,2.823585271835327,-1.4236263036727903,1.0001846551895142
2825846620.0,-0.2923841476440429,0.0499210804700851,9.90507698059082,3.1424314975738525,-1.1931240558624268,1.0121978521347046
2825854953.0,-0.4077720046043396,0.3690715432167053,9.923344612121582,3.276496171951294,-0.79169762134552,0.9615072011947632
2825863286.0,-0.6047603487968445,0.6366386413574219,9.984180450439451,3.1314170360565186,-0.64080411195755,1.0121465921401978
2825871619.0,-0.6363309621810913,0.4247757792472839,10.067399978637695,2.6829628944396973,-0.6301741003990173,1.0757976770401
2825879952.0,-0.6505744457244873,-0.0249372106045484,10.081514358520508,2.6525845527648926,-0.9147483706474304,1.0014396905899048
2825888285.0,-0.6838552951812744,-0.0115671576932072,9.971162796020508,3.0836212635040283,-0.9551934003829956,1.0306400060653689
2825896618.0,-0.7366894483566284,0.4633668959140777,9.974738121032717,3.4347920417785645,-1.1100568771362305,0.97241872549057
2825904951.0,-0.6176533102989197,0.6382215023040771,10.033974647521973,3.31166410446167,-1.3467836380004885,0.9478546977043152
2825913284.0,-0.3516982793807983,0.4147831499576568,10.046290397644045,2.878835439682007,-1.465659499168396,1.0761308670043943
2825921617.0,-0.3027795553207397,0.1413063108921051,9.92116641998291,2.5804293155670166,-1.019741177558899,1.166907787322998
2825929950.0,-0.5202111601829529,0.1479686647653579,9.863994598388672,2.808907985687256,-0.5389106273651123,1.0785385370254517
2825938283.0,-0.7181175351142883,0.3350227773189544,9.95998764038086,3.1406126022338867,-0.5706980228424072,1.0942915678024292
2825946616.0,-0.6535128951072693,0.3612419962882995,10.06437873840332,3.2751898765563965,-0.802532434463501,1.0249537229537964
2825954949.0,-0.5791812539100647,0.3477404415607452,10.096949577331545,3.22793197631836,-1.0793967247009275,0.8858940005302429
2825963282.0,-0.6812136769294739,0.4688746929168701,10.063040733337402,2.8950228691101074,-0.9346505403518676,1.0058965682983398
2825971615.0,-0.7021260261535645,0.4654640853404999,9.9872407913208,2.67878794670105,-1.0327274799346924,1.1245930194854736
2825979948.0,-0.574288547039032,0.217556893825531,9.961895942687988,2.752326250076294,-1.2362068891525269,1.086940050125122
2825988281.0,-0.3828378319740295,0.0539118759334087,9.892684936523438,2.979012489318848,-1.3630231618881226,0.987787425518036
2825996614.0,-0.3417281806468963,0.2323617935180664,9.871066093444824,3.222373485565185,-0.8990981578826904,1.062043070793152
2826004947.0,-0.5418543219566345,0.5544772744178772,9.93065357208252,3.2336950302124023,-0.6842459440231323,1.0486468076705933
2826013280.0,-0.6456505656242371,0.5376642942428589,10.070683479309082,2.810880661010742,-0.7036613821983337,1.060967206954956
2826021613.0,-0.6572824716567993,0.1582701355218887,10.046502113342283,2.6428256034851074,-0.8612146377563477,1.032407283782959
2826029946.0,-0.6671781539916992,-0.0422627069056034,9.984782218933104,2.813672542572021,-0.829965353012085,1.04096257686615
2826038279.0,-0.7204656004905701,0.2891586720943451,9.9717435836792,3.2948617935180664,-1.0185630321502686,1.0176535844802856
2826046612.0,-0.6722372174263,0.5979338884353638,9.987950325012209,3.383460521697998,-1.2629480361938477,1.0926518440246582
2826054945.0,-0.4500113129615783,0.5121257305145264,10.026768684387209,2.976502656936645,-1.4821804761886597,0.987044632434845
2826063278.0,-0.3088715970516205,0.1972580552101135,9.974834442138672,2.525563716888428,-1.1736828088760376,1.04324209690094
2826071611.0,-0.4322572946548462,0.0777414664626121,9.864558219909668,2.716825246810913,-0.68352872133255,1.14357328414917
2826079944.0,-0.6928339600563049,0.2630588412284851,9.860630989074709,3.196605443954468,-0.4810481369495392,1.070521354675293
2826088277.0,-0.7280578017234802,0.3818969428539276,9.99680233001709,3.3288519382476807,-0.7369087934494019,1.017525553703308
2826096610.0,-0.6170681118965149,0.3340446650981903,10.079005241394045,3.155238151550293,-1.0063704252243042,0.9428085684776306
2826104943.0,-0.6194311380386353,0.4192553460597992,10.070886611938477,2.9409494400024414,-0.9183599352836608,0.9898877143859864
2826113276.0,-0.7024683356285095,0.5038096904754639,9.985560417175291,2.6791720390319824,-0.958984076976776,1.1414726972579956
2826121609.0,-0.6289471983909607,0.2957265377044678,9.989338874816896,2.672743082046509,-1.2284458875656128,1.1670870780944824
2826129942.0,-0.4528102278709411,0.0491214022040367,9.94088363647461,2.926375150680542,-1.418580412864685,1.0436264276504517
2826138275.0,-0.3209517002105713,0.0927233472466468,9.867833137512209,3.204033136367798,-1.229111909866333,1.007177233695984
2826146608.0,-0.4768939316272735,0.4399107992649078,9.912898063659668,3.301675081253052,-0.7949506044387817,1.0017471313476562
2826154941.0,-0.6202576160430908,0.621017575263977,10.01796531677246,3.087924003601074,-0.7232050895690918,1.0361982583999634
2826163274.0,-0.6450517177581787,0.3544610440731048,10.094761848449709,2.66457200050354,-0.8229981660842896,1.0577654838562012
2826171607.0,-0.6599072813987732,-0.0182167310267686,10.056889533996582,2.707040548324585,-0.9025046825408936,1.0615051984786987
2826179940.0,-0.7032402157783508,0.08012206107378,9.96522331237793,3.0564446449279785,-0.9785792231559752,1.0520023107528689
2826188273.0,-0.7437379956245422,0.4726810753345489,9.97152328491211,3.41560697555542,-1.212923526763916,0.9835610389709472
2826196606.0,-0.571081817150116,0.566072940826416,10.028799057006836,3.345283031463623,-1.3622673749923706,0.9037086367607116
2826204939.0,-0.3251239955425262,0.3298860788345337,10.048248291015623,2.8681793212890625,-1.3424547910690308,0.9257752895355223
2826213272.0,-0.3032063543796539,0.1581148654222488,9.918127059936523,2.6821177005767822,-0.9445888996124268,1.071110486984253
2826221605.0,-0.5596816539764404,0.1999813318252563,9.879209518432615,2.8180267810821533,-0.6254611611366272,1.020880937576294
2826229938.0,-0.7316148281097412,0.3441633880138397,9.939946174621582,3.134977340698242,-0.6595280766487122,0.9148123860359192
2826238271.0,-0.6450796127319336,0.3196998238563537,10.080501556396484,3.249934434890747,-1.0676398277282717,0.9227272868156432
2826246604.0,-0.60512375831604,0.3240245580673218,10.094083786010742,3.274011850357056,-0.8090640902519226,0.9671935439109802
2826254937.0,-0.66600102186203,0.4961687922477722,10.063420295715332,2.906600952148437,-1.0094698667526243,1.0335856676101685
2826263270.0,-0.6743866205215454,0.426702082157135,9.99541473388672,2.708782196044922,-1.042384147644043,1.0083556175231934
2826271603.0,-0.5392710566520691,0.2191586792469024,9.94744873046875,2.850147247314453,-1.271554708480835,1.0357372760772705
2826279936.0,-0.3538300395011902,0.0738178119063377,9.896639823913574,2.9980177879333496,-1.2050343751907349,0.9088955521583556
2826288269.0,-0.3771854639053345,0.2447385191917419,9.850735664367676,3.2501137256622314,-0.9244305491447448,0.962583065032959
2826296602.0,-0.5684344172477722,0.5509935617446899,9.97093391418457,3.1877174377441406,-0.7370368242263794,1.0071260929107666
2826304935.0,-0.6465221643447876,0.5384781956672668,10.053159713745115,2.9978387355804443,-0.8460253477096558,0.9610973000526428
2826313268.0,-0.6323537230491638,0.1039619967341423,10.060418128967283,2.584988594055176,-0.9138519167900084,1.0004408359527588
2826321601.0,-0.6436077356338501,0.0003082230687141,10.01700210571289,2.8581387996673584,-1.0375430583953855,1.0231350660324097
2826329934.0,-0.6902109384536743,0.3685549199581146,9.967813491821287,3.3601772785186768,-1.080754041671753,0.955718159675598
2826338267.0,-0.5926639437675476,0.6348759531974792,9.985803604125977,3.340941429138184,-1.3095148801803589,0.9376090168952942
2826346600.0,-0.3810300529003143,0.5101416110992432,10.023329734802246,3.0182275772094727,-1.478440761566162,1.0318950414657593
2826354933.0,-0.2968838810920715,0.1855472326278686,9.98635959625244,2.618696689605713,-0.9816527366638184,1.1583268642425537
2826363266.0,-0.4554097056388855,0.1150444746017456,9.889098167419434,2.7925918102264404,-0.6769457459449768,1.148542046546936
2826371599.0,-0.6808477640151978,0.3145377337932586,9.920991897583008,3.073093891143799,-0.5321998000144958,1.039041519165039
2826379932.0,-0.7135189771652222,0.3622718751430511,10.041818618774414,3.26135802268982,-0.8860604166984558,0.963530659675598
2826388265.0,-0.6031762361526489,0.3313348591327667,10.12796688079834,3.148630142211914,-0.9929487109184264,1.057970404624939
2826396598.0,-0.6254382133483887,0.3938105404376983,10.046775817871094,2.9233269691467285,-1.049402356147766,1.042832374572754
2826404931.0,-0.6807423830032349,0.4692406356334686,10.006128311157228,2.624434471130371,-0.935009241104126,1.09967041015625
2826413264.0,-0.6126087307929993,0.2587889730930328,9.957118034362791,2.5728988647460938,-1.1591593027114868,1.107636332511902
2826421597.0,-0.4454958140850067,0.0081490892916917,9.916361808776855,2.926989793777466,-1.2234766483306885,0.9587663412094116
2826429930.0,-0.3363024592399597,0.0561413131654262,9.874808311462402,3.284205675125122,-0.9344199299812316,0.972341775894165
2826438263.0,-0.5037683844566345,0.4621632993221283,9.918243408203123,3.265610456466675,-0.7921074628829956,0.9576650857925416
2826446596.0,-0.657742977142334,0.6037373542785645,9.99850845336914,2.9789609909057617,-0.6477711200714111,1.028334617614746
2826454929.0,-0.6419216394424438,0.2439649999141693,10.0675687789917,2.7282872200012207,-0.7862033247947693,0.9863401651382446
2826463262.0,-0.6537740230560303,-0.0410231463611125,10.00913143157959,2.8427319526672363,-0.8862525820732117,1.0046544075012207
2826471595.0,-0.7199632525444031,0.172096237540245,9.950303077697754,3.2238078117370605,-1.0472252368927002,1.025440335273743
2826479928.0,-0.7264989614486694,0.537665069103241,9.962093353271484,3.3606388568878174,-1.1855676174163818,0.9155808091163636
2826488261.0,-0.5329853296279907,0.5418517589569092,10.03455924987793,3.3289284706115723,-1.5060784816741943,0.962890326976776
2826496594.0,-0.3119023442268371,0.2771529853343963,10.043495178222656,2.8829591274261475,-1.3222453594207764,1.0760540962219238
2826504927.0,-0.3635735213756561,0.1089299768209457,9.918663024902344,2.731604814529419,-0.8662607073783875,1.1065863370895386
2826513260.0,-0.6391283869743347,0.2493923604488372,9.898889541625977,2.943408489227295,-0.5766403675079346,0.935380518436432
2826521593.0,-0.7267177104949951,0.3983258903026581,10.00216293334961,3.261690855026245,-0.7507659792900085,0.9641965627670288
2826529926.0,-0.6075240969657898,0.3260479867458343,10.071236610412598,3.300163745880127,-0.8129062056541443,0.9290539622306824
2826538259.0,-0.5955855250358582,0.3482785224914551,10.086868286132812,2.979780673980713,-0.827634334564209,0.9923980236053468
2826546592.0,-0.7024201154708862,0.5130141377449036,10.073956489562988,2.7989957332611084,-1.0393104553222656,1.0221617221832275
2826554925.0,-0.6738122701644897,0.3794250190258026,9.971835136413574,2.633348226547241,-1.2245268821716309,0.997034192085266
2826563258.0,-0.4916563034057617,0.1302001923322677,9.98538875579834,2.8716630935668945,-1.2535479068756104,0.9881972074508668
2826571591.0,-0.3111875057220459,0.0867361649870872,9.90806770324707,3.200242757797241,-1.2246294021606443,1.0202150344848633
2826579924.0,-0.4344949722290039,0.3740473985671997,9.901118278503418,3.3250863552093506,-0.888980507850647,1.02372407913208
2826588257.0,-0.6025112271308899,0.608439564704895,9.97863483428955,3.232952356338501,-0.6024084091186523,1.0024644136428833
2826596590.0,-0.6215370893478394,0.4192081093788147,10.057154655456545,2.722818851470948,-0.7166222929954529,0.9760305285453796
2826604923.0,-0.5943542122840881,0.0266422759741544,10.023163795471191,2.71142053604126,-0.9196664094924928,1.062119960784912
2826613256.0,-0.6805224418640137,0.0631909370422363,9.988337516784668,3.0237860679626465,-0.9295278191566468,0.9634026885032654
2826621589.0,-0.724944531917572,0.4821671843528747,9.991692543029783,3.362431287765503,-1.0927672386169434,1.0309470891952517
2826629922.0,-0.5581372380256653,0.6161435842514038,9.995498657226562,3.257387638092041,-1.4645835161209106,1.0873754024505615
2826638255.0,-0.3301706612110138,0.3924396634101867,10.053326606750488,2.822791337966919,-1.2796489000320437,1.0246206521987915
2826646588.0,-0.290214329957962,0.1269126087427139,9.906513214111328,2.4678804874420166,-0.9054248332977296,1.0732877254486084
2826654921.0,-0.5312274098396301,0.2399420738220214,9.888219833374023,2.8954076766967773,-0.6423922777175903,1.1524614095687866
2826663254.0,-0.6917006969451904,0.3874391317367553,9.92434787750244,3.050475835800171,-0.6348360180854797,0.9363795518875122
2826671587.0,-0.650608479976654,0.3223568797111511,10.000731468200684,3.166099071502685,-0.8757635354995728,1.0229045152664185
2826679920.0,-0.5801474452018738,0.3147363662719726,10.106335639953612,2.956599712371826,-0.8993541598320007,1.0226227045059204
2826688253.0,-0.7048162221908569,0.4518280029296875,10.09446620941162,2.9059863090515137,-0.8701028227806091,1.0139394998550415
2826696586.0,-0.74451744556427,0.4087814092636108,9.984145164489746,2.626457929611206,-1.014951229095459,1.0089446306228638
2826704919.0,-0.5598664283752441,0.1716252863407135,9.969161033630373,2.7969977855682373,-1.3320810794830322,1.0110963582992554
2826713252.0,-0.3876442611217499,0.0344484113156795,9.938273429870604,3.0198161602020264,-1.2882295846939087,1.0149898529052734
2826721585.0,-0.4049780964851379,0.2297766655683517,9.882561683654783,3.271885871887207,-1.0149767398834229,1.085582613945007
2826729918.0,-0.5532416701316833,0.5402043461799622,9.955327987670898,3.18784499168396,-0.832244873046875,1.103435516357422
2826738251.0,-0.620377242565155,0.4711477756500244,10.052700996398926,2.792105436325073,-0.746514081954956,0.9528238773345948
2826746584.0,-0.6150853633880615,0.0820334330201149,10.023791313171388,2.70501708984375,-0.8187974691390991,0.8806942105293274
2826754917.0,-0.686222493648529,0.0005299270851537,9.97179889678955,3.0312654972076416,-0.814647912979126,0.9874030947685242
2826763250.0,-0.7765552401542664,0.3630505502223968,10.019006729125977,3.4826135635375977,-1.0590589046478271,1.0217517614364624
2826771583.0,-0.7125305533409119,0.5744290947914124,9.988069534301758,3.3192460536956787,-1.4028019905090332,0.960149586200714
2826779916.0,-0.4326632916927337,0.4125342965126037,10.076833724975586,2.9553446769714355,-1.4643784761428833,0.9836890697479248
2826788249.0,-0.2854327857494354,0.1372834295034408,9.964045524597168,2.7325780391693115,-1.2190711498260498,1.0796912908554075
2826796582.0,-0.4904506802558899,0.1502150893211364,9.827436447143556,2.894049882888794,-0.7555814385414124,1.0883744955062866
2826804915.0,-0.6782121658325195,0.3669725954532623,9.926393508911133,3.1230413913726807,-0.6685956120491028,0.9737764596939088
2826813248.0,-0.6616109013557434,0.3333355784416199,10.032740592956545,3.338533878326416,-0.8057342767715454,0.953131377696991
2826821581.0,-0.535494327545166,0.2998948693275451,10.046141624450684,3.210308790206909,-1.0434341430664062,0.9406314492225648
2826829914.0,-0.657120406627655,0.4272859394550323,10.055030822753906,2.98874568939209,-0.9360337853431702,0.9821265935897828
2826838247.0,-0.7300236821174622,0.4488897323608398,10.040884971618652,2.7208468914031982,-1.0197924375534058,1.1004644632339478
2826846580.0,-0.6025683283805847,0.2639168798923492,9.961187362670898,2.7836270332336426,-1.2356691360473633,1.0393487215042114
2826854913.0,-0.4106777310371399,0.0767026245594024,9.91885757446289,3.010082721710205,-1.3430697917938232,0.9994162321090698
2826863246.0,-0.3457919955253601,0.1974297612905502,9.902101516723633,3.2550318241119385,-0.9125457406044006,1.0390671491622925
2826871579.0,-0.5183864831924438,0.5395456552505493,9.943294525146484,3.275650978088379,-0.8008675575256348,1.1795356273651123
2826879912.0,-0.5768619179725647,0.5831717252731323,10.012737274169922,2.9579572677612305,-0.814443051815033,1.0040267705917358
2826888245.0,-0.5941791534423828,0.1593896597623825,10.07052993774414,2.667799711227417,-0.8439250588417053,1.0135554075241089
2826896578.0,-0.6529228091239929,-0.0359549783170223,10.019762992858888,2.939925193786621,-0.7146243453025818,1.0573811531066897
2826904911.0,-0.7233015894889832,0.3095554709434509,9.97722339630127,3.311741590499878,-0.9402090311050416,1.0201125144958496
2826913244.0,-0.701178252696991,0.6138398051261902,9.984624862670898,3.393681049346924,-1.2124112844467163,0.9024662971496582
2826921577.0,-0.4540863335132599,0.5339613556861877,10.04981803894043,3.105418920516968,-1.490300178527832,0.9697805643081664
2826929910.0,-0.3066225349903106,0.2444736212491989,9.985758781433104,2.705759763717652,-1.1551637649536133,1.1474409103393557
2826938243.0,-0.4507485330104828,0.1374231725931167,9.830278396606444,2.5754857063293457,-0.7545313239097595,1.1714926958084106
2826946576.0,-0.6882098317146301,0.2952697873115539,9.90774631500244,2.945970296859741,-0.511170506477356,1.06939435005188
2826954909.0,-0.7512370347976685,0.3717302083969116,9.98662281036377,3.3542351722717285,-0.7856525778770447,0.9349963665008544
2826963242.0,-0.6200234889984131,0.3560355305671692,10.063665390014648,3.283745288848877,-0.881040096282959,0.9233932495117188
2826971575.0,-0.6423893570899963,0.4280623495578766,10.079859733581545,3.0619261264801025,-1.1071882247924805,1.0242877006530762
2826979908.0,-0.7207514643669128,0.5199866890907288,10.056578636169434,2.727762222290039,-1.0749397277832031,1.0272332429885864
2826988241.0,-0.6159824728965759,0.3159536123275757,9.97726345062256,2.5736162662506104,-1.1937386989593506,1.0332783460617063
2826996574.0,-0.4529712200164795,0.0150561425834894,9.938745498657228,2.864055871963501,-1.3431977033615112,1.061530828475952
2827004907.0,-0.3265829980373382,0.0693812891840934,9.886556625366213,3.1719391345977783,-1.1915102005004885,1.0910639762878418
2827013240.0,-0.4661967754364013,0.46711266040802,9.90937614440918,3.362457752227783,-0.8630589246749878,1.0746965408325195
2827021573.0,-0.6114299297332764,0.6009413599967957,10.03542137145996,2.986158847808838,-0.7425695061683655,1.0747734308242798
2827029906.0,-0.6039584875106812,0.2788455784320831,10.093079566955566,2.647615432739258,-0.7889055609703064,0.9309494495391846
2827038239.0,-0.6616679430007935,-0.0623745955526828,10.007490158081056,2.7767367362976074,-0.808807909488678,0.975492537021637
2827046572.0,-0.7362245917320251,0.1322066038846969,9.946046829223633,3.152472257614136,-0.952196478843689,0.9634028077125548
2827054905.0,-0.7490575909614563,0.5042795538902283,10.00505828857422,3.432512283325196,-1.0880030393600464,1.0102254152297974
2827063238.0,-0.5626475811004639,0.5327906012535095,10.069738388061523,3.263944864273072,-1.450649380683899,0.9098944664001464
2827071571.0,-0.3059647679328918,0.2874154448509216,10.017315864562988,2.73301362991333,-1.4566177129745483,0.9723165035247804
2827079904.0,-0.3472370207309723,0.1258814930915832,9.90563678741455,2.7500979900360107,-1.0019136667251587,1.070085883140564
2827088237.0,-0.5739355683326721,0.2563127875328064,9.857921600341797,2.9412569999694824,-0.5927774310112,0.9680131673812866
2827096570.0,-0.6807953715324402,0.3075948059558868,9.935672760009766,3.153189182281494,-0.6930059194564819,0.93717360496521
2827104903.0,-0.5994632244110107,0.2748378217220306,10.061840057373049,3.235231876373291,-0.9845472574234008,0.8762629628181458
2827113236.0,-0.5850685834884644,0.3692328631877899,10.068361282348633,3.1931984424591064,-0.9073970317840576,0.9920905232429504
2827121569.0,-0.7462359666824341,0.5525866746902466,10.06809139251709,2.9573171138763428,-0.9195895791053772,1.0906542539596558
2827129902.0,-0.7299959063529968,0.375400573015213,10.022116661071776,2.635756254196167,-1.1629760265350342,1.1044602394104004
2827138235.0,-0.5241665840148926,0.0602447129786014,9.934859275817873,2.8344972133636475,-1.336768627166748,1.0819709300994873
2827146568.0,-0.3562135398387909,0.0820663794875145,9.901549339294434,3.1358482837677,-1.275729775428772,1.0125049352645874
2827154901.0,-0.4530916512012481,0.3390869498252868,9.893083572387695,3.321807861328125,-0.9741990566253662,1.1192396879196167
2827163234.0,-0.5683397054672241,0.5818193554878235,10.000290870666504,3.215022087097168,-0.7347828149795532,0.9941397309303284
2827171567.0,-0.5919454097747803,0.3963939249515533,10.080065727233888,2.7628283500671387,-0.7855501770973206,0.9201146364212036
2827179900.0,-0.6053177714347839,0.0179136246442794,10.04207706451416,2.653404235839844,-0.7271497249603271,1.0886306762695312
2827188233.0,-0.7199535369873047,0.0434318035840988,9.942190170288086,3.0303947925567627,-0.9034525156021118,0.9884533286094666
2827196566.0,-0.7463238835334778,0.4675479531288147,9.978998184204102,3.4371228218078613,-1.04353666305542,1.0152201652526855
2827204899.0,-0.6324490308761597,0.5556148886680603,9.991606712341309,3.3493685722351074,-1.3766498565673828,0.9513126015663148
2827213232.0,-0.3410327434539795,0.3337099850177765,10.025619506835938,2.883957862854004,-1.395527482032776,1.028488278388977
2827221565.0,-0.3188592195510864,0.1805312782526016,9.924263954162598,2.671231508255005,-1.0448687076568604,1.0731595754623413
2827229898.0,-0.5612109899520874,0.2241562306880951,9.865843772888184,2.864286184310913,-0.6434167623519897,1.0799473524093628
2827238231.0,-0.742277979850769,0.3123411834239959,9.894880294799805,3.2494733333587646,-0.7083232998847961,0.9268767237663268
2827246564.0,-0.6517133116722107,0.2968859374523163,10.021818161010742,3.339148759841919,-0.9862377047538756,0.9458824992179872
2827254897.0,-0.5854759216308594,0.3669888973236084,10.07029628753662,3.172758340835572,-0.9616736769676208,0.9381470084190368
2827263230.0,-0.6877264976501465,0.5543270111083984,10.105661392211914,2.951451539993286,-1.060237169265747,0.9666044116020204
2827271563.0,-0.681428849697113,0.4601031541824341,9.99037265777588,2.5985898971557617,-1.1862592697143557,1.131534457206726
2827279896.0,-0.4893929064273834,0.1451171040534973,9.945055961608888,2.748074769973755,-1.3402776718139648,1.0551527738571167
2827288229.0,-0.3384633362293243,0.0382487885653972,9.882331848144531,3.1282408237457275,-1.285488843917847,1.0582520961761477
2827296562.0,-0.4074343144893646,0.2733341753482818,9.862715721130373,3.2818753719329834,-0.977938711643219,1.0401941537857056
2827304895.0,-0.5858426690101624,0.5710761547088623,9.985615730285645,3.2495758533477783,-0.741416871547699,0.9906561970710754
2827313228.0,-0.6306058168411255,0.4653655886650085,10.08216667175293,2.787034034729004,-0.7281999588012695,0.9833561182022096
2827321561.0,-0.6392661929130554,0.0891136974096298,10.089710235595703,2.528099536895752,-0.8903636932373047,0.9888888001441956
2827329894.0,-0.7037174105644226,0.0062094992026686,10.004096031188965,2.933957099914551,-0.8027886152267456,0.92513507604599
2827338227.0,-0.7505348324775696,0.3832392990589142,10.011245727539062,3.4002890586853027,-1.0492229461669922,0.9496220350265504
2827346560.0,-0.6054211258888245,0.5652575492858887,10.009963989257812,3.314199924468994,-1.3898667097091677,0.9885299801826476
2827354893.0,-0.3443718254566192,0.3956583738327026,10.027111053466797,2.843282699584961,-1.4658643007278442,1.0306143760681152
2827363226.0,-0.2802239060401916,0.2080510258674621,9.988134384155272,2.754606246948242,-0.9994802474975586,1.099388599395752
2827371559.0,-0.497188001871109,0.2256193906068802,9.878721237182615,2.929525852203369,-0.4601981937885284,1.1022318601608276
2827379892.0,-0.6877370476722717,0.3416953384876251,9.93503761291504,3.081507444381714,-0.5133861303329468,0.9596245288848876
2827388225.0,-0.6734285354614258,0.3052895665168762,10.030532836914062,3.174320936203003,-0.8095250725746155,1.0561261177062988
2827396558.0,-0.6362589597702026,0.3276979923248291,10.059647560119627,3.1288559436798096,-0.8925921320915222,0.9128403067588806
2827404891.0,-0.7645637392997742,0.4912988841533661,10.047735214233398,3.0018343925476074,-0.9267358779907228,0.9850209951400756
2827413224.0,-0.7602372765541077,0.5177894830703735,10.047850608825684,2.855551719665528,-1.028962254524231,0.9666043519973756
2827421557.0,-0.5744213461875916,0.2488560080528259,9.933523178100586,2.726660966873169,-1.2426105737686155,0.9725724458694458
2827429890.0,-0.3901112973690033,0.0792745351791381,9.876541137695312,2.832242965698242,-1.3117177486419678,0.9735459089279176
2827438223.0,-0.3833100199699402,0.2049978375434875,9.89653491973877,3.2191970348358154,-0.990848183631897,1.1003106832504272
2827446556.0,-0.5565505623817444,0.543432891368866,9.945780754089355,3.3130223751068115,-0.7560169696807861,0.991194188594818
2827454889.0,-0.5860985517501831,0.5568383932113647,10.049271583557127,2.887825727462769,-0.7957447171211243,0.9614047408103944
2827463222.0,-0.6128937005996704,0.1351703703403473,10.085129737854004,2.632016658782959,-0.7251006364822388,1.058559536933899
2827471555.0,-0.6960922479629517,-0.0098082963377237,9.97592067718506,2.820972442626953,-0.8067843914031982,0.9866092205047609
2827479888.0,-0.7893463373184204,0.3276374638080597,9.997800827026367,3.1856935024261475,-1.0418972969055176,0.9884020090103148
2827488221.0,-0.6803865432739258,0.5683627128601074,10.011343002319336,3.2298529148101807,-1.272963523864746,0.9232395887374878
2827496554.0,-0.4182770550251007,0.4512006640434265,10.02603530883789,3.09504508972168,-1.4991629123687744,1.0742610692977903
2827504887.0,-0.2716624438762665,0.2012553066015243,9.963855743408203,2.6800429821014404,-1.097377896308899,1.1285889148712158
2827513220.0,-0.449529230594635,0.1405093520879745,9.88498878479004,2.75347900390625,-0.7483838796615601,1.1365035772323608
2827521553.0,-0.6551488637924194,0.2746822237968445,9.915397644042969,3.069532871246338,-0.6495129466056824,1.0678573846817017
2827529886.0,-0.6750105023384094,0.3024505972862243,9.98623275756836,3.217660427093506,-0.9312185049057008,0.8718574047088623
2827538219.0,-0.5846759676933289,0.2421843409538269,10.074457168579102,3.219555854797364,-0.9526830911636353,1.0183708667755127
2827546552.0,-0.673462986946106,0.4049169719219208,10.076218605041504,3.178752422332764,-0.8497651219367981,1.0951111316680908
2827554885.0,-0.7371841073036194,0.525847315788269,10.051201820373535,2.660012722015381,-1.0882337093353271,1.0629394054412842
2827563218.0,-0.5844186544418335,0.2809007465839386,9.984556198120115,2.5692100524902344,-1.2696335315704346,1.0486211776733398
2827571551.0,-0.4101393520832062,0.0192304477095603,9.920499801635742,2.922635555267334,-1.3488073348999023,1.0625810623168943
2827579884.0,-0.3433029651641845,0.0919158607721328,9.879990577697754,3.131519794464112,-1.031421184539795,1.096340537071228
2827588217.0,-0.5248059034347534,0.4511959552764892,9.925422668457031,3.3728058338165283,-0.7477691769599915,1.1355302333831787
2827596550.0,-0.615325391292572,0.5524824261665344,10.023564338684082,3.163460731506348,-0.6846813559532166,1.0434727668762207
2827604883.0,-0.617300808429718,0.2338626384735107,10.099186897277832,2.654582500457764,-0.7899558544158936,0.9516457915306092
2827613216.0,-0.6769153475761414,-0.0093306209892034,10.021377563476562,2.732885360717773,-0.809883713722229,0.9840477705001832
2827621549.0,-0.7504437565803528,0.2071251422166824,9.972265243530272,3.1754226684570312,-0.9918473362922668,0.9490587711334229
2827629882.0,-0.7298164963722229,0.5212389230728149,10.007515907287598,3.440324783325196,-1.223348617553711,0.9815887808799744
2827638215.0,-0.485826700925827,0.5071285963058472,10.033629417419434,3.202061414718628,-1.3928637504577637,1.0357885360717771
2827646548.0,-0.3110828399658203,0.2336596399545669,10.031758308410645,2.848712682723999,-1.2955551147460938,1.0913712978363037
2827654881.0,-0.3818254172801971,0.1474559307098388,9.894091606140137,2.83833909034729,-0.8755842447280884,0.9849441051483154
2827663214.0,-0.6120507121086121,0.3164861798286438,9.878863334655762,3.1150496006011963,-0.6349384188652039,1.0492358207702637
2827671547.0,-0.7114846110343933,0.3654680848121643,9.998661994934082,3.2004733085632324,-0.6962078213691711,0.9247507452964784
2827679880.0,-0.6234440207481384,0.2675369381904602,10.0585298538208,3.2402265071868896,-0.907499611377716,0.8812322020530701
2827688213.0,-0.6500205993652344,0.3754831552505493,10.039103507995604,3.1011924743652344,-0.7628046870231628,0.9994674921035768
2827696546.0,-0.7253695130348206,0.538485050201416,10.061025619506836,2.9190750122070312,-1.1292930841445925,0.956000030040741
2827704879.0,-0.6478425860404968,0.3613269031047821,9.991944313049316,2.776864767074585,-1.2810319662094116,1.040219783782959
2827713212.0,-0.4644108414649963,0.1243880614638328,9.94306468963623,2.963669776916504,-1.3631256818771362,0.9243666529655457
2827721545.0,-0.3255999088287353,0.105880856513977,9.87547492980957,3.133440494537353,-1.146249771118164,1.0157581567764282
2827729878.0,-0.4418874680995941,0.3732659518718719,9.875244140625,3.238894462585449,-0.8216663002967834,0.9816656708717346
2827738211.0,-0.6152199506759644,0.5743322968482971,9.966974258422852,3.0947630405426025,-0.7604225873947144,0.9178860783576964
2827746544.0,-0.6271432638168335,0.3795538246631622,10.039073944091797,2.8595986366271973,-0.794745683670044,1.0057172775268557
2827754877.0,-0.6498908400535583,0.0283208452165126,10.02292251586914,2.6962568759918213,-0.8410306572914124,0.9840477705001832
2827763210.0,-0.7261672019958496,0.1228681653738021,9.97202968597412,3.063847064971924,-0.9061676263809204,1.0054868459701538
2827771543.0,-0.7549946904182434,0.5016326308250427,9.985917091369627,3.281568050384521,-1.0755034685134888,0.9397607445716858
2827779876.0,-0.5734383463859558,0.5698950290679932,9.995939254760742,3.226036071777344,-1.3338229656219482,1.007715344429016
2827788209.0,-0.3458728492259979,0.3327491283416748,10.047518730163574,2.9213802814483643,-1.3059800863265991,0.9380701184272766
2827796542.0,-0.3339338004589081,0.1510789543390274,9.932717323303224,2.670001983642578,-0.9566788077354432,1.105715274810791
2827804875.0,-0.5469902157783508,0.2488388568162918,9.87106227874756,2.999913692474365,-0.5992066264152527,1.0807157754898071
2827813208.0,-0.7104910016059875,0.3963638246059418,9.943323135375977,3.30800199508667,-0.728225588798523,1.005717396736145
2827821541.0,-0.6352694034576416,0.335002452135086,10.054882049560549,3.2131521701812744,-0.9122638702392578,1.014784812927246
2827829874.0,-0.5869880318641663,0.3226076066493988,10.115443229675291,3.044687509536743,-0.9854180812835692,1.093574285507202
2827838207.0,-0.7063294053077698,0.4890994429588318,10.0596923828125,2.9144389629364014,-0.9126479625701904,1.083225965499878
2827846540.0,-0.711564838886261,0.4395797550678253,10.010364532470703,2.730656862258911,-1.1058305501937866,1.0935231447219849
2827854873.0,-0.5428982377052307,0.2014388293027877,9.960016250610352,2.7412357330322266,-1.408514142036438,0.9980588555336
2827863206.0,-0.3427612483501434,0.0726330503821373,9.924132347106934,3.0003750324249268,-1.1791385412216189,1.0497483015060425
2827871539.0,-0.3832483887672424,0.2366254776716232,9.886841773986816,3.306797742843628,-0.9093950986862184,1.0612491369247437
2827879872.0,-0.5623463988304138,0.5746404528617859,9.984914779663086,3.11228346824646,-0.7805298566818237,1.0501580238342283
2827888205.0,-0.6270136833190918,0.4741002321243286,10.060537338256836,2.7613167762756348,-0.7038663029670715,1.0216749906539917
2827896538.0,-0.6386165618896484,0.0643094405531883,10.049992561340332,2.6749203205108643,-0.8290943503379822,0.9707026481628418
2827904871.0,-0.677715003490448,0.0123077221214771,9.994162559509276,2.973274707794189,-0.923303484916687,0.9819216728210448
2827913204.0,-0.7580233812332153,0.3963628709316253,9.985794067382812,3.3596653938293457,-1.0645915269851685,0.9328448176383972
2827921537.0,-0.6548989415168762,0.5733857154846191,9.978585243225098,3.414069652557373,-1.3195555210113523,0.9298221468925476
2827929870.0,-0.3859171569347381,0.3859340250492096,10.044679641723633,2.959596633911133,-1.5226253271102903,0.9865065217018129
2827938203.0,-0.2775546312332153,0.1322696954011917,9.95738697052002,2.689750909805298,-1.267123460769653,1.1300232410430908
2827946536.0,-0.4993931353092193,0.1465273648500442,9.867990493774414,2.8015058040618896,-0.6372950077056885,1.1295109987258911
2827954869.0,-0.6923223733901978,0.3489858508110046,9.923176765441896,3.109747648239136,-0.6187503337860107,1.0055124759674072
2827963202.0,-0.6746016144752502,0.3494268953800201,10.047967910766602,3.2119739055633545,-0.8242533206939697,0.9839197397232056
2827971535.0,-0.5803611874580383,0.2990219891071319,10.095099449157717,3.139178514480591,-0.8897489309310913,0.956153929233551
2827979868.0,-0.67300945520401,0.4051835536956787,10.095566749572754,2.9334959983825684,-0.8428749442100525,0.9819729924201964
2827988201.0,-0.7295715808868408,0.4347854852676391,10.008566856384276,2.6919281482696533,-1.078039050102234,0.9183984398841858
2827996534.0,-0.5764195919036865,0.264314204454422,9.954839706420898,2.7424392700195312,-1.232851505279541,1.0825345516204834
2828004867.0,-0.3946837186813354,0.0697703957557678,9.945404052734377,3.0023467540740967,-1.2218886613845823,1.061863660812378
2828013200.0,-0.3341482281684875,0.1568045914173126,9.870165824890137,3.3124074935913086,-0.9236109256744384,1.0255941152572632
2828021533.0,-0.5324795246124268,0.501204788684845,9.936956405639648,3.282707929611206,-0.6249105334281921,1.0534238815307615
2828029866.0,-0.6493154764175415,0.5431259274482727,10.026885986328123,2.9625937938690186,-0.7145987153053284,1.0108658075332642
2828038199.0,-0.6483368873596191,0.1658742576837539,10.092305183410645,2.738417863845825,-0.7492291927337646,1.0106608867645264
2828046532.0,-0.6558100581169128,-0.0148968081921339,10.02333927154541,2.867615938186645,-0.9209470748901368,1.0025413036346436
2828054865.0,-0.7246608734130859,0.2860762476921081,9.954707145690918,3.323831796646118,-0.8842418789863586,1.005999207496643
2828063198.0,-0.710222065448761,0.5967187285423279,10.023571968078612,3.3201425075531006,-1.2528561353683472,1.015091896057129
2828071531.0,-0.4640623331069946,0.5375121831893921,10.02721118927002,3.1043686866760254,-1.4078224897384644,1.005768656730652
2828079864.0,-0.3174363672733307,0.230068027973175,10.038537979125977,2.635679006576538,-1.1786006689071655,1.1035380363464355
2828088197.0,-0.4021616578102112,0.0999196991324424,9.871102333068848,2.730144739151001,-0.6900859475135803,1.140806794166565
2828096530.0,-0.6499000787734985,0.3217274844646454,9.857373237609863,3.174935817718506,-0.6068397164344788,1.0158350467681885
2828104863.0,-0.6931986808776855,0.4155086278915405,9.98303508758545,3.2402262687683105,-0.8315789103507996,0.9206268191337584
2828113196.0,-0.5914015173912048,0.3303616046905517,10.11370086669922,3.199448585510254,-0.9559617042541504,0.9933969378471376
2828121529.0,-0.6393433213233948,0.3884801566600799,10.06507396697998,2.9698426723480225,-0.8207442760467529,1.0369666814804075
2828129862.0,-0.7128823399543762,0.4633741676807403,10.028976440429688,2.6537888050079346,-1.0911792516708374,1.0661157369613647
2828138195.0,-0.6606926918029785,0.3229526877403259,9.93157958984375,2.796050310134888,-1.1895891427993774,1.0733901262283323
2828146528.0,-0.4944263696670532,0.1205496117472648,9.952139854431152,3.023043394088745,-1.478364109992981,0.9988016486167908
2828154861.0,-0.3145879805088043,0.1306865513324737,9.873567581176758,3.1761395931243896,-1.193328857421875,1.0567665100097656
2828163194.0,-0.4441616535186767,0.4344117641448974,9.896936416625977,3.3117926120758057,-0.8685147762298584,1.1219035387039185
2828171527.0,-0.5956392884254456,0.6400777101516724,10.01706314086914,3.0786774158477783,-0.6655474901199341,1.0909101963043213
2828179860.0,-0.6366966366767883,0.3434922993183136,10.048463821411133,2.711830377578736,-0.7151366472244263,1.0225971937179563
2828188193.0,-0.6618480682373047,-0.0507474727928638,10.030850410461426,2.6670310497283936,-0.8031215071678162,1.0056405067443848
2828196526.0,-0.6995131969451904,0.1014200150966644,9.940592765808104,3.193480491638184,-0.765724778175354,1.01076340675354
2828204859.0,-0.7414706945419312,0.5414049625396729,10.014167785644531,3.420524835586548,-1.2111306190490725,0.9452420473098756
2828213192.0,-0.564802885055542,0.6204087734222412,10.021013259887695,3.256875514984131,-1.37080979347229,1.003386378288269
2828221525.0,-0.340669721364975,0.355943351984024,10.069161415100098,2.721832513809204,-1.3743573427200315,1.0050897598266602
2828229858.0,-0.3058481216430664,0.0634834021329879,9.90724277496338,2.5353481769561768,-0.9682821035385132,1.1341214179992676
2828238191.0,-0.5561181306838989,0.155307725071907,9.875799179077148,2.8982250690460205,-0.4629900753498077,1.0160398483276367
2828246524.0,-0.7202512621879578,0.3920333981513977,9.97194480895996,3.2258570194244385,-0.627126157283783,0.986404299736023
2828254857.0,-0.6475487947463989,0.3527442812919616,10.076457023620604,3.331592798233032,-0.875404953956604,0.8867904543876648
2828263190.0,-0.5903129577636719,0.3465492129325866,10.09483242034912,3.254980564117432,-0.8907478451728821,0.9828438758850098
2828271523.0,-0.7148793935775757,0.5012872815132141,10.055434226989746,2.8590612411499023,-0.9483030438423156,1.0325099229812622
2828279856.0,-0.7172044515609741,0.3756472468376159,9.983389854431152,2.5302255153656006,-1.0350584983825684,1.1074315309524536
2828288189.0,-0.5664784908294678,0.1439250409603119,9.95242404937744,2.685447454452514,-1.2925070524215698,1.1030257940292358
2828296522.0,-0.3508414328098297,0.0347537621855735,9.930049896240234,3.030830383300781,-1.2573388814926147,1.0575863122940063
2828304855.0,-0.3696749210357666,0.2601602077484131,9.876819610595703,3.2393558025360107,-0.8891085982322693,1.0500811338424685
2828313188.0,-0.5525752902030945,0.5645448565483093,9.960942268371582,3.233284711837769,-0.6362959742546082,1.033534288406372
2828321521.0,-0.626122772693634,0.5171288251876831,10.051682472229004,2.8307313919067383,-0.7208742499351501,1.0091240406036377
2828329854.0,-0.6446360349655151,0.1027468666434288,10.051860809326172,2.6701812744140625,-0.8875716328620911,1.078564167022705
2828338187.0,-0.670397162437439,-0.0573049373924732,9.977718353271484,2.823559761047364,-0.8144686222076416,1.0236473083496094
2828346520.0,-0.7531586289405823,0.3111749291419983,9.97687816619873,3.3396356105804443,-0.9115979075431824,1.0008764266967771
2828354853.0,-0.6705208420753479,0.5856870412826538,10.01345157623291,3.4163241386413574,-1.2653558254241943,0.9671422243118286
2828363186.0,-0.4070496559143066,0.4814411699771881,10.051119804382324,2.9986586570739746,-1.506078600883484,1.019625902175903
2828371519.0,-0.2863324880599975,0.1553951501846313,9.978325843811035,2.6852171421051025,-1.2078777551651,1.0775141716003418
2828379852.0,-0.4615372717380523,0.1197918877005577,9.845322608947754,2.747690200805664,-0.7017147541046143,1.0582520961761477
2828388185.0,-0.6641156673431396,0.3120758533477783,9.925536155700684,3.080239772796631,-0.5967988967895508,1.0270540714263916
2828396518.0,-0.6738157868385315,0.3740178942680359,10.036157608032228,3.3658642768859863,-0.7804785966873169,0.8918877243995667
2828404851.0,-0.5607808828353882,0.3399435877799988,10.08092212677002,3.2991392612457275,-0.9390052556991576,1.066807508468628
2828413184.0,-0.6594384908676147,0.3996019065380096,10.10040283203125,2.9378502368927,-0.8497650027275085,0.992730975151062
2828421517.0,-0.7184028029441833,0.4439222514629364,10.01150608062744,2.7372398376464844,-0.9964834451675416,1.0834821462631226
2828429850.0,-0.6491482853889465,0.2512854933738708,9.965510368347168,2.722972631454468,-1.2321600914001465,0.977157473564148
2828438183.0,-0.4685468375682831,0.0704775601625442,9.926855087280272,2.96548843383789,-1.4115365743637085,1.08007550239563
2828446516.0,-0.3269022703170776,0.1538232266902923,9.89702320098877,3.292914390563965,-1.188513159751892,1.0332781076431274
2828454849.0,-0.4653196036815643,0.4910246729850769,9.96018886566162,3.3756747245788574,-0.8122915029525757,1.0173462629318235
2828463182.0,-0.642422080039978,0.6249287724494934,10.02050495147705,3.071531057357788,-0.6508962512016296,0.9946776628494264
2828471515.0,-0.618742823600769,0.256899356842041,10.09507656097412,2.67415189743042,-0.8198476433753967,1.039656162261963
2828479848.0,-0.619265079498291,-0.0883308723568916,10.024847984313965,2.848840713500977,-0.8725616931915283,0.9766963720321656
2828488181.0,-0.7066658139228821,0.165841594338417,9.956859588623049,3.302110195159912,-0.9635946750640868,0.9365076422691344
2828496514.0,-0.7187992334365845,0.5949797034263611,9.99883270263672,3.480308532714844,-1.190408706665039,0.9437564611434937
2828504847.0,-0.5233935117721558,0.6077733039855957,10.038341522216797,3.2708096504211426,-1.4517762660980225,0.9834328293800354
2828513180.0,-0.3023760020732879,0.3190882503986358,10.047869682312012,2.6997146606445312,-1.2912521362304688,1.1243879795074463
2828521513.0,-0.3508454859256744,0.0894884467124939,9.91317081451416,2.571951389312744,-0.7464116215705872,1.1008230447769165
2828529846.0,-0.6098304390907288,0.1702470630407333,9.857434272766112,2.9458932876586914,-0.5537413954734802,0.966168999671936
2828538179.0,-0.7335537075996399,0.3642762005329132,9.943666458129885,3.2492940425872803,-0.7451821565628052,0.8340764045715332
2828546512.0,-0.6396990418434143,0.3815035820007324,10.084552764892578,3.2980892658233643,-0.9762738347053528,0.9208062291145324
2828554845.0,-0.5983615517616272,0.3945869207382202,10.083541870117188,3.1368215084075928,-0.853171706199646,1.064143419265747
2828563178.0,-0.6942590475082397,0.5082104802131653,10.06320858001709,2.6124212741851807,-0.9570117592811584,1.1024876832962036
2828571511.0,-0.6797022223472595,0.3683816790580749,9.956594467163086,2.5674943923950195,-0.9746857285499572,1.021880030632019
2828579844.0,-0.564926028251648,0.1006304770708084,9.930829048156738,2.8887736797332764,-1.3546985387802124,1.0461366176605225
2828588177.0,-0.3516882359981537,0.0271505285054445,9.91037940979004,3.237357378005981,-1.281774640083313,0.986224889755249
2828596510.0,-0.3723404705524444,0.3464124202728271,9.877089500427246,3.350316286087036,-0.9279140830039978,1.1157560348510742
2828604843.0,-0.590438961982727,0.6203836798667908,9.998905181884766,3.245298147201538,-0.6566849946975708,0.979257881641388
2828613176.0,-0.6657212972640991,0.4715718924999237,10.071691513061523,2.781757116317749,-0.6739490032196045,1.0238523483276367
2828621509.0,-0.6427715420722961,0.0195261519402265,10.032997131347656,2.614163398742676,-0.8511226773262024,0.9992369413375854
2828629842.0,-0.662773609161377,-0.0339892692863941,9.945151329040527,3.079561233520508,-0.950979709625244,1.0345462560653689
2828638175.0,-0.7269609570503235,0.3969469964504242,9.951921463012695,3.5012736320495605,-0.9976999163627625,0.9986860752105712
2828646508.0,-0.6459887623786926,0.6357680559158325,10.038213729858398,3.4338953495025635,-1.317276120185852,0.9428855180740356
2828654841.0,-0.3818245530128479,0.5102155804634094,10.070873260498049,2.9378762245178223,-1.2802892923355105,1.0050514936447144
2828663174.0,-0.2831330895423889,0.1486369520425796,9.982008934020996,2.518263578414917,-1.120302677154541,1.1255152225494385
2828671507.0,-0.4991543292999267,0.0729160383343696,9.876791954040527,2.64085340499878,-0.6407528519630432,1.0771042108535769
2828679840.0,-0.7070131301879883,0.293098121881485,9.89803981781006,3.215022087097168,-0.590805172920227,1.111632227897644
2828688173.0,-0.7137582302093506,0.3885601758956909,10.045772552490234,3.2774693965911865,-0.8318862915039062,0.9170665740966796
2828696506.0,-0.5693691372871399,0.3313607275485992,10.098942756652832,3.1937367916107178,-0.9882868528366088,0.9582287073135376
2828704839.0,-0.6313470005989075,0.468153566122055,10.113393783569336,2.914259910583496,-1.020740032196045,0.9722651839256288
2828713172.0,-0.7119526863098145,0.4761634171009063,9.995661735534668,2.593262195587158,-0.9788863658905028,1.0639129877090454
2828721505.0,-0.6303613781929016,0.2112214714288711,9.940871238708496,2.6416730880737305,-1.146301031112671,0.9824084043502808
2828729838.0,-0.4230245351791382,0.0056622410193085,9.9312162399292,3.058903455734253,-1.3825669288635254,0.9051558971405028
2828738171.0,-0.349602460861206,0.1574049293994903,9.899927139282228,3.401160478591919,-1.0385419130325315,0.9679363369941713
2828746504.0,-0.5066914558410645,0.5243936777114868,9.939340591430664,3.324215650558472,-0.6401382088661194,1.0199588537216189
2828754837.0,-0.6409018635749817,0.630294919013977,10.073453903198242,2.8887481689453125,-0.7313761115074158,1.060711145401001
2828763170.0,-0.6166486740112305,0.2184899598360061,10.108795166015623,2.5816333293914795,-0.8267122507095337,1.0113781690597534
2828771503.0,-0.6287196278572083,-0.0923438072204589,10.00624656677246,2.7037618160247803,-0.8103703260421753,0.9695243239402772
2828779836.0,-0.6909503936767578,0.1416066735982895,9.932363510131836,3.210744619369507,-0.900839865207672,0.995061993598938
2828788169.0,-0.7017710208892822,0.5642098784446716,9.973748207092283,3.472060441970825,-1.1799579858779907,0.9638123512268066
2828796502.0,-0.5109281539916992,0.6357690095901489,10.02715301513672,3.195401906967163,-1.4022386074066162,0.9920138120651244
2828804835.0,-0.3336080610752105,0.3135605156421661,10.021750450134276,2.6320416927337646,-1.2425849437713623,1.0460340976715088
2828813168.0,-0.3887755274772644,0.0773829966783523,9.884546279907228,2.532043695449829,-0.708425760269165,1.1443928480148315
2828821501.0,-0.6597461700439453,0.2315391898155212,9.836336135864258,3.0419464111328125,-0.4364280700683594,1.1549458503723145
2828829834.0,-0.7544466853141785,0.3567110002040863,9.93344783782959,3.285640478134156,-0.7293269634246826,0.9668605923652648
2828838167.0,-0.6355145573616028,0.3411594331264496,10.06223201751709,3.2586686611175537,-1.0185117721557615,0.9758512377738952
2828846500.0,-0.5905861854553223,0.4088598489761352,10.074316024780272,3.1687116622924805,-1.0165138244628906,0.97989821434021
2828854833.0,-0.6596714854240417,0.5256137847900391,10.039429664611816,2.7274038791656494,-1.012031316757202,1.0671402215957642
2828863166.0,-0.66046142578125,0.3400683104991913,9.973337173461914,2.588984727859497,-1.0799602270126345,1.071930170059204
2828871499.0,-0.5356096029281616,0.0863512456417083,9.951309204101562,2.8748908042907715,-1.418042540550232,0.9975976943969728
2828879832.0,-0.3554721176624298,0.0697830021381378,9.898846626281738,3.193352222442627,-1.2258330583572388,0.9864041805267334
2828888165.0,-0.4293345808982849,0.3899871110916137,9.900436401367188,3.30718207359314,-0.948431134223938,1.026388168334961
2828896498.0,-0.6009664535522461,0.6420257091522217,9.998127937316896,3.162294864654541,-0.676190197467804,0.9824467301368712
2828904831.0,-0.6446953415870667,0.4482311010360718,10.09014892578125,2.6664419174194336,-0.6565568447113037,1.0737742185592651
2828913164.0,-0.6419216394424438,0.0123559366911649,10.042526245117188,2.645182132720948,-0.8981247544288635,0.967782735824585
2828921497.0,-0.6577954292297363,0.0106807919219136,9.942158699035645,3.096453905105591,-0.9670270681381226,1.0302814245224
2828929830.0,-0.7202126979827881,0.4629274308681488,10.01302719116211,3.479872941970825,-1.1534473896026611,0.9995698928833008
2828938163.0,-0.6163507103919983,0.6562495827674866,10.025797843933104,3.350367546081543,-1.2926350831985474,0.8937318921089172
2828946496.0,-0.3570749461650848,0.416496217250824,10.070551872253418,2.83841609954834,-1.38871431350708,0.9969061613082886
2828954829.0,-0.2817698121070862,0.1523364037275314,9.961047172546388,2.519185781478882,-0.9705106616020204,1.2292016744613647
2828963162.0,-0.5323671698570251,0.1471787244081497,9.861776351928713,2.668900966644287,-0.6092217564582825,1.075260043144226
2828971495.0,-0.7240225672721863,0.2794775366783142,9.93896198272705,3.213587760925293,-0.5466974973678589,0.9941909313201904
2828979828.0,-0.6925938725471497,0.3369994759559631,10.053361892700195,3.4235472679138184,-0.9312437772750854,0.8289790749549866
2828988161.0,-0.5822351574897766,0.3588241636753082,10.10507869720459,3.333308458328247,-1.0467641353607178,1.0017213821411133
2828996494.0,-0.6616862416267395,0.487300306558609,10.06198024749756,2.922584295272827,-0.8620086312294006,1.0548454523086548
2829004827.0,-0.6938847899436951,0.4553830921649933,10.026857376098633,2.7746877670288086,-1.0769633054733276,1.0471867322921753
2829013160.0,-0.553280234336853,0.2005340158939361,9.940757751464844,2.6798126697540283,-1.2753456830978394,1.0531805753707886
2829021493.0,-0.3718175292015075,0.0132720181718468,9.880454063415527,3.113256931304932,-1.384308695793152,1.0108146667480469
2829029826.0,-0.3413678407669067,0.1813779175281524,9.862797737121582,3.2936320304870605,-1.015668511390686,1.0375815629959106
2829038159.0,-0.5306664705276489,0.5521427392959595,9.975834846496582,3.2769572734832764,-0.7162380814552307,1.0781031847000122
2829046492.0,-0.6472415328025818,0.591158926486969,10.045187950134276,2.88083291053772,-0.7704889178276062,0.9836378693580629
2829054825.0,-0.6362352967262268,0.1700761020183563,10.054570198059082,2.5953369140625,-0.8941288590431213,1.0581239461898804
2829063158.0,-0.6632238030433655,-0.0441384688019752,9.962204933166504,2.802197217941284,-0.901147186756134,1.026029348373413
2829071491.0,-0.7439162731170654,0.2670980393886566,9.93652629852295,3.3231654167175293,-0.9829078912734984,1.022443413734436
2829079824.0,-0.682360827922821,0.5848051905632019,9.98202896118164,3.3854072093963623,-1.2529330253601074,1.0041803121566772
2829088157.0,-0.4387731254100799,0.4936071336269378,10.085086822509766,3.052525520324707,-1.4437335729599,0.975620687007904
2829096490.0,-0.2962267696857452,0.2036891430616378,9.988181114196776,2.68821382522583,-1.2274726629257202,1.1233892440795898
2829104823.0,-0.4167374670505523,0.1320845633745193,9.86789608001709,2.6915440559387207,-0.8170812726020813,1.05223286151886
2829113156.0,-0.6495718359947205,0.3014616370201111,9.899216651916504,3.019867420196533,-0.6102719902992249,1.033124566078186
2829121489.0,-0.7076494097709656,0.3550159037113189,10.010295867919922,3.3441433906555176,-0.8768137693405151,0.938659369945526
2829129822.0,-0.5834858417510986,0.309937447309494,10.096238136291504,3.2601802349090576,-0.9702287912368774,0.9215490818023682
2829138155.0,-0.6206547021865845,0.3693784177303314,10.079480171203612,2.943049907684326,-0.7971534132957458,0.9162212014198304
2829146488.0,-0.7210738062858582,0.4983859658241272,10.05710792541504,2.8141589164733887,-1.0014781951904297,1.0750807523727417
2829154821.0,-0.6540971398353577,0.2995722591876983,9.965097427368164,2.740774154663086,-1.2033438682556152,1.0039756298065186
2829163154.0,-0.4783256351947784,0.0648866891860961,9.933744430541992,2.9476091861724854,-1.3810298442840576,1.0137089490890503
2829171487.0,-0.3315441310405731,0.0953274369239807,9.890358924865724,3.19655442237854,-1.248297095298767,1.054768681526184
2829179820.0,-0.4581966400146484,0.4609813392162323,9.913093566894531,3.465733528137207,-0.7614726424217224,1.0799728631973269
2829188153.0,-0.5997750759124756,0.6079611778259277,10.010418891906738,3.138563632965088,-0.6900603175163269,1.0421663522720337
2829196486.0,-0.6024200916290283,0.2886951267719269,10.067530632019045,2.6748433113098145,-0.8359590172767639,1.0332783460617063
2829204819.0,-0.6281774640083313,-0.0269830413162708,10.013753890991213,2.775993824005127,-0.8294529914855957,1.0462902784347534
2829213152.0,-0.7118221521377563,0.1532680392265319,9.932199478149414,3.2864089012146,-0.9680004715919496,0.9874288439750672
2829221485.0,-0.7339308857917786,0.5146698355674744,9.997936248779297,3.3127150535583496,-1.0799092054367063,1.0515412092208862
2829229818.0,-0.5900675654411316,0.5613750219345093,10.018980979919434,3.183285713195801,-1.464814066886902,1.0407062768936155
2829238151.0,-0.3522718846797943,0.2928853332996368,10.011466979980469,2.7294270992279053,-1.3608458042144775,1.107303500175476
2829246484.0,-0.3432726860046386,0.1240215376019477,9.86923599243164,2.7640576362609863,-1.0107505321502686,1.118701696395874
2829254817.0,-0.5685426592826843,0.2723247706890106,9.857810020446776,3.0035762786865234,-0.5923675894737244,0.9320507049560548
2829263150.0,-0.7064898610115051,0.4013411104679107,9.958419799804688,3.193992853164673,-0.7204644680023193,0.947547435760498
2829271483.0,-0.6202351450920105,0.3142312467098236,10.02901554107666,3.3106143474578857,-0.9660792350769044,0.9661433100700378
2829279816.0,-0.5913357734680176,0.354597270488739,10.042880058288574,3.0877959728240967,-0.8719468712806702,0.9865066409111024
2829288149.0,-0.7051140069961548,0.5060235857963562,10.061481475830078,2.8604185581207275,-0.9129040837287904,0.9994674921035768
2829296482.0,-0.7268542051315308,0.4016060531139374,10.0022554397583,2.750943183898926,-1.1164348125457764,1.0242109298706057
2829304815.0,-0.5388540029525757,0.1612225472927093,9.945825576782228,2.9291417598724365,-1.3685815334320068,1.088246464729309
2829313148.0,-0.3535416722297668,0.1336255967617035,9.912030220031738,3.07632064819336,-1.1466339826583862,1.0339184999465942
2829321481.0,-0.4111241400241852,0.3439114689826965,9.883478164672852,3.3717169761657715,-0.900955080986023,1.0459444522857666
2829329814.0,-0.592910885810852,0.556029736995697,9.988286018371582,3.115126371383667,-0.616445004940033,1.0059735774993896
2829338147.0,-0.6306480169296265,0.4292176961898803,10.08159637451172,2.838006019592285,-0.7413143515586853,1.0502349138259888
2829346480.0,-0.6000404357910156,0.0393347032368183,10.026782989501951,2.743694543838501,-0.8258414268493652,0.9940884709358216
2829354813.0,-0.6573107242584229,0.0857248678803443,10.00713062286377,3.151216983795166,-0.9439230561256408,1.0284371376037598
2829363146.0,-0.6987882256507874,0.4987154603004455,9.982732772827148,3.3938088417053223,-1.126270413398743,0.9346888661384584
2829371479.0,-0.5876564979553223,0.6185687184333801,10.019771575927734,3.2898664474487305,-1.3730894327163696,0.9356622695922852
2829379812.0,-0.3643779754638672,0.3695546686649322,10.003496170043944,2.892000913619995,-1.329237937927246,1.062043070793152
2829388145.0,-0.3214950561523437,0.0915265530347824,9.899724960327148,2.6464626789093018,-0.9018387794494628,1.1030769348144531
2829396478.0,-0.5665475130081177,0.1899858862161636,9.846162796020508,3.0179972648620605,-0.5906002521514893,1.067345142364502
2829404811.0,-0.7135009169578552,0.3770522177219391,9.916563034057615,3.210308790206909,-0.6054821610450745,1.0398355722427368
2829413144.0,-0.6599010229110718,0.3762356340885162,10.04332447052002,3.3236517906188965,-0.969665229320526,0.9467789530754088
2829421477.0,-0.5756173729896545,0.3402303755283355,10.073119163513184,3.172553777694702,-0.9067824482917786,1.0183452367782593
2829429810.0,-0.684550404548645,0.4739452600479126,10.070518493652344,2.8535025119781494,-0.885932207107544,0.981742262840271
2829438143.0,-0.7193851470947266,0.4022870361804962,10.009565353393556,2.616904258728028,-1.1072649955749512,1.049492120742798
2829446476.0,-0.5724380612373352,0.1924792379140854,9.9662504196167,2.72261381149292,-1.3746520280838013,1.068062424659729
2829454809.0,-0.3574717044830322,0.0610899589955806,9.923575401306152,3.084159135818481,-1.4270331859588623,1.0024131536483765
2829463142.0,-0.3855485022068023,0.2642157077789306,9.87647533416748,3.251060962677002,-1.058367371559143,1.08824622631073
2829471475.0,-0.5611820220947266,0.5684297680854797,9.949159622192385,3.233848094940185,-0.7859855890274048,1.0544354915618896
2829479808.0,-0.6346598863601685,0.4848589599132538,10.053279876708984,2.861135959625244,-0.7465141415596008,1.019984483718872
2829488141.0,-0.6037971377372742,0.0729796290397644,10.053516387939451,2.6275081634521484,-0.8546830415725708,1.02262282371521
2829496474.0,-0.6563073396682739,-0.0209501534700393,9.961341857910156,3.047914505004883,-0.8935397863388062,1.0288469791412354
2829504807.0,-0.7708718180656433,0.3698968589305877,9.98928928375244,3.403286457061768,-1.0214059352874756,1.030691146850586
2829513140.0,-0.6749717593193054,0.5716227889060974,9.964975357055664,3.303595781326294,-1.1884620189666748,0.9851490259170532
2829521473.0,-0.4165244698524475,0.4040783941745758,10.028298377990724,2.9105966091156006,-1.5225229263305664,1.0601476430892944
2829529806.0,-0.2734221220016479,0.1793385595083236,9.962448120117188,2.588139295578003,-1.2299572229385376,1.0415773391723633
2829538139.0,-0.4751712679862976,0.1465263068675995,9.817919731140137,2.831346273422241,-0.6363472938537598,1.0561774969100952
2829546472.0,-0.6769028306007385,0.332082986831665,9.89865779876709,3.0812387466430664,-0.5798678398132324,1.0396050214767456
2829554805.0,-0.6430953741073608,0.3291732370853424,10.006009101867676,3.22793197631836,-0.9007630348205566,1.0160143375396729
2829563138.0,-0.5645802617073059,0.2891815900802612,10.05390739440918,3.2263944149017334,-0.8963317275047302,1.0161678791046145
2829571471.0,-0.6759722232818604,0.4358124434947967,10.104087829589844,2.9860050678253174,-0.8780688643455505,0.9850210547447203
2829579804.0,-0.7568531632423401,0.4801746308803558,10.038229942321776,2.727173089981079,-0.9843167066574096,1.0332527160644531
2829588137.0,-0.5851025581359863,0.2601766884326935,9.963296890258787,2.7861886024475098,-1.2718621492385864,1.1077643632888794
2829596470.0,-0.3979731202125549,0.0851201564073562,9.929171562194824,2.9458675384521484,-1.422576069831848,0.9363796710968018
2829604803.0,-0.3520027697086334,0.1826761662960052,9.86090087890625,3.331976890563965,-1.0067548751831057,1.0752089023590088
2829613136.0,-0.5104506015777588,0.5086825489997864,9.929821014404297,3.2777256965637207,-0.7184664607048035,1.102513551712036
2829621469.0,-0.6238459348678589,0.5441475510597229,10.05166244506836,2.9527063369750977,-0.7384199500083923,0.948597490787506
2829629802.0,-0.6063032746315002,0.1683052480220794,10.060514450073242,2.703582525253296,-0.703097939491272,0.9038239121437072
2829638135.0,-0.6758769750595093,0.0198598448187112,9.996895790100098,2.8303472995758057,-0.9006093144416809,1.0407320261001587
2829646468.0,-0.7604201436042786,0.3277186155319214,9.982985496520996,3.392861604690552,-0.9683333039283752,0.931640923023224
2829654801.0,-0.7134950757026672,0.5965631604194641,9.971114158630373,3.4672963619232178,-1.2573899030685425,0.960149586200714
2829663134.0,-0.478807657957077,0.4867761731147766,10.044135093688965,3.1465296745300293,-1.4404807090759275,1.0931644439697266
2829671467.0,-0.288670927286148,0.2252238392829895,9.998281478881836,2.654454469680786,-1.2007826566696167,1.0415260791778564
2829679800.0,-0.4100114703178406,0.1527854800224304,9.893488883972168,2.8682308197021484,-0.77681565284729,1.2141659259796145
2829688133.0,-0.6466039419174194,0.3121895790100097,9.892135620117188,3.113666296005249,-0.6503326296806335,1.068318486213684
2829696466.0,-0.6873249411582947,0.3730891048908233,9.977537155151367,3.186103582382202,-0.6958491206169128,0.8983425498008728
2829704799.0,-0.5968436598777771,0.3058750927448272,10.06369972229004,3.1632559299468994,-0.9146972298622132,0.9585615396499634
2829713132.0,-0.6682252883911133,0.420531153678894,10.062478065490724,2.9989659786224365,-0.896049976348877,1.0043084621429443
2829721465.0,-0.7526953220367432,0.4958333373069763,10.045560836791992,2.8060905933380127,-1.1328022480010986,0.9594324231147766
2829729798.0,-0.6359413862228394,0.3215248882770538,9.940051078796388,2.619324445724488,-1.1331737041473389,1.02401864528656
2829738131.0,-0.4491797089576721,0.0515498109161853,9.952486038208008,2.8724827766418457,-1.3533921241760254,1.0067931413650513
2829746464.0,-0.318421334028244,0.1167333498597145,9.884384155273438,3.183234691619873,-1.1885645389556885,1.0099693536758425
2829754797.0,-0.458440214395523,0.47882741689682,9.91588020324707,3.2420451641082764,-0.8183364272117615,1.094470739364624
2829763130.0,-0.5972382426261902,0.5869863629341125,10.011725425720217,2.961261749267578,-0.7448235750198364,0.988863170146942
2829771463.0,-0.6170110106468201,0.261750727891922,10.090277671813965,2.596694231033325,-0.7658272385597229,0.9886581301689148
2829779796.0,-0.651665985584259,-0.0009408856276422,10.0079927444458,2.8076276779174805,-0.7565292716026306,1.0299228429794312
2829788129.0,-0.7223014235496521,0.1923642009496688,9.966086387634276,3.2157905101776123,-0.8885450959205627,0.9580492973327636
2829796462.0,-0.7383111119270325,0.5324096083641052,10.01220989227295,3.294631242752075,-1.1892818212509155,0.9720858931541444
2829804795.0,-0.5138533711433411,0.5178362131118774,10.012971878051758,3.001706838607788,-1.533460259437561,1.0600708723068235
2829813128.0,-0.2903361916542053,0.265854001045227,9.996277809143066,2.7326033115386963,-1.2869231700897217,0.9982123374938964
2829821461.0,-0.3495243191719055,0.118317537009716,9.882896423339844,2.6652379035949707,-0.8471011519432068,1.0971856117248535
2829829794.0,-0.5919725894927979,0.2727828919887543,9.883071899414062,2.900094985961914,-0.6591695547103882,1.0350713729858398
2829838127.0,-0.6972696781158447,0.3741213977336883,9.978279113769531,3.2321577072143555,-0.7004597187042236,0.8961909413337708
2829846460.0,-0.5934709310531616,0.2981491982936859,10.060738563537598,3.245579957962036,-0.8895952701568604,0.8948076963424683
2829854793.0,-0.6151398420333862,0.3372737169265747,10.062384605407717,3.172579288482666,-0.9121614098548888,1.0001592636108398
2829863126.0,-0.7279806733131409,0.5173537135124207,10.04034423828125,2.724919080734253,-1.0114164352416992,0.9723418951034546
2829871459.0,-0.6994781494140625,0.3449192941188812,9.970707893371582,2.692286729812622,-1.215971827507019,1.0036425590515137
2829879792.0,-0.4983731806278229,0.110848993062973,9.936176300048828,2.9086759090423584,-1.408206820487976,1.0040781497955322
2829888125.0,-0.3211907744407654,0.1106351166963577,9.864968299865724,3.1221961975097656,-1.2241685390472412,0.9980074167251588
2829896458.0,-0.4347154796123504,0.3747051060199737,9.917160987854004,3.231440782546997,-0.8692063093185425,0.9708052277565002
2829904791.0,-0.6040878891944885,0.5566562414169312,9.98200798034668,3.168609380722046,-0.738753080368042,0.9535412788391112
2829913124.0,-0.6137498617172241,0.3761238157749176,10.066429138183594,2.7394936084747314,-0.72113037109375,1.0566896200180054
2829921457.0,-0.6199200749397278,-0.0124723184853792,10.026483535766602,2.7701284885406494,-0.7324262857437134,1.0424739122390747
2829929790.0,-0.7114332318305969,0.0645157694816589,9.956774711608888,3.032674551010132,-0.8524802327156067,0.9534130692481996
2829938123.0,-0.7239686846733093,0.5193713307380676,9.955092430114746,3.41670823097229,-1.000171780586243,0.9899645447731018
2829946456.0,-0.5805387496948242,0.6074590682983398,10.029691696166992,3.289764165878296,-1.4616378545761108,0.943833351135254
2829954789.0,-0.313057392835617,0.3976227939128876,10.047813415527344,2.663214445114136,-1.3853074312210083,1.024031639099121
2829963122.0,-0.3025332689285278,0.158539280295372,9.912504196166992,2.586294889450073,-0.9194357991218568,1.1097368001937866
2829971455.0,-0.561149001121521,0.2132935225963592,9.838156700134276,2.805886030197144,-0.6396771669387817,1.0336369276046753
2829979788.0,-0.7206905484199524,0.3320182859897613,9.933749198913574,3.139408588409424,-0.5651140809059143,0.97047221660614
2829988121.0,-0.6629721522331238,0.3216056227684021,10.046091079711914,3.282669305801392,-0.8064002394676208,0.912353515625
2829996454.0,-0.6239632368087769,0.3505787551403045,10.070265769958496,3.205442428588867,-0.7874456644058228,0.9674752950668336
2830004787.0,-0.7190986275672913,0.5017348527908325,10.079826354980469,2.7425928115844727,-1.0452016592025757,1.036275029182434
2830013120.0,-0.6829904913902283,0.444005936384201,10.005420684814451,2.651329517364502,-1.2666367292404177,1.0436007976531982
2830021453.0,-0.5184485912322998,0.1594424992799759,9.975669860839844,2.746640205383301,-1.353392243385315,1.047007441520691
2830029786.0,-0.3173102736473083,0.0545301474630832,9.8875150680542,2.955473184585572,-1.2276264429092407,1.0306144952774048
2830038119.0,-0.3596219420433044,0.2432634383440017,9.87420654296875,3.313201665878296,-0.7309150695800781,1.01311993598938
2830046452.0,-0.553118109703064,0.5603224635124207,9.984516143798828,3.2525980472564697,-0.7039945125579834,1.0593023300170898
2830054785.0,-0.6121001243591309,0.4913215935230255,10.07548999786377,2.8919754028320312,-0.6527147889137268,1.094598650932312
2830063118.0,-0.6409940719604492,0.0932761579751968,10.06286907196045,2.701635837554932,-0.7357560992240906,1.0964431762695312
2830071451.0,-0.7007347941398621,-0.0102371899411082,9.99305248260498,2.9267849922180176,-0.881014347076416,0.9646064043045044
2830079784.0,-0.7742025852203369,0.373257577419281,9.977127075195312,3.285409927368164,-1.0511441230773926,1.120853304862976
2830088117.0,-0.6183920502662659,0.5801439881324768,10.005146980285645,3.4186549186706543,-1.4159163236618042,0.9712661504745485
2830096450.0,-0.3827190995216369,0.4414981007575989,10.065193176269531,3.010671377182007,-1.4693989753723145,0.9823314547538756
2830104783.0,-0.2665723264217376,0.1902647316455841,9.959863662719728,2.576715469360352,-1.0312930345535278,1.0596352815628052
2830113116.0,-0.4517075419425964,0.1268008351325988,9.858871459960938,2.782909631729126,-0.6102975606918335,1.1244137287139893
2830121449.0,-0.669531524181366,0.2922715842723846,9.910932540893556,3.036285638809204,-0.5699039101600647,1.0077664852142334
2830129782.0,-0.7002752423286438,0.3337424695491791,10.02448844909668,3.2948358058929443,-0.8023786544799805,0.9404521584510804
2830138115.0,-0.6120168566703796,0.3468961417675018,10.04919147491455,3.2462716102600098,-0.9355984926223756,0.97964209318161
2830146448.0,-0.6858781576156616,0.4365509748458862,10.083029747009276,2.9518611431121826,-0.9621859192848206,1.00310480594635
2830154781.0,-0.7243677377700806,0.5014089941978455,10.038946151733398,2.692824602127075,-1.0971473455429075,1.0185245275497437
2830163114.0,-0.57752925157547,0.299861341714859,9.961158752441406,2.6477179527282715,-1.2613346576690674,1.060173273086548
2830171447.0,-0.4070082008838653,0.0365860536694526,9.909975051879885,2.9130301475524902,-1.3055702447891235,1.0181658267974854
2830179780.0,-0.3529224991798401,0.1156000718474388,9.863489151000977,3.182568550109864,-0.9640557169914246,1.047263503074646
2830188113.0,-0.5155270099639893,0.4686187505722046,9.905284881591797,3.4197051525115967,-0.7871638536453247,1.0234167575836182
2830196446.0,-0.6209174990653992,0.6323018074035645,10.053943634033203,3.0162558555603027,-0.7237430810928345,0.9305652379989624
2830204779.0,-0.6398099064826965,0.2407139539718628,10.090200424194336,2.594414710998535,-0.7291219830513,1.0014909505844116
2830213112.0,-0.6884167790412903,-0.0237869620323181,10.019113540649414,2.6764824390411377,-0.9264028072357178,1.1242855787277222
2830221445.0,-0.75351881980896,0.2107148915529251,9.977418899536133,3.1534969806671143,-0.9536820650100708,1.096622347831726
2830229778.0,-0.7293161153793335,0.5537765026092529,10.012863159179688,3.3810532093048096,-1.2028058767318726,0.9736226797103882
2830238111.0,-0.5045879483222961,0.5421782732009888,10.007608413696287,3.1765496730804443,-1.3969875574111938,1.019395351409912
2830246444.0,-0.295140653848648,0.297976553440094,10.029867172241213,2.697998523712158,-1.2102854251861572,1.0818684101104736
2830254777.0,-0.3702568411827087,0.1011564657092094,9.861040115356444,2.635986566543579,-0.8138794302940369,1.0729289054870603
2830263110.0,-0.6088954210281372,0.2605668306350708,9.873334884643556,3.04642915725708,-0.5546379089355469,1.0469306707382202
2830271443.0,-0.7083267569541931,0.4039610922336578,9.997395515441896,3.2947847843170166,-0.7176212668418884,0.9315641522407532
2830279776.0,-0.6107632517814636,0.3162252604961395,10.077245712280272,3.2493197917938232,-0.950429141521454,0.953182578086853
2830288109.0,-0.6334338784217834,0.3260115385055542,10.104148864746094,3.100654602050781,-0.9405675530433656,0.9926030039787292
2830296442.0,-0.7313573360443115,0.4889961183071136,10.06515407562256,2.773970365524292,-0.9515560269355774,1.1098392009735107
2830304775.0,-0.6749367117881775,0.3638598620891571,9.996368408203123,2.731553316116333,-1.1947888135910034,1.033687949180603
2830313108.0,-0.5027066469192505,0.0997916832566261,9.97530746459961,2.819230318069458,-1.3508306741714478,0.9635817408561708
2830321441.0,-0.3035943508148193,0.0554270930588245,9.882766723632812,3.1435964107513428,-1.1810210943222046,1.018870234489441
2830329774.0,-0.3932629823684692,0.367973655462265,9.914779663085938,3.293017625808716,-0.887110710144043,1.008714199066162
2830338107.0,-0.5575119256973267,0.6012612581253052,9.962998390197754,3.2500112056732178,-0.7145731449127197,0.9911428689956664
2830346440.0,-0.6052359938621521,0.4083831310272217,10.09458065032959,2.812366008758545,-0.7178516387939453,1.0541025400161743
2830354773.0,-0.6253926753997803,0.0018501979066058,10.06586742401123,2.736419916152954,-0.790391206741333,1.0363006591796875
2830363106.0,-0.6982067227363586,0.0406861156225204,9.959549903869627,3.134490966796875,-0.9763764142990112,1.0303326845169067
2830371439.0,-0.7748709321022034,0.4419292509555816,9.945850372314451,3.367528915405273,-1.038644313812256,1.0501322746276855
2830379772.0,-0.6115778088569641,0.6011934876441956,9.989648818969728,3.352928876876831,-1.349472999572754,1.0093032121658323
2830388105.0,-0.3820050656795501,0.4105091989040375,10.058389663696287,2.915437936782837,-1.2339017391204834,1.015527606010437
2830396438.0,-0.2877968847751617,0.1333927363157272,9.922542572021484,2.6208229064941406,-0.9008911848068236,1.1167550086975098
2830404771.0,-0.5207968950271606,0.1354199796915054,9.88727855682373,2.870792388916016,-0.4965447187423706,1.0552295446395874
2830413104.0,-0.6944051384925842,0.3433041572570801,9.940755844116213,3.116074562072754,-0.5472865700721741,1.0219824314117432
2830421437.0,-0.6724659204483032,0.3125779330730438,10.064610481262209,3.3752903938293457,-0.7841157913208008,0.8812834024429321
2830429770.0,-0.5880275964736938,0.3124264180660248,10.119540214538574,3.15705680847168,-0.9246097803115844,0.973392128944397
2830438103.0,-0.691264271736145,0.4911762773990631,10.038236618041992,2.938516139984131,-0.8867263793945312,1.1406530141830444
2830446436.0,-0.7116715312004089,0.4694437086582184,10.002276420593262,2.694002866744995,-1.0436393022537231,1.026926040649414
2830454769.0,-0.5652307271957397,0.2032242119312286,9.94998836517334,2.868870973587036,-1.2917386293411257,1.0469304323196411
2830463102.0,-0.3840030133724212,0.0511459074914455,9.899617195129396,2.995866775512696,-1.2668417692184448,0.9971622824668884
2830471435.0,-0.3629329204559326,0.2126056402921676,9.875225067138672,3.3126375675201416,-1.0891298055648804,1.09009051322937
2830479768.0,-0.5711767077445984,0.5327862501144409,9.968714714050291,3.227086305618286,-0.6082996726036072,1.0490310192108154
