SampleTimeFine,Acc_X,Acc_Y,Acc_Z,Gyr_X,Gyr_Y,Gyr_Z
2822738411.0,0.0,0.0,0.0,0.0,0.0,0.0
2822746744.0,-0.2661429941654205,0.0704841092228889,9.447046279907228,1.2181488275527954,-0.6933004856109619,-0.0074793566018342
2822755077.0,-0.4937893748283386,0.2475098222494125,9.495420455932615,1.497856378555298,-0.4621575474739074,0.0089265601709485
2822763410.0,-0.5659251809120178,0.316589742898941,9.553131103515623,1.7254644632339478,-0.7730375528335571,-0.0420073494315147
2822771743.0,-0.5096404552459717,0.21098493039608,9.582697868347168,1.7513220310211182,-0.8245350122451782,-0.1222183108329773
2822780076.0,-0.5138943195343018,0.3254528641700744,9.513344764709473,1.5637362003326416,-0.9718552231788636,-0.1022520214319229
2822788409.0,-0.5702913999557495,0.5151665806770325,9.5198974609375,1.3824642896652222,-1.0553832054138184,0.0642533078789711
2822796742.0,-0.4699907898902893,0.3708321154117584,9.556940078735352,1.2425081729888916,-1.285399317741394,0.1063631251454353
2822805075.0,-0.2740407288074493,0.0662111788988113,9.487371444702148,1.2983856201171875,-1.3433514833450315,-0.0685821175575256
2822813408.0,-0.1873128116130828,0.0312131401151418,9.424890518188477,1.559458613395691,-1.1392699480056765,0.0587462447583675
2822821741.0,-0.3333600163459778,0.3171211779117584,9.449872970581056,1.8506542444229128,-0.6332992315292358,0.0317872688174247
2822830074.0,-0.4879001677036285,0.516015350818634,9.496417999267578,1.6974555253982544,-0.5794067978858948,0.0434161312878131
2822838407.0,-0.5244749784469604,0.3279149234294891,9.536951065063477,1.4846137762069702,-0.7575921416282654,-0.0725907385349273
2822846740.0,-0.5203908085823059,0.0229391679167747,9.602656364440918,1.3524956703186035,-0.8349215984344482,0.0040854704566299
2822855073.0,-0.5710848569869995,0.1355092972517013,9.609098434448242,1.540248155593872,-0.9462411999702454,-0.0963863730430603
2822863406.0,-0.5919745564460754,0.5274271368980408,9.554162979125977,1.7943925857543943,-1.1247466802597046,-0.1035839766263961
2822871739.0,-0.3770308196544647,0.5861132144927979,9.447884559631348,1.761042594909668,-1.383424997329712,-0.0986148044466972
2822880072.0,-0.1634608060121536,0.3455041348934173,9.459239959716797,1.362741470336914,-1.275179147720337,0.0034195005428045
2822888405.0,-0.2221816033124923,0.1701732873916626,9.415895462036133,1.1766026020050049,-0.9023126363754272,0.1559266448020935
2822896738.0,-0.4358441829681396,0.2858633697032928,9.443325996398926,1.430606245994568,-0.5822243094444275,0.0706440582871437
2822905071.0,-0.5658747553825378,0.4052373766899109,9.530450820922852,1.5647350549697876,-0.6251153349876404,-0.1464878022670745
2822913404.0,-0.5183435082435608,0.3153083324432373,9.55929470062256,1.5531830787658691,-0.8367658257484436,-0.0977951437234878
2822921737.0,-0.5241997241973877,0.3280568718910217,9.547985076904297,1.525417447090149,-0.8324114680290222,-0.0374736301600933
2822930070.0,-0.6052806973457336,0.4705497622489929,9.57099723815918,1.15910804271698,-0.9667580127716064,0.0220666620880365
2822938403.0,-0.5396319031715393,0.3136378526687622,9.569552421569824,1.093714952468872,-1.2595800161361694,0.0609490722417831
2822946736.0,-0.3395175635814667,0.0486539453268051,9.55610179901123,1.2971175909042358,-1.3476673364639282,0.010822013951838
2822955069.0,-0.1846865564584732,-0.0520205833017826,9.539813041687012,1.686249017715454,-1.174540638923645,0.026113711297512
2822963402.0,-0.2671427428722381,0.1147945001721382,9.51238250732422,1.809402346611023,-0.789020836353302,0.1045957207679748
2822971735.0,-0.4270906150341034,0.4135615825653076,9.53486442565918,1.8380389213562007,-0.4972491562366485,-0.0196205042302608
2822980068.0,-0.5093333721160889,0.357712984085083,9.59943962097168,1.530155897140503,-0.7815158367156982,-0.0705928280949592
2822988401.0,-0.4972513318061828,0.0023890496231615,9.640036582946776,1.436305284500122,-0.6873067617416382,-0.0547376163303852
2822996734.0,-0.5491282939910889,0.0429186150431633,9.611063957214355,1.773721694946289,-0.7897637486457825,0.0170718878507614
2823005067.0,-0.6288264393806458,0.4235976636409759,9.605568885803224,1.981939673423767,-0.9508004188537598,-0.1350638717412948
2823013400.0,-0.4942000806331634,0.5292658805847168,9.49482250213623,1.9073253870010376,-1.3280212879180908,-0.1331427842378616
2823021733.0,-0.2877420783042907,0.3908630907535553,9.473116874694824,1.5078715085983276,-1.308298110961914,0.0518303997814655
2823030066.0,-0.2387976646423339,0.1826335340738296,9.397984504699709,1.257799744606018,-1.027079463005066,0.1112041994929313
2823038399.0,-0.3805598020553589,0.1403315961360931,9.49208641052246,1.5036965608596802,-0.6729628443717957,0.1354096829891204
2823046732.0,-0.5452446341514587,0.2752957642078399,9.555084228515623,1.6662957668304443,-0.5544201135635376,-0.0173920672386884
2823055065.0,-0.5623279213905334,0.18527153134346,9.564552307128906,1.6781805753707886,-0.7556710839271545,-0.0512540824711322
2823063398.0,-0.501379132270813,0.0998915433883667,9.623467445373535,1.7163201570510864,-0.9472143650054932,0.005084425676614
2823071731.0,-0.5618541836738586,0.2138682156801223,9.6572265625,1.5804879665374756,-0.9111751914024352,0.1242418512701988
2823080064.0,-0.5133467316627502,0.1843942999839782,9.608959197998049,1.5988918542861938,-1.1321364641189575,-0.0907896533608436
2823088397.0,-0.4013212919235229,0.014603579416871,9.573902130126951,1.732457160949707,-1.2379616498947144,0.1003437712788581
2823096730.0,-0.2519861757755279,-0.1389699131250381,9.581629753112791,1.920516848564148,-1.1547921895980835,-0.0878824442625045
2823105063.0,-0.2427224516868591,-0.042693868279457,9.553909301757812,2.27107310295105,-0.8742650151252747,0.1797478944063186
2823113396.0,-0.4079813361167907,0.2300816029310226,9.562252044677734,2.3843140602111816,-0.4305497109889984,0.1206558644771575
2823121729.0,-0.5317292213439941,0.2136047929525375,9.661523818969728,2.281959295272827,-0.5153071284294128,-0.0939273983240127
2823130062.0,-0.5479320883750916,-0.1049456149339675,9.689241409301758,2.081732749938965,-0.678982138633728,0.0156374890357255
2823138395.0,-0.5905765891075134,-0.036463875323534,9.634693145751951,2.3780128955841064,-0.7518033385276794,0.0322355143725872
2823146728.0,-0.6297811269760132,0.2929555773735046,9.665119171142578,2.620553970336914,-0.9325885772705078,-0.0094004236161708
2823155061.0,-0.5506255626678467,0.4902450144290924,9.60201930999756,2.629800796508789,-1.0908846855163574,0.0001152640688815
2823163394.0,-0.3333113491535187,0.4251807630062103,9.494513511657717,2.157602310180664,-1.2054314613342283,0.0788021981716156
2823171727.0,-0.2283697128295898,0.1889906376600265,9.50383472442627,1.9933892488479608,-1.0180377960205078,0.2435529679059982
2823180060.0,-0.3741293549537658,0.1264605969190597,9.476879119873049,1.996872901916504,-0.583517849445343,0.1655319929122924
2823188393.0,-0.5779436230659485,0.3525994122028351,9.518609046936035,2.4273715019226074,-0.3610070347785949,0.0503703989088535
2823196726.0,-0.6326981782913208,0.4565143287181854,9.560731887817385,2.4325454235076904,-0.6342084407806396,-0.0143695855513215
2823205059.0,-0.5801671743392944,0.471932590007782,9.479674339294434,2.292192220687866,-0.8868032693862915,0.0711563527584075
2823213392.0,-0.6072582602500916,0.6046507954597473,9.483454704284668,2.0118441581726074,-0.7881883978843689,-0.0256270393729209
2823221725.0,-0.6068097352981567,0.5999661684036255,9.483899116516112,1.7049731016159058,-1.0280016660690308,0.0428654216229915
2823230058.0,-0.4833057224750519,0.3525731563568115,9.481279373168944,1.680050492286682,-1.378891110420227,0.0283165369182825
2823238391.0,-0.2740026116371155,0.2915661633014679,9.366411209106444,1.9338362216949463,-1.376047968864441,0.05877186357975
2823246724.0,-0.170170173048973,0.4735023975372314,9.31003189086914,2.0436956882476807,-0.9397093653678894,0.1491388827562332
2823255057.0,-0.3046565651893616,0.65329509973526,9.356806755065918,2.0683751106262207,-0.5412928462028503,0.0178275071084499
2823263390.0,-0.4151260256767273,0.6014842391014099,9.416854858398438,1.6971096992492676,-0.5999879240989685,-0.0349122062325477
2823271723.0,-0.4437051713466644,0.3220925033092499,9.494954109191896,1.407899260520935,-0.7889440655708313,-0.0528934001922607
2823280056.0,-0.4752157032489776,0.2168288379907608,9.50221824645996,1.6428073644638062,-0.795885443687439,-0.05847729742527
2823288389.0,-0.5049633383750916,0.4034079313278198,9.525679588317873,2.0186192989349365,-0.8329493403434753,-0.0785332471132278
2823296722.0,-0.4835424721240997,0.5141618251800537,9.553650856018066,2.172791719436645,-1.0256965160369873,-0.101586066186428
2823305055.0,-0.2828246653079986,0.4482723474502563,9.508001327514648,1.8633458614349363,-1.284067153930664,-0.100945696234703
2823313388.0,-0.1206508204340934,0.331264466047287,9.43897533416748,1.6139146089553833,-1.0361982583999634,0.0314158573746681
2823321721.0,-0.1664497405290603,0.1883419156074524,9.425200462341309,1.7016432285308838,-0.7733193635940552,0.0125125534832477
2823330054.0,-0.3107627630233764,0.2267672270536422,9.544463157653809,1.7903711795806885,-0.4076249599456787,-0.0359111614525318
2823338387.0,-0.4245167076587677,0.3867487013339996,9.601865768432615,2.205705642700196,-0.470328539609909,-0.0484621301293373
2823346720.0,-0.4252600073814392,0.5084367394447327,9.541197776794434,2.12117862701416,-0.6806982755661011,-0.1552478671073913
2823355053.0,-0.4629556238651275,0.5458222031593323,9.516484260559082,1.8218507766723635,-0.6837207078933716,-0.0745630338788032
2823363386.0,-0.5758649110794067,0.4838616847991943,9.60056972503662,1.5273127555847168,-0.7721155285835266,0.0899700000882148
2823371719.0,-0.5414565205574036,0.2996221780776977,9.614296913146973,1.4975234270095823,-0.9691913723945618,0.0677112266421318
2823380052.0,-0.3877644836902618,0.2333817034959793,9.5358304977417,1.7449694871902466,-1.1283198595046997,0.0941579192876815
2823388385.0,-0.2481206208467483,0.3683424890041351,9.42967128753662,1.7077393531799316,-1.0918835401535034,0.1421974152326584
2823396718.0,-0.2772331833839416,0.4221451878547668,9.475753784179688,1.8535611629486084,-0.6747558116912842,0.1465518325567245
2823405051.0,-0.4060382843017578,0.4581324458122253,9.57583999633789,1.5867891311645508,-0.5107734799385071,0.0351299196481704
2823413384.0,-0.4903775453567505,0.2944039404392242,9.636661529541016,1.4142770767211914,-0.4980687797069549,0.2115607559680938
2823421717.0,-0.5333231687545776,-0.0585460066795349,9.654958724975586,1.40520977973938,-0.6136658191680908,0.1564133167266845
2823430050.0,-0.5573152303695679,-0.0224283747375011,9.616281509399414,1.7774101495742798,-0.7102058529853821,0.0133322086185216
2823438383.0,-0.6405331492424011,0.3218214809894562,9.685216903686523,2.010192632675171,-0.8060543537139893,0.0909945666790008
2823446716.0,-0.5292549133300781,0.4317912757396698,9.579750061035156,1.9602062702178955,-1.1601841449737549,0.0025870378594845
2823455049.0,-0.316540777683258,0.2666566669940948,9.503863334655762,1.650401949882507,-1.2320574522018433,0.0967705845832824
2823463382.0,-0.2370576858520507,0.0191258080303668,9.481948852539062,1.467196345329285,-0.8856379389762878,0.1042371392250061
2823471715.0,-0.462279736995697,0.007745468057692,9.51814079284668,1.8472473621368408,-0.3375828266143799,0.0392922386527061
2823480048.0,-0.6466228365898132,0.1215174868702888,9.612133979797363,2.256063461303711,-0.5497070550918579,0.0640740022063255
2823488381.0,-0.6281372904777527,0.2158194929361343,9.602879524230955,2.3558051586151123,-0.8233696818351746,-0.0711819678544998
2823496714.0,-0.5604844093322754,0.3482533991336822,9.519173622131348,2.243307590484619,-0.8232415914535522,0.0317744575440883
2823505047.0,-0.6698481440544128,0.4469329118728637,9.533143997192385,1.87036406993866,-0.8172733187675476,0.0053917961195111
2823513380.0,-0.6343078017234802,0.2382596880197525,9.56143569946289,1.5655035972595217,-1.104434609413147,0.0155350333079695
2823521713.0,-0.5111467242240906,0.0203848350793123,9.542887687683104,1.783301591873169,-1.164602518081665,-0.0064547876827418
2823530046.0,-0.3502949774265289,0.0912530049681663,9.441882133483888,2.11218810081482,-1.184478998184204,-0.0516126826405525
2823538379.0,-0.3773809671401977,0.2903182506561279,9.37553596496582,2.178631544113159,-0.841401994228363,-0.0968730300664901
2823546712.0,-0.4997951984405517,0.434262603521347,9.49388599395752,2.187058925628662,-0.5537797808647156,0.0398429445922374
2823555045.0,-0.5717155933380127,0.3602836728096008,9.557955741882324,1.9161880016326904,-0.6572868824005127,-0.1433116346597671
2823563378.0,-0.5619704723358154,0.0758594870567321,9.539738655090332,1.6060253381729126,-0.8013925552368164,0.0014472041511908
2823571711.0,-0.5740044713020325,0.0384450070559978,9.548358917236328,1.9651626348495483,-0.8285949230194092,-0.0570172928273677
2823580044.0,-0.6088982820510864,0.2786919176578522,9.597983360290527,2.306702375411988,-1.004282832145691,-0.0022796664852648
2823588377.0,-0.5464328527450562,0.4274854362010956,9.540233612060549,2.4166135787963867,-1.209452986717224,-0.0767402499914169
2823596710.0,-0.3176858723163605,0.3891599178314209,9.51878833770752,2.0193111896514893,-1.3888038396835327,-0.0097334096208214
2823605043.0,-0.1808378845453262,0.2348932921886444,9.479589462280272,1.787732720375061,-0.9934992790222168,0.015048362314701
2823613376.0,-0.2715607583522796,0.0931354239583015,9.47406005859375,1.9653929471969604,-0.5874624252319336,0.1490364223718643
2823621709.0,-0.4650620520114898,0.1821553409099578,9.57509708404541,2.3751442432403564,-0.4965063631534576,-0.0293283015489578
2823630042.0,-0.5386995673179626,0.3309283554553985,9.616621971130373,2.535912036895752,-0.7491779327392578,-0.1681446582078933
2823638375.0,-0.4737081229686737,0.4435874819755554,9.54145622253418,2.47658920288086,-0.8098068833351135,0.080428697168827
2823646708.0,-0.4997179508209228,0.5790631175041199,9.512321472167969,2.216156244277954,-0.8142508864402771,0.1345131397247314
2823655041.0,-0.5439722537994385,0.4827889502048492,9.58141803741455,1.968453884124756,-0.9739428162574768,0.1297873258590698
2823663374.0,-0.4560033977031708,0.2608281373977661,9.5455904006958,1.9585155248641968,-1.1456732749938965,-0.0161881949752569
2823671707.0,-0.2991828024387359,0.254570335149765,9.458940505981444,2.2413482666015625,-1.1334171295166016,0.2694617807865143
2823680040.0,-0.2005185186862945,0.459941565990448,9.400436401367188,2.4220950603485107,-1.092472791671753,0.2151723951101303
2823688373.0,-0.3141267597675323,0.6929908990859985,9.38888931274414,2.395507335662842,-0.8064898252487183,0.1683239489793777
2823696706.0,-0.4366101324558258,0.7599932551383972,9.446725845336914,1.912730097770691,-0.6950935125350952,0.1498560756444931
2823705039.0,-0.4412160515785217,0.4755854606628418,9.513139724731444,1.4501627683639526,-0.6741923093795776,0.238481342792511
2823713372.0,-0.5016918182373047,0.2786281108856201,9.492812156677246,1.600287914276123,-0.8025708794593811,0.1155842393636703
2823721705.0,-0.5498916506767273,0.4632868468761444,9.482226371765137,2.0258939266204834,-0.8453978300094604,0.0877159386873245
2823730038.0,-0.5501311421394348,0.7023522853851318,9.51716423034668,2.058372735977173,-0.9809995889663696,0.039535567164421
2823738371.0,-0.4164238572120666,0.7588599324226379,9.435504913330078,1.909810185432434,-1.3266379833221436,0.0642276927828788
2823746704.0,-0.2154041975736618,0.6693285703659058,9.353537559509276,1.3651490211486816,-1.3250499963760376,0.0365899354219436
2823755037.0,-0.1988561898469925,0.4555073380470276,9.296807289123535,1.1042424440383911,-0.9595860838890076,0.1129971966147422
2823763370.0,-0.4028838872909546,0.3930272758007049,9.416553497314451,1.3557486534118652,-0.579060971736908,-0.0338876321911811
2823771703.0,-0.5461729764938354,0.4539941549301147,9.448850631713867,1.735223412513733,-0.6908670663833618,-0.1434909403324127
2823780036.0,-0.5095266103744507,0.5701196193695068,9.446006774902344,1.6496975421905518,-0.8693727254867554,-0.0403936468064785
2823788369.0,-0.4543266594409942,0.6345700025558472,9.417280197143556,1.4437334537506104,-0.9908866286277772,-0.1232556998729705
2823796702.0,-0.5378652811050415,0.666780948638916,9.468939781188965,1.2221190929412842,-0.9512101411819458,-0.120207592844963
2823805035.0,-0.5145183205604553,0.4659718871116638,9.47556495666504,1.0082659721374512,-1.1261811256408691,-0.0829645171761512
2823813368.0,-0.3588087558746338,0.2672105729579925,9.416437149047852,1.0936893224716189,-1.3214125633239746,-0.1751501113176345
2823821701.0,-0.2262942045927047,0.334908664226532,9.345684051513672,1.342429280281067,-1.23896062374115,-0.074588656425476
2823830034.0,-0.2673122882843017,0.4691877961158752,9.322908401489258,1.44719135761261,-0.9529263377189636,-0.0762023478746414
2823838367.0,-0.4195213317871094,0.5437877774238586,9.427912712097168,1.265484094619751,-0.714560329914093,-0.0677496567368507
2823846700.0,-0.4987748861312866,0.4056091010570526,9.48291015625,0.9451780319213868,-0.7025983929634094,-0.1166728287935257
2823855033.0,-0.4890041053295135,0.2041850537061691,9.521199226379396,0.9213567972183228,-0.9436540603637696,-0.0251787900924682
2823863366.0,-0.5101694464683533,0.148099660873413,9.477931022644045,1.2509095668792725,-0.9820754528045654,-0.0797883421182632
2823871699.0,-0.559678852558136,0.3529559075832367,9.526772499084473,1.4734972715377808,-1.0161936283111572,-0.0756388306617736
2823880032.0,-0.4789051115512848,0.491269052028656,9.534808158874512,1.4091800451278689,-1.2599643468856812,-0.1208735778927803
2823888365.0,-0.2584691047668457,0.3463633358478546,9.511459350585938,1.1800862550735474,-1.4166977405548096,-0.1005870997905731
2823896698.0,-0.1602808982133865,0.1418837904930114,9.414714813232422,1.082316756248474,-1.1278716325759888,0.0613332837820053
2823905031.0,-0.3094391524791717,0.0760776400566101,9.45853328704834,1.1723248958587646,-0.6657907962799072,0.1290316879749298
2823913364.0,-0.4875592291355133,0.1927762776613235,9.611139297485352,1.5485212802886963,-0.5729135274887085,-0.0555060468614101
2823921697.0,-0.4861233234405517,0.2690157890319824,9.612972259521484,1.6939592361450195,-0.8305671811103821,-0.0992295518517494
2823930030.0,-0.4171794056892395,0.3278461396694183,9.487417221069336,1.5273895263671875,-0.9196021556854248,0.0383829288184642
2823938363.0,-0.5437448620796204,0.3802022337913513,9.556225776672363,1.360435962677002,-0.8124066591262817,-0.0858076810836792
2823946696.0,-0.574580729007721,0.2824013829231262,9.62699031829834,1.1951985359191897,-1.0159629583358765,0.0557493790984153
2823955029.0,-0.4546105861663818,0.1328365802764892,9.582834243774414,1.3162002563476562,-1.1877319812774658,0.0624603070318698
2823963362.0,-0.2952794730663299,0.0943701416254043,9.503622055053713,1.4694502353668213,-1.282632827758789,0.0153557332232594
2823971695.0,-0.2486552447080612,0.2284904271364212,9.434958457946776,1.6395798921585083,-0.9777209162712096,-0.0349122025072574
2823980028.0,-0.3672977983951568,0.4629329144954681,9.472954750061035,1.5886589288711548,-0.7231922745704651,0.0378962568938732
2823988361.0,-0.4805566370487213,0.4708216488361358,9.528203010559082,1.3895082473754885,-0.5840045809745789,0.0444791167974472
2823996694.0,-0.4998120665550232,0.1602594405412674,9.559481620788574,1.195505976676941,-0.7370495796203613,0.0136651936918497
2824005027.0,-0.5718984007835388,-0.0338544063270092,9.603586196899414,1.3118844032287598,-0.8596009016036987,-0.0274456515908241
2824013360.0,-0.6275425553321838,0.2189578562974929,9.5753812789917,1.7481714487075806,-0.9164644479751588,-0.0656364783644676
2824021693.0,-0.6196888089179993,0.4783536791801452,9.576553344726562,1.801449179649353,-1.1006051301956177,0.035680629312992
2824030026.0,-0.4521450698375702,0.4929035305976867,9.52483081817627,1.6437934637069702,-1.3739347457885742,-0.0402015447616577
2824038359.0,-0.2361411452293396,0.2384936958551406,9.460793495178224,1.2643826007843018,-1.2578637599945068,0.0102328862994909
2824046692.0,-0.2513938248157501,0.1056403368711471,9.464884757995604,1.2478102445602417,-0.8572059273719788,0.0953233689069747
2824055025.0,-0.4973467886447906,0.2293322831392288,9.517132759094238,1.6484168767929075,-0.3985830545425415,0.0232449173927307
2824063358.0,-0.625505268573761,0.3477546572685241,9.581849098205566,1.8743343353271484,-0.7021885514259338,-0.2506096661090851
2824071691.0,-0.5297111868858337,0.3558667004108429,9.538084983825684,1.877382516860962,-0.929438054561615,-0.2506352961063385
2824080024.0,-0.4935691952705383,0.3820902705192566,9.520929336547852,1.5956517457962036,-0.9004684686660767,-0.1281992346048355
2824088357.0,-0.6225834488868713,0.4708501994609833,9.541505813598633,1.3696826696395874,-0.9463435411453248,-0.0750240907073021
2824096690.0,-0.5769226551055908,0.3662107288837433,9.5242919921875,1.3314663171768188,-1.1433424949645996,0.0025742303114384
2824105023.0,-0.4024839103221893,0.1602093279361724,9.534710884094238,1.5254430770874023,-1.304328203201294,0.0273175835609436
2824113356.0,-0.2406349182128906,0.1719661504030227,9.44618034362793,1.7139126062393188,-1.1940076351165771,0.0229375474154949
2824121689.0,-0.3308562338352203,0.4821891188621521,9.39564609527588,1.8621420860290527,-0.8042101860046387,-0.0532007627189159
2824130022.0,-0.492782711982727,0.6871942281723022,9.481924057006836,1.642756104469299,-0.7147395610809326,-0.0188008472323417
2824138355.0,-0.5103267431259155,0.4190850555896759,9.573508262634276,1.2523311376571655,-0.8940776586532593,-0.0978335663676261
2824146688.0,-0.4580823481082916,0.0451272577047348,9.597442626953123,1.3162771463394165,-0.8537737727165222,-0.0474375635385513
2824155021.0,-0.507781445980072,0.1859195828437805,9.555912971496582,1.6401691436767578,-0.9776184558868408,0.0133578237146139
2824163354.0,-0.6196128129959106,0.6156719326972961,9.507489204406738,1.9051995277404783,-1.1067911386489868,-0.0915452763438224
2824171687.0,-0.441396564245224,0.7090593576431274,9.496071815490724,1.8498730659484863,-1.3195173740386963,-0.0340157076716423
2824180020.0,-0.22499580681324,0.4508289396762848,9.491535186767578,1.3106677532196045,-1.269518494606018,0.0856924355030059
2824188353.0,-0.1670331954956054,0.22650907933712,9.421860694885254,1.0865684747695925,-1.014503002166748,0.1341289281845092
2824196686.0,-0.4092784821987152,0.3085664212703705,9.442789077758787,1.3221170902252195,-0.5097745060920715,0.0916605293750763
2824205019.0,-0.5330652594566345,0.4238093495368957,9.56036376953125,1.734326958656311,-0.722218930721283,-0.102636232972145
2824213352.0,-0.4766193628311157,0.4661301076412201,9.578575134277344,1.8319684267044067,-0.9052838683128356,-0.0654955953359603
2824221685.0,-0.4311575889587402,0.4644981622695923,9.541874885559082,1.6675379276275637,-0.9686150550842284,-0.0229375474154949
2824230018.0,-0.5641733407974243,0.5612692832946777,9.50617790222168,1.2613089084625244,-0.7555174231529236,0.0340797416865825
2824238351.0,-0.579108476638794,0.4517807066440582,9.572198867797852,1.1236324310302734,-1.0611720085144043,0.0362569466233253
2824246684.0,-0.4220426976680755,0.2209016978740692,9.52173137664795,1.161259651184082,-1.2320703268051147,0.0068774218671023
2824255017.0,-0.2504507601261139,0.1495390981435775,9.470023155212402,1.596957802772522,-1.3024582862854004,-0.0980512946844101
2824263350.0,-0.2421820908784866,0.3438289165496826,9.438783645629885,1.7293578386306765,-0.8211666345596313,-0.0473863333463668
2824271683.0,-0.4160424172878265,0.6230817437171936,9.485809326171877,1.5814356803894043,-0.6072878837585449,0.032363586127758
2824280016.0,-0.512901782989502,0.503824770450592,9.519282341003418,1.2208895683288574,-0.7272392511367798,-0.0770988464355468
2824288349.0,-0.477602481842041,0.0648476555943489,9.57281494140625,1.068331241607666,-0.8099988698959351,-0.0329655185341835
2824296682.0,-0.5389999747276306,-0.0057857511565089,9.59363842010498,1.4646859169006348,-0.8557459115982056,-0.044056486338377
2824305015.0,-0.6490274667739868,0.3878636956214905,9.562142372131348,1.7560478448867798,-0.8435791730880737,-0.0884459465742111
2824313348.0,-0.5547402501106262,0.5897926092147827,9.49795913696289,1.774259328842163,-1.2672384977340698,-0.1198233813047409
2824321681.0,-0.3114438056945801,0.4209182560443878,9.497836112976074,1.4196561574935913,-1.3792753219604492,0.0348737798631191
2824330014.0,-0.1920681446790695,0.1233436241745948,9.44638729095459,1.0990171432495115,-1.1748480796813965,0.0553907789289951
2824338347.0,-0.355009913444519,0.0489039868116378,9.465192794799805,1.1599279642105105,-0.5020902752876282,-0.0408547073602676
2824346680.0,-0.5847663283348083,0.2358292341232299,9.537737846374512,1.530719518661499,-0.548375129699707,-0.0714380964636802
2824355013.0,-0.5937346816062927,0.3176854252815246,9.57916259765625,1.813872218132019,-0.7909804582595825,-0.0931717827916145
2824363346.0,-0.4905817210674286,0.2816437482833862,9.550954818725586,1.7048708200454712,-0.9469583630561828,-0.1743048727512359
2824371679.0,-0.5331222414970398,0.413967490196228,9.52771282196045,1.4343842267990112,-0.982715666294098,-0.0355013273656368
2824380012.0,-0.5707794427871704,0.4142273962497711,9.540937423706056,1.381926417350769,-1.14887535572052,-0.0031761652790009
2824388345.0,-0.4791560173034668,0.1570383161306381,9.52577781677246,1.2166889905929563,-1.2853991985321045,-0.02876478433609
2824396678.0,-0.2691041827201843,0.0046890866942703,9.505775451660156,1.6133766174316406,-1.4157499074935913,-0.1926958858966827
2824405011.0,-0.1914954334497451,0.1798972934484481,9.408435821533203,1.8702104091644287,-0.9222405552864076,-0.0660847276449203
2824413344.0,-0.3960905075073242,0.5095163583755493,9.456552505493164,1.8336334228515625,-0.702367901802063,0.0057247811928391
2824421677.0,-0.5439229011535645,0.5767249464988708,9.533506393432615,1.60733163356781,-0.6782136559486389,-0.0480523034930229
2824430010.0,-0.495405912399292,0.2167597562074661,9.57766342163086,1.126629114151001,-0.8216533660888672,-0.0311725232750177
2824438343.0,-0.5326007008552551,-0.0424735806882381,9.541041374206545,1.2332870960235596,-0.8630973696708679,0.0105146439746022
2824446676.0,-0.573585569858551,0.2377037554979324,9.589147567749023,1.8283824920654297,-0.9491866827011108,-0.1155970469117164
2824455009.0,-0.5789257287979126,0.6126063466072083,9.544499397277832,2.0347819328308105,-1.2087100744247437,-0.0613460913300514
2824463342.0,-0.3416098952293396,0.6114134788513184,9.477662086486816,1.6514650583267212,-1.379659652709961,-0.0444406978785991
2824471675.0,-0.1776655167341232,0.3020338714122772,9.452695846557615,1.2671233415603638,-1.2149343490600586,0.0052893389947712
2824480008.0,-0.2716721296310425,0.1528061777353286,9.441359519958496,1.2187124490737915,-0.7890208959579468,0.0888685956597328
2824488341.0,-0.5026070475578308,0.3148970007896423,9.48817253112793,1.607613444328308,-0.5743736624717712,0.0194284003227949
2824496674.0,-0.5785179138183594,0.4014139771461487,9.558212280273438,1.839627385139465,-0.6446334719657898,-0.142159029841423
2824505007.0,-0.481288194656372,0.3616498410701751,9.5714693069458,1.8036390542984009,-0.8957297801971436,-0.0588102824985981
2824513340.0,-0.5316219925880432,0.4639381170272827,9.51611614227295,1.6390419006347656,-0.8779534697532654,0.0934535339474678
2824521673.0,-0.603378176689148,0.5857922434806824,9.55659294128418,1.288280725479126,-1.0882463455200195,0.0904310494661331
2824530006.0,-0.5051395297050476,0.3868617713451385,9.55690860748291,1.1624892950057983,-1.231711745262146,0.0129992235451936
2824538339.0,-0.3162862360477447,0.155358999967575,9.511043548583984,1.4409286975860596,-1.354365348815918,0.0396764501929283
2824546672.0,-0.212116852402687,0.1663970500230789,9.425514221191406,1.5881595611572266,-1.1418955326080322,-0.0216312240809202
2824555005.0,-0.3271569311618805,0.4961320757865906,9.439417839050291,1.779792308807373,-0.7833088636398315,-0.0089393677189946
2824563338.0,-0.4660503566265106,0.6984499096870422,9.475625991821287,1.6031054258346558,-0.591099739074707,-0.1504067927598953
2824571671.0,-0.5198257565498352,0.4194999635219574,9.544023513793944,1.1633087396621704,-0.6115654110908508,0.0441461317241191
2824580004.0,-0.5361985564231873,0.0421731621026992,9.608392715454102,1.1603889465332031,-0.8062849640846252,-0.1569640338420868
2824588337.0,-0.5773767232894897,0.164061963558197,9.562292098999023,1.5841764211654663,-0.9521323442459106,-0.0893168300390243
2824596670.0,-0.6200842261314392,0.6042752265930176,9.54476833343506,1.8153194189071653,-1.1419082880020142,-0.0421098060905933
2824605003.0,-0.46109738945961,0.6502920985221863,9.46423053741455,1.6992100477218628,-1.3749721050262451,0.1477813422679901
2824613336.0,-0.2117503136396408,0.3792847394943237,9.444945335388184,1.1773452758789062,-1.3590399026870728,0.1114091128110885
2824621669.0,-0.1949364244937896,0.1445231884717941,9.439406394958496,0.957882821559906,-0.8319247961044312,0.1366903781890869
2824630002.0,-0.4154943525791168,0.2345130890607834,9.45680809020996,1.4502906799316406,-0.5347996354103088,0.0190441850572824
2824638335.0,-0.5613110661506653,0.3782044947147369,9.531848907470703,1.7986955642700195,-0.6166626811027527,0.0018826463492587
2824646668.0,-0.5383337736129761,0.3603715598583221,9.558488845825195,1.8240025043487549,-0.9812557101249696,-0.1011249870061874
2824655001.0,-0.4859112501144409,0.4088238179683685,9.50886058807373,1.5884795188903809,-0.8730355501174927,-0.1133686006069183
2824663334.0,-0.6192788481712341,0.54305100440979,9.55630588531494,1.2184820175170898,-0.9632744789123536,0.0062114507891237
2824671667.0,-0.5679428577423096,0.4052014052867889,9.525490760803224,1.1062146425247192,-1.253304362297058,-0.065572440624237
2824680000.0,-0.3906534910202026,0.1121515408158302,9.528669357299805,1.2844129800796509,-1.3295323848724363,-0.0796090364456176
2824688333.0,-0.2321512550115585,0.0019429411040619,9.504712104797363,1.5692178010940552,-1.157148838043213,-0.1142907291650772
2824696666.0,-0.2686323821544647,0.2948205173015594,9.423208236694336,1.8392685651779173,-0.98309987783432,-0.0152660831809043
2824704999.0,-0.4155910313129425,0.6272962689399719,9.446447372436523,1.6956493854522705,-0.6637160181999207,0.0134602803736925
2824713332.0,-0.5029807686805725,0.4881314635276794,9.523796081542969,1.2725024223327637,-0.7940669059753418,-0.0490768775343894
2824721665.0,-0.4820873141288757,0.0467009134590625,9.595767974853516,1.0037578344345093,-0.8002143502235413,-0.0706696808338165
2824729998.0,-0.5284368395805359,-0.0144746489822864,9.60258674621582,1.4773266315460205,-0.8515580296516418,-0.0138701079413294
2824738331.0,-0.6268489956855774,0.3997127413749695,9.572173118591309,1.862026810646057,-0.9754797220230104,-0.1528273224830627
2824746664.0,-0.5225306749343872,0.5383622646331787,9.560626983642578,1.921502947807312,-1.2883577346801758,-0.1185042485594749
2824754997.0,-0.3184440732002258,0.4028929769992828,9.489596366882324,1.592347264289856,-1.4233318567276,-0.0752546191215515
2824763330.0,-0.1745293736457824,0.1921611279249191,9.43781852722168,1.1505528688430786,-1.0462645292282104,-0.0044824904762208
2824771663.0,-0.335632860660553,0.1341873407363891,9.445371627807615,1.2011666297912598,-0.7086690068244934,0.0340028963983058
2824779996.0,-0.5331318974494934,0.3140453994274139,9.53184700012207,1.6809725761413574,-0.6130511164665222,0.0342846550047397
2824788329.0,-0.5586138367652893,0.3311223685741424,9.594377517700195,1.7999249696731567,-0.8893005847930908,-0.008427083492279
2824796662.0,-0.4651027321815491,0.3003815114498138,9.542096138000488,1.6923836469650269,-1.0146950483322144,0.012730274349451
2824804995.0,-0.5639549493789673,0.4526154398918152,9.5681791305542,1.5509803295135498,-0.9475217461586,0.0554676242172718
2824813328.0,-0.6022908687591553,0.4751991629600525,9.54304313659668,1.1270649433135986,-1.0212396383285522,0.0559286847710609
2824821661.0,-0.4641148447990417,0.2331710904836654,9.53086757659912,1.2531124353408811,-1.3224117755889893,0.0352067649364471
2824829994.0,-0.269295334815979,0.0540655963122844,9.493563652038574,1.6394261121749878,-1.2976170778274536,-0.0595018677413463
2824838327.0,-0.2345666885375976,0.2040783166885376,9.433846473693848,1.776757001876831,-1.1072137355804443,-0.0131016802042722
2824846660.0,-0.4263406991958618,0.5987687706947327,9.479442596435549,1.869006633758545,-0.8014950752258301,0.053034272044897
2824854993.0,-0.5160561800003052,0.6008744835853577,9.493674278259276,1.4252657890319824,-0.6558781266212463,-0.0404448807239532
2824863326.0,-0.4807139635086059,0.2178112268447876,9.594687461853027,1.2144348621368408,-0.8128164410591125,-0.0603983625769615
2824871659.0,-0.5262335538864136,0.030103214085102,9.606679916381836,1.4699112176895142,-0.949570894241333,-0.092160016298294
2824879992.0,-0.5907092094421387,0.3282124698162079,9.576679229736328,1.866688847541809,-0.9485591650009156,-0.0840018913149833
2824888325.0,-0.5737600326538086,0.6519161462783813,9.51662826538086,1.870236039161682,-1.2132182121276855,-0.0431856028735637
2824896658.0,-0.3428556621074676,0.5632261633872986,9.473421096801758,1.6848658323287964,-1.522074580192566,-0.10745170712471
2824904991.0,-0.1634620279073715,0.2963778376579284,9.46250057220459,1.2033438682556152,-1.3291481733322144,0.0374608151614666
2824913324.0,-0.2473452985286712,0.2231615483760833,9.459104537963867,1.1307532787322998,-0.7079775333404541,0.091609314084053
2824921657.0,-0.5046545267105103,0.3605462610721588,9.515735626220703,1.607446789741516,-0.4824313223361969,0.0239236950874328
2824929990.0,-0.5861307978630066,0.3761218190193176,9.599239349365234,1.678756833076477,-0.5547915101051331,-0.1254969388246536
2824938323.0,-0.4949833750724792,0.319834291934967,9.580833435058594,1.75141179561615,-0.9825621247291564,-0.0898547396063804
2824946656.0,-0.5508804321289062,0.4636644124984741,9.567938804626465,1.5293618440628052,-0.911303162574768,-0.1437470763921737
2824954989.0,-0.6203517317771912,0.5675494074821472,9.534087181091309,1.2877941131591797,-1.0409626960754397,0.0821832790970802
2824963322.0,-0.5279287695884705,0.3832702338695526,9.551437377929688,1.2108489274978638,-1.207582950592041,0.0549041107296943
2824971655.0,-0.2854100465774536,0.123156800866127,9.496790885925291,1.3351547718048096,-1.39246666431427,-0.0475400164723396
2824979988.0,-0.2187796235084533,0.1686489880084991,9.44268035888672,1.5729061365127563,-1.1222364902496338,0.0649705082178115
2824988321.0,-0.3783771097660064,0.4935429394245147,9.48684310913086,1.8035366535186768,-0.7635090947151184,-0.0046874051913619
2824996654.0,-0.4917293488979339,0.5989075303077698,9.5164213180542,1.479209065437317,-0.6526762247085571,0.048654232174158
2825004987.0,-0.5025230050086975,0.2893826067447662,9.563800811767578,1.2170475721359253,-0.7757527232170105,0.012973609380424
2825013320.0,-0.540998101234436,0.0355210192501544,9.597376823425291,1.3258310556411743,-0.7421212196350098,-0.0039702057838439
2825021653.0,-0.5916363596916199,0.2413935214281082,9.606733322143556,1.601081609725952,-0.8454490303993225,-0.0599885396659374
2825029986.0,-0.607611358165741,0.5746542811393738,9.532997131347656,1.697083830833435,-1.16780424118042,-0.0155478399246931
2825038319.0,-0.3909502327442169,0.5340914726257324,9.487473487854004,1.6496976613998413,-1.3999459743499756,-0.0247177369892597
2825046652.0,-0.2031413167715072,0.2543806135654449,9.501848220825195,1.2649717330932615,-1.1995657682418823,0.0597451999783515
2825054985.0,-0.25214484333992,0.1245524585247039,9.47024917602539,1.242687463760376,-0.8326675295829773,0.0555700808763504
2825063318.0,-0.4760288596153259,0.2865571975708008,9.461101531982422,1.541118860244751,-0.5734258890151978,0.0582083463668823
2825071651.0,-0.5520852208137512,0.3686295747756958,9.57521915435791,1.801436424255371,-0.6406120657920837,-0.0253324806690216
2825079984.0,-0.4868100881576538,0.3235102891921997,9.56174373626709,1.6821763515472412,-0.8816419243812561,-0.0288160145282745
2825088317.0,-0.5249313712120056,0.3639363646507263,9.522595405578612,1.5924755334854126,-0.8128933310508728,-0.0580162480473518
2825096650.0,-0.6277907490730286,0.4930669665336609,9.567364692687988,1.3095405101776123,-1.0199843645095823,0.0215799920260906
2825104983.0,-0.5350139737129211,0.3450771868228912,9.56521987915039,1.214511752128601,-1.2015893459320068,0.0872036591172218
2825113316.0,-0.3339577615261078,0.1091340184211731,9.514078140258787,1.404902458190918,-1.300972580909729,-0.0545839369297027
2825121649.0,-0.1853445917367935,0.1210937425494194,9.473142623901367,1.6019656658172607,-1.16464102268219,0.0884971916675567
2825129982.0,-0.3009088635444641,0.3701291978359222,9.444375991821287,1.7458791732788086,-0.9178349375724792,-0.0157527551054954
2825138315.0,-0.43007293343544,0.603691577911377,9.474565505981444,1.5741355419158936,-0.68441241979599,-0.0202864725142717
2825146648.0,-0.4993256628513336,0.3722840249538421,9.538237571716309,1.258670687675476,-0.7012408971786499,-0.0390104800462722
2825154981.0,-0.4918080270290375,0.0040556620806455,9.592134475708008,1.2146141529083252,-0.8634559512138367,0.0877927839756012
2825163314.0,-0.5490483641624451,0.098421461880207,9.599108695983888,1.6693949699401855,-0.8469346761703491,-0.0823497623205185
2825171647.0,-0.6346827149391174,0.5019451379776001,9.541276931762695,1.8497191667556765,-1.074414849281311,-0.1716922223567962
2825179980.0,-0.479397714138031,0.5588213801383972,9.478525161743164,1.7615036964416504,-1.339957356452942,-0.0635745301842689
2825188313.0,-0.2331356555223465,0.3210965394973755,9.47907829284668,1.35180401802063,-1.357682466506958,-0.0423915572464466
2825196646.0,-0.2082550227642059,0.153843343257904,9.406438827514648,1.2373085021972656,-0.9473680853843688,0.1511880308389663
2825204979.0,-0.3952231705188751,0.2158942520618438,9.47011375427246,1.383668065071106,-0.4810352921485901,-0.0299686528742313
2825213312.0,-0.5699059367179871,0.3766708672046661,9.516839981079102,1.6398872137069702,-0.6702476739883423,-0.08795927464962
2825221645.0,-0.5397630929946899,0.3161021769046783,9.57453441619873,1.866957783699036,-0.8484203815460205,-0.2088584899902343
2825229978.0,-0.4862944185733795,0.358392059803009,9.535959243774414,1.661300778388977,-0.903849482536316,-0.1192598640918731
2825238311.0,-0.5964183807373047,0.5062424540519714,9.548151016235352,1.4247790575027466,-0.8462687730789185,0.0601294189691543
2825246644.0,-0.5765430927276611,0.4494774639606476,9.534634590148926,1.2884087562561035,-1.1027439832687378,0.0283421501517295
2825254977.0,-0.3946627080440521,0.2338639348745346,9.507857322692873,1.4549524784088137,-1.3220274448394775,0.0698884278535842
2825263310.0,-0.2339089810848236,0.1249051317572593,9.473125457763672,1.6356356143951416,-1.1798171997070312,0.0128455394878983
2825271643.0,-0.2852446436882019,0.3355940282344818,9.455686569213867,1.7310996055603027,-0.8789268136024475,0.1025978103280067
2825279976.0,-0.4491952359676361,0.6005270481109619,9.450629234313965,1.7319960594177246,-0.6737055778503418,-0.0161113534122705
2825288309.0,-0.5438950061798096,0.5060778856277466,9.533743858337402,1.350600242614746,-0.71074378490448,-0.0560695566236972
2825296642.0,-0.4893045425415039,0.121111936867237,9.587706565856934,1.210644006729126,-0.8158133029937744,-0.0398813597857952
2825304975.0,-0.5521135330200195,0.1083849966526031,9.545211791992188,1.5338189601898191,-0.862994909286499,-0.0683900192379951
2825313308.0,-0.626923143863678,0.500412106513977,9.571483612060549,1.789026141166687,-1.0520918369293213,-0.072373017668724
2825321641.0,-0.5129809379577637,0.6588914394378662,9.494710922241213,1.7553565502166748,-1.3720521926879885,-0.1259708106517791
2825329974.0,-0.289860725402832,0.479794830083847,9.483271598815918,1.2433022260665894,-1.4684128761291504,-0.1026874706149101
2825338307.0,-0.177705243229866,0.1895360499620437,9.445714950561523,1.1691744327545166,-1.0408087968826294,0.02680529281497
2825346640.0,-0.3553317785263061,0.1751158982515335,9.466809272766112,1.3407130241394043,-0.6074927449226379,0.1585392951965332
2825354973.0,-0.5394384264945984,0.3892184793949127,9.519454002380373,1.6343289613723757,-0.5986047387123108,0.0491921380162239
2825363306.0,-0.5482458472251892,0.4047457277774811,9.576258659362791,1.7426259517669678,-0.8597161173820496,-0.1189268827438354
2825371639.0,-0.4674136638641357,0.3667719662189483,9.520792961120604,1.5699093341827393,-0.8868160247802734,-0.1157251074910163
2825379972.0,-0.5902454257011414,0.4785966873168945,9.542706489562988,1.40748929977417,-0.841120183467865,6.40355865471e-05
2825388305.0,-0.5935930013656616,0.4740975797176361,9.547364234924316,1.1599022150039673,-1.070777416229248,-0.0703366920351982
2825396638.0,-0.462374746799469,0.2435767650604248,9.540630340576172,1.2568649053573608,-1.400855302810669,0.1070418879389762
2825404971.0,-0.2569043040275574,0.0606155395507812,9.499021530151367,1.5135066509246826,-1.2752301692962646,-0.1042755395174026
2825413304.0,-0.2096926867961883,0.2093777805566787,9.431260108947754,1.7082260847091677,-1.063887119293213,0.0276761800050735
2825421637.0,-0.3826295137405395,0.5350173711776733,9.45042896270752,1.737810492515564,-0.681441068649292,-0.0249226503074169
2825429970.0,-0.5054985284805298,0.5727353096008301,9.535984992980955,1.4015213251113892,-0.6831828951835632,-0.1402379423379898
2825438303.0,-0.4941684901714325,0.1638072580099105,9.597749710083008,1.141857028007507,-0.7764571309089661,0.0715661793947219
2825446636.0,-0.5203836560249329,-0.0126534160226583,9.576127052307127,1.337780237197876,-0.7915438413619995,-0.0613845102488994
2825454969.0,-0.580860435962677,0.2750664353370666,9.59818172454834,1.74795401096344,-1.005717396736145,0.0250379163771867
2825463302.0,-0.571456253528595,0.5659509897232056,9.545928001403809,1.847055196762085,-1.242392897605896,-0.0422634854912757
2825471635.0,-0.3613110780715942,0.5173391103744507,9.495198249816896,1.6002366542816162,-1.3767396211624146,-0.0015112399123609
2825479968.0,-0.1780342608690261,0.2085125297307968,9.45703125,1.083469271659851,-1.2460812330245972,0.063100665807724
2825488301.0,-0.2866144180297851,0.0978008210659027,9.467982292175291,1.211540460586548,-0.764712929725647,0.10334063321352
2825496634.0,-0.4819096326828003,0.3210331499576568,9.471978187561035,1.686684489250183,-0.5082888603210449,-0.0083502400666475
2825504967.0,-0.5831095576286316,0.392110139131546,9.547454833984377,1.803613543510437,-0.7310046553611755,-0.1067345142364502
2825513300.0,-0.4890951812267303,0.3233697414398193,9.538824081420898,1.7697001695632937,-1.0187805891036987,-0.0440820939838886
2825521633.0,-0.5223360061645508,0.3819837570190429,9.52505874633789,1.530155897140503,-0.8670930862426758,0.0110013140365481
2825529966.0,-0.5761328935623169,0.4901485741138458,9.548659324645996,1.2352336645126345,-0.9763889908790588,-0.0843732878565788
2825538299.0,-0.5230087041854858,0.3149468004703522,9.572614669799805,1.1945326328277588,-1.1477738618850708,0.0077483062632381
2825546632.0,-0.3223840892314911,0.1299690753221511,9.517097473144531,1.5239059925079346,-1.3951048851013184,-0.1342954486608505
2825554965.0,-0.2180399745702743,0.1775873005390167,9.426321029663086,1.639195680618286,-1.1343775987625122,0.1039809808135032
2825563298.0,-0.3364023864269256,0.4743083417415619,9.42458724975586,1.8205958604812624,-0.6355148553848267,0.0188392717391252
2825571631.0,-0.5023155212402344,0.6356660723686218,9.497824668884276,1.4345892667770386,-0.595274806022644,-0.0179299637675285
2825579964.0,-0.5406476259231567,0.3408258259296417,9.581541061401367,1.0710463523864746,-0.7718849778175354,-0.0235650967806577
2825588297.0,-0.5220073461532593,0.0070741618983447,9.596661567687988,1.226973056793213,-0.9308341145515442,-0.1029820218682289
2825596630.0,-0.5562775731086731,0.1825426369905471,9.577645301818848,1.6970200538635254,-0.9602137207984924,-0.1084378734230995
2825604963.0,-0.6188786625862122,0.5889133810997009,9.541290283203123,1.8375779390335083,-1.06040358543396,-0.1557345390319824
2825613296.0,-0.4374977052211761,0.6759873032569885,9.483220100402832,1.8244507312774656,-1.379928469657898,-0.0521633885800838
2825621629.0,-0.2350921481847763,0.3764607906341553,9.497271537780762,1.2372061014175415,-1.2148833274841309,0.0560823716223239
2825629962.0,-0.2187983095645904,0.1287154108285904,9.449363708496094,1.0889252424240112,-0.8962677717208862,0.0703494995832443
2825638295.0,-0.4551854729652405,0.2381252944469452,9.46212387084961,1.3932735919952393,-0.5313160419464111,-0.0282268840819597
2825646628.0,-0.5902546644210815,0.3794630467891693,9.52426528930664,1.7191121578216553,-0.5814175009727478,-0.0722321420907974
2825654961.0,-0.5232729315757751,0.3838946521282196,9.592857360839844,1.8499624729156487,-0.9681796431541444,0.0001536854106234
2825663294.0,-0.5011157989501953,0.3895220458507538,9.540313720703123,1.4663764238357544,-0.9552828669548036,0.0554932355880737
2825671627.0,-0.5791800022125244,0.5099977254867554,9.524003028869627,1.2191224098205566,-0.933536410331726,0.0509595200419425
2825679960.0,-0.5268712639808655,0.4147719144821167,9.52793788909912,1.061991810798645,-1.135414958000183,0.0569404475390911
2825688293.0,-0.3993363380432129,0.1634485423564911,9.553682327270508,1.2908934354782104,-1.3238204717636108,0.0397148728370666
2825696626.0,-0.2341316640377044,0.1033120527863502,9.48450756072998,1.4955767393112185,-1.3251780271530151,-0.0129095735028386
2825704959.0,-0.267716109752655,0.3227248191833496,9.4341402053833,1.7420624494552612,-0.8344861268997192,0.0549553409218788
2825713292.0,-0.4629313349723816,0.6002992391586304,9.461762428283691,1.7207002639770508,-0.5631289482116699,0.163790225982666
2825721625.0,-0.5434443950653076,0.4906993210315704,9.551262855529783,1.217278003692627,-0.7004468441009521,-0.0400094352662563
2825729958.0,-0.5005702376365662,0.0640823170542717,9.601553916931152,1.0928183794021606,-0.7847945094108582,0.0819783508777618
2825738291.0,-0.5285034775733948,0.0097088245674967,9.579072952270508,1.47879958152771,-0.9005452990531921,-0.0309932269155979
2825746624.0,-0.599372386932373,0.4538165032863617,9.563690185546877,1.7729531526565552,-1.0091495513916016,0.0253196693956851
2825754957.0,-0.4859105050563812,0.6728721261024475,9.502683639526367,1.909221053123474,-1.354916214942932,-0.0126022035256028
2825763290.0,-0.2689785361289978,0.4797911643981933,9.46957015991211,1.4404548406600952,-1.3181596994400024,-0.0020491387695074
2825771623.0,-0.1999934911727905,0.1595799326896667,9.44153118133545,1.046866536140442,-1.0187550783157349,0.1552350670099258
2825779956.0,-0.3434723615646362,0.1074786186218261,9.419214248657228,1.3639194965362549,-0.6103358864784241,0.1507781893014907
2825788289.0,-0.5547186732292175,0.3190548121929168,9.525897979736328,1.6121472120285034,-0.539512574672699,-0.0118593908846378
2825796622.0,-0.6064643263816833,0.4293554723262787,9.561174392700195,1.858376622200012,-0.6969377398490906,-0.1430298835039138
2825804955.0,-0.4973374307155609,0.3793784081935882,9.536481857299805,1.7945972681045532,-0.97267484664917,-0.1593461483716964
2825813288.0,-0.5591234564781189,0.4582040011882782,9.517538070678713,1.415109634399414,-0.8968697190284729,-0.0325684994459152
2825821621.0,-0.5718770027160645,0.4627532064914703,9.519819259643556,1.086094617843628,-1.0623118877410889,0.1559650599956512
2825829954.0,-0.4729219675064087,0.2355992794036865,9.539703369140623,1.3096046447753906,-1.246503829956055,-0.014049407094717
2825838287.0,-0.2696605920791626,0.0525047294795513,9.50054931640625,1.5322179794311523,-1.3536227941513062,-0.0268309134989976
2825846620.0,-0.2220019996166229,0.1938040852546692,9.42263412475586,1.8394478559494016,-0.969780445098877,0.0135627361014485
2825854953.0,-0.3925292789936065,0.5623151063919067,9.411685943603516,1.847490668296814,-0.678982138633728,0.014382392168045
2825863286.0,-0.544910728931427,0.6282199025154114,9.49787425994873,1.4665558338165283,-0.5693788528442383,-0.0531495362520217
2825871619.0,-0.5047260522842407,0.219155952334404,9.55524730682373,1.105881690979004,-0.7456047534942627,-0.0335802622139453
2825879952.0,-0.5228441953659058,-0.0615502148866653,9.61263370513916,1.313536286354065,-0.9356112480163574,-0.0248970352113246
2825888285.0,-0.5804261565208435,0.2163273096084594,9.56764793395996,1.7402310371398926,-0.9530416131019592,0.033503420650959
2825896618.0,-0.6143895983695984,0.5878791213035583,9.52541446685791,1.916585087776184,-1.1696099042892456,-0.1127922907471656
2825904951.0,-0.3705542087554931,0.610613226890564,9.472102165222168,1.7032184600830078,-1.418272852897644,-0.0863071605563163
2825913284.0,-0.15780009329319,0.3246877193450928,9.458760261535645,1.1435731649398804,-1.2867693901062012,-0.0481163375079631
2825921617.0,-0.2274174094200134,0.1220274567604065,9.460620880126951,1.1480683088302612,-0.7834112644195557,0.2173239588737487
2825929950.0,-0.4894047081470489,0.2678810954093933,9.523401260375977,1.4081041812896729,-0.496890515089035,-0.058093074709177
2825938283.0,-0.5668215751647949,0.3987827599048614,9.544363975524902,1.7320600748062134,-0.6416493654251099,-0.108514703810215
2825946616.0,-0.5160889029502869,0.3452552258968353,9.594682693481444,1.8854893445968628,-0.8411073684692383,-0.1330019235610962
2825954949.0,-0.5250003933906555,0.3996253609657287,9.553955078125,1.614593267440796,-0.9301169514656068,-0.0122564109042286
2825963282.0,-0.571476399898529,0.5466059446334839,9.534432411193848,1.2907267808914185,-1.0122616291046145,0.1471793800592422
2825971615.0,-0.5409337878227234,0.4060741066932678,9.528623580932615,1.0791789293289185,-1.2454794645309448,0.0319921821355819
2825979948.0,-0.3509349226951599,0.1235246285796165,9.512466430664062,1.2978605031967163,-1.3657000064849854,0.0038805571384727
2825988281.0,-0.2161927372217178,0.1261177808046341,9.471747398376465,1.692780613899231,-1.1338140964508057,-0.1409807503223419
2825996614.0,-0.3040286004543304,0.4382579028606415,9.443058013916016,1.804894208908081,-0.7319523692131042,0.003368271747604
2826004947.0,-0.4781246483325958,0.6402795910835266,9.490742683410645,1.5569226741790771,-0.5911508798599243,0.0167389009147882
2826013280.0,-0.5371785163879395,0.410744845867157,9.565396308898926,1.1955828666687012,-0.7290323376655579,-0.1403916329145431
2826021613.0,-0.499232679605484,0.0431173369288444,9.601110458374023,1.1176131963729858,-0.726624608039856,-0.0361416861414909
2826029946.0,-0.5274876952171326,0.0999977514147758,9.579145431518556,1.5088704824447632,-0.9226760864257812,-0.1279430985450744
2826038279.0,-0.5842427015304565,0.5063790678977966,9.551963806152344,1.8965930938720703,-0.962352454662323,-0.196333110332489
2826046612.0,-0.4530813097953796,0.6519899964332581,9.48978328704834,1.82064688205719,-1.2680838108062744,0.0155094200745224
2826054945.0,-0.2524630725383758,0.4268162846565246,9.470695495605469,1.3747799396514893,-1.3648288249969482,0.0359751917421817
2826063278.0,-0.1967675536870956,0.1295379847288131,9.460421562194824,1.0989658832550049,-0.9999284744262696,0.0769067406654357
2826071611.0,-0.4075832962989807,0.1685424447059631,9.431724548339844,1.2516781091690063,-0.4973003566265106,-0.0164187252521514
2826079944.0,-0.5917218327522278,0.3470942974090576,9.530829429626465,1.713092803955078,-0.5499888062477112,-0.1227434128522872
2826088277.0,-0.5805777907371521,0.3780579268932342,9.578184127807615,1.7784090042114258,-0.78989177942276,-0.1730753779411316
2826096610.0,-0.50596022605896,0.3740736544132232,9.522085189819336,1.613709568977356,-0.9375833868980408,-0.0477193184196949
2826104943.0,-0.5743661522865295,0.5223149061203003,9.530197143554688,1.3479875326156616,-0.9872494339942932,0.0689663216471672
2826113276.0,-0.5581220388412476,0.4465019106864929,9.509526252746582,1.1671253442764282,-1.1042808294296265,-0.0001024569355649
2826121609.0,-0.4250822365283966,0.1937117576599121,9.537504196166992,1.362254619598389,-1.238499402999878,0.0769323483109474
2826129942.0,-0.2510232627391815,0.038879819214344,9.499588966369627,1.477749228477478,-1.2030237913131714,-0.0961302146315574
2826138275.0,-0.2365999072790146,0.2484460473060608,9.421065330505373,1.87044095993042,-0.9197815656661988,0.130722239613533
2826146608.0,-0.4119588434696197,0.5845644474029541,9.47659397125244,1.7307666540145874,-0.6689156293869019,-0.020849984139204
2826154941.0,-0.5668270587921143,0.5914828777313232,9.524088859558104,1.378494143486023,-0.6461190581321716,-0.029405141249299
2826163274.0,-0.5266352295875549,0.1739785820245742,9.577335357666016,1.1649482250213623,-0.8273397088050842,-0.0073768994770944
2826171607.0,-0.548029363155365,-0.0263439007103443,9.58354949951172,1.3192740678787231,-0.8974202871322632,0.019479626789689
2826179940.0,-0.6035410165786743,0.277228444814682,9.571873664855955,1.8472601175308228,-1.036710500717163,-0.0825546756386756
2826188273.0,-0.5643558502197266,0.6079699397087097,9.529744148254396,1.976509690284729,-1.351893663406372,-0.0352451913058757
2826196606.0,-0.3349674642086029,0.5134662985801697,9.51633644104004,1.693805456161499,-1.3943109512329102,0.0126150120049715
2826204939.0,-0.1692633181810379,0.2685276567935943,9.45709991455078,1.2638192176818848,-1.206276774406433,0.0247817710041999
2826213272.0,-0.2680957019329071,0.1715609431266784,9.443262100219728,1.2265504598617554,-0.8001375198364258,0.0314670875668525
2826221605.0,-0.5213492512702942,0.3265558779239654,9.551913261413574,1.4854079484939575,-0.5423814058303833,0.0601294189691543
2826229938.0,-0.6013259887695312,0.3611559867858886,9.59335708618164,1.810862302780152,-0.7235764265060425,-0.1699248105287552
2826238271.0,-0.4960450828075409,0.2972566485404968,9.61811637878418,1.6961363554000854,-0.928618550300598,-0.1310936659574508
2826246604.0,-0.5220419764518738,0.3994331657886505,9.51625156402588,1.592936396598816,-1.0043084621429443,-0.0332728885114192
2826254937.0,-0.5528861284255981,0.5279799699783325,9.54333782196045,1.2187637090682983,-1.0390925407409668,0.0420457646250724
2826263270.0,-0.4932052791118622,0.3693600594997406,9.548328399658203,1.2276389598846436,-1.2081338167190552,-0.0157655607908964
2826271603.0,-0.2881471812725067,0.1614781022071838,9.509624481201172,1.4414410591125488,-1.2324929237365725,0.0039445920847356
2826279936.0,-0.2241250425577163,0.1386366039514541,9.441246032714844,1.5984435081481934,-1.0016958713531494,0.0131785236299037
2826288269.0,-0.3562232851982116,0.4291719794273376,9.438867568969728,1.825155019760132,-0.6228357553482056,-0.0283037275075912
2826296602.0,-0.4986389875411987,0.6380478739738464,9.497530937194824,1.5006612539291382,-0.674512505531311,-0.0946061834692955
2826304935.0,-0.5454972386360168,0.367033839225769,9.573615074157717,1.2482200860977173,-0.8375855088233948,-0.0509211011230945
2826313268.0,-0.4934317767620086,0.0378457531332969,9.619656562805176,1.364713430404663,-0.9039774537086488,-0.1478709578514099
2826321601.0,-0.5430771112442017,0.177121415734291,9.55724811553955,1.6074471473693848,-0.9405932426452636,-0.0337979830801487
2826329934.0,-0.5782012343406677,0.5744287371635437,9.56129550933838,1.9568378925323489,-1.1124260425567627,-0.1454376280307769
2826338267.0,-0.3834687769412994,0.6407684087753296,9.491121292114258,1.909272313117981,-1.278867483139038,-0.0455933362245559
2826346600.0,-0.2271537333726883,0.3689100742340088,9.482428550720217,1.3511123657226562,-1.3042255640029907,-0.0932870432734489
2826354933.0,-0.2447846233844757,0.135882556438446,9.448262214660645,1.1701222658157349,-0.7759832143783569,0.0604111775755882
2826363266.0,-0.4379471242427826,0.2015528082847595,9.469891548156738,1.3624595403671265,-0.5179966688156128,-0.0498453006148338
2826371599.0,-0.5833783745765686,0.4004951119422912,9.568127632141112,1.7587885856628418,-0.6432758569717407,-0.0614997781813144
2826379932.0,-0.5640574097633362,0.3713500201702118,9.576231002807615,1.8234901428222656,-0.8716267347335815,-0.1063246801495552
2826388265.0,-0.4835744202136993,0.3567825555801391,9.546733856201172,1.5896577835083008,-0.9136340618133544,-0.0634720697999
2826396598.0,-0.5466134548187256,0.4926611483097076,9.540064811706545,1.392530918121338,-1.011454939842224,0.0474759899079799
2826404931.0,-0.5485514998435974,0.4167389273643493,9.523545265197754,1.1925346851348877,-1.128383994102478,0.0108988564461469
2826413264.0,-0.4011926651000976,0.1767536848783493,9.524282455444336,1.2461711168289185,-1.2123217582702637,0.1033918634057045
2826421597.0,-0.2426837086677551,-0.0012217473704367,9.48618984222412,1.5335627794265747,-1.194955348968506,-0.0502295158803463
2826429930.0,-0.2840466201305389,0.2588959336280823,9.435400009155272,1.8049453496932983,-0.8272885084152222,-0.0770988389849662
2826438263.0,-0.4640142023563385,0.6044492125511169,9.462138175964355,1.7224162817001345,-0.5938404202461243,-0.097206026315689
2826446596.0,-0.563973069190979,0.5115785002708435,9.55817985534668,1.380620002746582,-0.6873067617416382,-0.0782770961523056
2826454929.0,-0.5145469307899475,0.1009051352739334,9.580968856811523,1.222477674484253,-0.7918383479118347,-0.0150099415332078
2826463262.0,-0.523676335811615,-0.0015622237697243,9.564582824707031,1.5058735609054563,-0.7906089425086975,-0.0460287816822528
2826471595.0,-0.6322394013404846,0.3984668850898742,9.553716659545898,1.9012548923492432,-0.8393784165382385,-0.1486137807369232
2826479928.0,-0.5220813751220703,0.600615382194519,9.493186950683594,1.8418811559677124,-1.255686640739441,0.0343102663755416
2826488261.0,-0.3112759292125702,0.4767081439495086,9.49778652191162,1.624237060546875,-1.377482295036316,-0.1070931106805801
2826496594.0,-0.1974184662103653,0.2326748222112655,9.44984245300293,1.1774736642837524,-1.1528199911117554,-0.0219257865101099
2826504927.0,-0.3240166306495666,0.1747081726789474,9.4606294631958,1.230699896812439,-0.6063145399093628,-0.014548884704709
2826513260.0,-0.5773087739944458,0.3840383887290954,9.531639099121094,1.6086125373840332,-0.5086731314659119,-0.1539159566164016
2826521593.0,-0.5744487047195435,0.4111827313899994,9.569890022277832,1.806021332740784,-0.8037234544754028,-0.2534272670745849
2826529926.0,-0.4559167623519897,0.3432746827602386,9.54452133178711,1.6732629537582395,-0.900929629802704,-0.0788406282663345
2826538259.0,-0.5431804656982422,0.4540459215641022,9.536599159240724,1.4834355115890503,-0.9295148849487304,0.0234242174774408
2826546592.0,-0.5914113521575928,0.5121220946311951,9.53420352935791,1.1134378910064695,-1.021854281425476,0.0687870234251022
2826554925.0,-0.4505890309810638,0.2852869629859924,9.52911376953125,1.1828269958496094,-1.3092973232269287,-0.0018954535480588
2826563258.0,-0.2589726746082306,0.1013973206281662,9.49497127532959,1.359155297279358,-1.2558146715164185,-0.0211061276495456
2826571591.0,-0.2059752792119979,0.2065846174955368,9.46994400024414,1.6131715774536133,-1.0482369661331177,0.0567739456892013
2826579924.0,-0.3959375023841858,0.5393088459968567,9.439024925231934,1.7620928287506104,-0.7194013595581055,-0.0288416277617216
2826588257.0,-0.5154553055763245,0.6298221349716187,9.501786231994627,1.3988828659057615,-0.603958010673523,-0.1434140801429748
2826596590.0,-0.4770945906639099,0.2187267392873764,9.588465690612791,1.23446524143219,-0.7847688794136047,-0.1057611554861068
2826604923.0,-0.4926091730594635,0.0087336627766489,9.565474510192873,1.3040590286254885,-0.8586146831512451,-0.0805055350065231
2826613256.0,-0.5824721455574036,0.2893988788127899,9.572538375854492,1.7678306102752686,-0.9246739149093628,-0.0938249453902244
2826621589.0,-0.5762647986412048,0.6158531308174133,9.531394004821776,1.815524101257324,-1.2631915807724,-0.1317596137523651
2826629922.0,-0.3461586236953735,0.5666351318359375,9.472310066223145,1.627579689025879,-1.3207082748413086,0.0544302500784397
2826638255.0,-0.1968493610620498,0.2621512115001678,9.454994201660156,1.1501177549362185,-1.2977195978164673,0.0964247956871986
2826646588.0,-0.2483038306236267,0.167097583413124,9.463397979736328,1.3083109855651855,-0.7489345669746399,0.0890222713351249
2826654921.0,-0.4875949919223785,0.3727560937404632,9.502852439880373,1.4224481582641602,-0.5380526185035706,0.0570557117462158
2826663254.0,-0.5454103946685791,0.3983358144760132,9.558740615844728,1.8068410158157349,-0.7676842212677002,-0.105914868414402
2826671587.0,-0.4928182363510132,0.3355005979537964,9.58263874053955,1.66596257686615,-0.7962440848350525,-0.0593481734395027
2826679920.0,-0.5320284366607666,0.4075475335121155,9.535411834716797,1.3903279304504397,-0.837380588054657,0.0836945101618766
2826688253.0,-0.6311597228050232,0.4967077076435089,9.528094291687012,1.1790874004364014,-0.948290228843689,0.0820295959711074
2826696586.0,-0.5463210344314575,0.3369559943675995,9.514942169189451,1.191305160522461,-1.2011795043945312,0.0056735528632998
2826704919.0,-0.3506651818752289,0.1055838167667388,9.52077579498291,1.39291512966156,-1.3157010078430176,0.0571069382131099
2826713252.0,-0.2372707724571228,0.1108167096972465,9.448720932006836,1.6645666360855105,-1.160388708114624,-0.0366155430674552
2826721585.0,-0.3590497970581054,0.4384453892707824,9.444293022155762,1.6936516761779783,-0.8627899289131165,-0.0023052811156958
2826729918.0,-0.4645360708236694,0.5891919732093811,9.489258766174316,1.5362521409988403,-0.7005749344825745,-0.1100899800658226
2826738251.0,-0.4879526197910309,0.3177292346954345,9.56915283203125,1.2100547552108765,-0.7630224823951721,-0.071156345307827
2826746584.0,-0.4926091432571411,0.0125603917986154,9.554388046264648,1.2616419792175293,-0.8079754114151001,-0.0798139572143554
2826754917.0,-0.5820732712745667,0.1553359776735305,9.587278366088867,1.6346876621246338,-0.8494448661804199,0.0095156878232955
2826763250.0,-0.6482923030853271,0.5257976055145264,9.575020790100098,1.8761018514633176,-1.0767455101013184,-0.142184630036354
2826771583.0,-0.4941535592079162,0.5771774649620056,9.51106071472168,1.7764111757278442,-1.4329884052276611,-0.0919807106256485
2826779916.0,-0.2284242510795593,0.3056667745113373,9.479756355285645,1.4243180751800537,-1.323794960975647,0.0636129453778266
2826788249.0,-0.2089989483356475,0.1312475353479385,9.434907913208008,1.2179055213928225,-0.9488665461540222,0.0878568217158317
2826796582.0,-0.444406121969223,0.2931521236896515,9.475950241088867,1.453787088394165,-0.589242696762085,-0.0398685522377491
2826804915.0,-0.5467029809951782,0.4008484780788421,9.520230293273926,1.6851731538772583,-0.6667129397392273,-0.0350915007293224
2826813248.0,-0.4915159940719604,0.3286058604717254,9.574952125549316,1.8452622890472408,-0.9044129848480223,-0.0937480926513671
2826821581.0,-0.4653987884521484,0.3957083225250244,9.555251121520996,1.5171438455581665,-0.8783888220787048,-0.0371406376361846
2826829914.0,-0.614271879196167,0.5219572186470032,9.57606029510498,1.3217841386795044,-0.9226248264312744,-0.0713612660765647
2826838247.0,-0.5740156173706055,0.3904236257076263,9.579595565795898,1.2235535383224487,-1.0629394054412842,0.0283933766186237
2826846580.0,-0.3727023601531982,0.1588152199983596,9.517647743225098,1.366762638092041,-1.3772772550582886,0.0307498890906572
2826854913.0,-0.2222497761249542,0.1209069490432739,9.478333473205566,1.6537960767745972,-1.2972073554992676,0.0363850258290767
2826863246.0,-0.2983021736145019,0.3761176764965057,9.441137313842772,1.8076093196868896,-0.8702691793441772,0.0066212792880833
2826871579.0,-0.43416628241539,0.6309057474136353,9.471837997436523,1.636250138282776,-0.5648706555366516,0.024295100942254
2826879912.0,-0.4863861799240112,0.450893759727478,9.558337211608888,1.2381283044815063,-0.7057234644889832,0.0169694311916828
2826888245.0,-0.4732463955879211,0.047473419457674,9.607154846191406,1.2972201108932495,-0.7273674011230469,-0.0571709722280502
2826896578.0,-0.5365786552429199,0.078375294804573,9.603439331054688,1.6175519227981567,-0.6914050579071045,-0.030865155160427
2826904911.0,-0.610438346862793,0.5220636129379272,9.573748588562012,1.9731285572052,-1.059481501579285,0.0121283391490578
2826913244.0,-0.4918116629123688,0.6348690986633301,9.492291450500488,1.83914053440094,-1.2551230192184448,-0.1132917627692222
2826921577.0,-0.2455165982246399,0.4322737753391266,9.453531265258787,1.396167874336243,-1.465057373046875,-0.1008176282048225
2826929910.0,-0.2054654657840728,0.2030907124280929,9.410415649414062,1.1038838624954224,-0.9580236077308656,-0.0707209035754203
2826938243.0,-0.3904879987239837,0.2221458405256271,9.455950736999512,1.3646241426467896,-0.5619891881942749,-0.0001921067887451
2826946576.0,-0.5874577760696411,0.3742411732673645,9.51079273223877,1.655255675315857,-0.5972726941108704,-0.0445687659084796
2826954909.0,-0.5584336519241333,0.3891743123531341,9.558511734008787,1.765678882598877,-0.889684796333313,-0.1257658898830413
2826963242.0,-0.4955010414123535,0.3822234272956848,9.5245361328125,1.6705219745635986,-0.9463179111480712,-0.1865228563547134
2826971575.0,-0.5789297223091125,0.5319792628288269,9.533205032348633,1.427122712135315,-0.9815502762794496,0.0364746674895286
2826979908.0,-0.5679857730865479,0.4827811419963836,9.561820030212402,1.0880926847457886,-1.028782844543457,-0.0827980041503906
2826988241.0,-0.4162033200263977,0.1924358755350113,9.502544403076172,1.2900736331939695,-1.2527408599853516,0.0627932921051979
2826996574.0,-0.241300955414772,0.0319692306220531,9.495614051818848,1.4611254930496216,-1.3091691732406616,-0.0206706877797842
2827004907.0,-0.2530287802219391,0.2806291580200195,9.427236557006836,1.871132731437683,-1.0532828569412231,0.009105859324336
2827013240.0,-0.4218060374259949,0.6297372579574585,9.468767166137695,1.7155263423919678,-0.6032408475875854,-0.0311725307255983
2827021573.0,-0.514461100101471,0.5384374260902405,9.505949020385742,1.341212511062622,-0.7732040286064148,-0.0875366479158401
2827029906.0,-0.4836394786834717,0.0949826017022132,9.581061363220217,1.1529991626739502,-0.7812982201576233,0.0070951427333056
2827038239.0,-0.5412413477897644,-0.0229534730315208,9.59146213531494,1.4845882654190063,-0.7674537301063538,0.0378194190561771
2827046572.0,-0.6458359360694885,0.3405820429325104,9.57750129699707,1.879674911499024,-0.8828073740005493,-0.0262417830526828
2827054905.0,-0.5754260420799255,0.5805456042289734,9.519170761108398,1.8922004699707031,-1.3237054347991943,-0.0703751146793365
2827063238.0,-0.3368988037109375,0.4913411140441894,9.480862617492676,1.6078695058822632,-1.521485447883606,-0.0774574354290962
2827071571.0,-0.1736810207366943,0.2229278087615966,9.438935279846191,1.1815975904464722,-1.225615620613098,0.1488315165042877
2827079904.0,-0.2694547176361084,0.1618330478668213,9.46424674987793,1.2759602069854736,-0.654674232006073,0.0760102421045303
2827088237.0,-0.508195161819458,0.3463120460510254,9.539052963256836,1.5307451486587524,-0.548964262008667,-0.0665457770228385
2827096570.0,-0.5365481376647949,0.3259910047054291,9.569222450256348,1.7348136901855469,-0.8052346706390381,-0.0737689957022667
2827104903.0,-0.4481655061244964,0.3243212103843689,9.54296588897705,1.854867696762085,-0.8597673773765564,-0.0098870936781167
2827113236.0,-0.569911777973175,0.5159245133399963,9.54480266571045,1.4775699377059937,-0.7932984828948975,0.0771628841757774
2827121569.0,-0.6543707251548767,0.5485730171203613,9.56317138671875,1.134748935699463,-1.0714945793151855,-0.0053533748723566
2827129902.0,-0.4912188351154327,0.2607811093330383,9.555959701538086,1.1359784603118896,-1.318723201751709,0.0096437595784664
2827138235.0,-0.3060677349567413,0.039053089916706,9.488607406616213,1.427570939064026,-1.4556312561035156,0.0348737798631191
2827146568.0,-0.2281751632690429,0.1919380724430084,9.4321928024292,1.773004412651062,-0.9948824644088744,-0.0010757978307083
2827154901.0,-0.3670513331890106,0.5266621112823486,9.461454391479492,1.8380647897720337,-0.7888672351837158,-0.0392922386527061
2827163234.0,-0.4593126475811004,0.5827564001083374,9.505205154418944,1.3810555934906006,-0.7234484553337097,-0.0816069543361663
2827171567.0,-0.4547920525074005,0.2122033983469009,9.56778621673584,1.1102105379104614,-0.8215253353118896,-0.0869347006082534
2827179900.0,-0.5082380771636963,-0.024612933397293,9.586276054382324,1.3255494832992554,-0.7076444029808044,0.0197101533412933
2827188233.0,-0.6215111613273621,0.2866760194301605,9.586318016052246,1.7052804231643677,-0.873214840888977,-0.0962070673704147
2827196566.0,-0.590809166431427,0.5923526883125305,9.528152465820312,1.9668785333633425,-1.0912176370620728,-0.0671092942357063
2827204899.0,-0.393252432346344,0.5220474600791931,9.49309253692627,1.5635825395584106,-1.3791216611862185,-0.007453741505742
2827213232.0,-0.1945372223854065,0.2789273262023926,9.451988220214844,1.3379977941513062,-1.2418291568756104,0.079468160867691
2827221565.0,-0.2664934694766998,0.1720330268144607,9.437704086303713,1.1853113174438477,-0.7487808465957642,0.1795173436403274
2827229898.0,-0.5189459323883057,0.3165490627288818,9.493589401245115,1.4966013431549072,-0.4316254556179046,0.0725779309868812
2827238231.0,-0.5835321545600891,0.341279536485672,9.561589241027832,1.6709829568862915,-0.8409408926963806,-0.0162138100713491
2827246564.0,-0.4940857291221618,0.3199501633644104,9.560256004333496,1.7855809926986694,-0.8955761194229126,-0.0580162405967712
2827254897.0,-0.5115088224411011,0.478451669216156,9.53472900390625,1.7037947177886963,-0.8917083144187927,0.0021644027438014
2827263230.0,-0.5974204540252686,0.5927426218986511,9.560175895690918,1.3276240825653076,-1.0663206577301023,0.1000876203179359
2827271563.0,-0.4693385064601898,0.3477001786231994,9.54875659942627,1.201678991317749,-1.270491600036621,0.0108988564461469
2827279896.0,-0.2665217518806457,0.0665306001901626,9.49306583404541,1.455362319946289,-1.3775591850280762,-0.0978976041078567
2827288229.0,-0.2025361806154251,0.1600346863269806,9.45395851135254,1.7113255262374878,-1.1289474964141846,0.0193515550345182
2827296562.0,-0.3636107444763183,0.4795390367507934,9.468140602111816,1.7129647731781006,-0.7597950100898743,0.0262161679565906
2827304895.0,-0.4975574910640716,0.6269704103469849,9.48287582397461,1.6593797206878662,-0.6562879085540771,-0.0586822107434272
2827313228.0,-0.4942829012870788,0.337192177772522,9.559081077575684,1.1383222341537476,-0.7858574390411377,-0.0211957786232233
2827321561.0,-0.5038677453994751,0.0044991383329033,9.574645042419434,1.256070852279663,-0.8089359402656555,-0.0652010291814804
2827329894.0,-0.593687117099762,0.1852777451276779,9.61221981048584,1.773491144180298,-0.9079733490943908,-0.0351683460175991
2827338227.0,-0.5780652165412903,0.5618674159049988,9.54946994781494,1.829356074333191,-1.1171648502349854,-0.2336786836385727
2827346560.0,-0.3876164853572845,0.5412386059761047,9.497800827026367,1.7119656801223757,-1.4354217052459717,-0.0071719856932759
2827354893.0,-0.1814311891794204,0.3180068731307983,9.472251892089844,1.285258173942566,-1.2617571353912354,0.0867682173848152
2827363226.0,-0.2294345498085022,0.2021750956773758,9.440085411071776,1.2273188829421997,-0.6609496474266052,0.1313626021146774
2827371559.0,-0.451694905757904,0.3303325474262237,9.483867645263672,1.3905071020126345,-0.4992726445198059,-0.0324276238679885
2827379892.0,-0.5553738474845886,0.3637057244777679,9.56008529663086,1.5838433504104614,-0.632236123085022,-0.0821960866451263
2827388225.0,-0.5307868123054504,0.3177462816238403,9.591469764709473,1.780688762664795,-0.7996507287025452,-0.1752782166004181
2827396558.0,-0.5611844658851624,0.4139979183673858,9.514981269836426,1.6776171922683716,-0.8596137762069702,-0.0987428873777389
2827404891.0,-0.6751105189323425,0.5709424018859863,9.56274700164795,1.4223713874816897,-0.9403754472732544,0.028060395270586
2827413224.0,-0.554402232170105,0.4181039929389953,9.531051635742188,1.2539832592010498,-1.1638339757919312,-0.0101688522845506
2827421557.0,-0.3376131653785705,0.1520581990480423,9.50034523010254,1.2782272100448608,-1.3871517181396484,-0.0191978700459003
2827429890.0,-0.231267049908638,0.1274847686290741,9.475255012512209,1.5984946489334106,-1.1040503978729248,0.0029840583447366
2827438223.0,-0.3110667467117309,0.4148868024349212,9.427338600158691,1.8809939622879028,-0.8008034229278564,-0.0075305844657123
2827446556.0,-0.4297177791595459,0.6378810405731201,9.48104763031006,1.6258506774902344,-0.7636883854866028,-0.0755619928240776
2827454889.0,-0.490477591753006,0.388664036989212,9.528016090393066,1.2754992246627808,-0.7271624803543091,0.0045977546833455
2827463222.0,-0.493453174829483,0.0537893772125244,9.589673042297363,1.1210453510284424,-0.7488064765930176,-0.1049927398562431
2827471555.0,-0.5959843397140503,0.1373675316572189,9.594659805297852,1.4788762331008911,-0.8660941123962402,-0.0663664788007736
2827479888.0,-0.6218764185905457,0.514458417892456,9.580838203430176,1.919595003128052,-1.130689263343811,-0.131708413362503
2827488221.0,-0.4550431072711944,0.5705308318138123,9.510228157043455,1.7706222534179688,-1.4460515975952148,-0.0960533693432807
2827496554.0,-0.2154297679662704,0.3725263178348541,9.484429359436035,1.2960418462753296,-1.4506109952926636,-0.0461568497121334
2827504887.0,-0.1869252473115921,0.1730844974517822,9.446344375610352,1.1355687379837036,-1.0031559467315674,0.0041879275813698
2827513220.0,-0.3705029487609863,0.2353142201900482,9.473726272583008,1.342544436454773,-0.5953900218009949,0.0144976573064923
2827521553.0,-0.5233020186424255,0.3567468822002411,9.536744117736816,1.6365958452224731,-0.5436748266220093,0.0174945201724767
2827529886.0,-0.5189093947410583,0.3090530931949615,9.59359359741211,1.7461607456207275,-0.7000113725662231,-0.0810434371232986
2827538219.0,-0.5039898753166199,0.3396126925945282,9.55401611328125,1.6779755353927612,-0.8776461482048035,-0.1106022596359252
2827546552.0,-0.5972480773925781,0.5446603894233704,9.542715072631836,1.3553516864776611,-0.9439230561256408,0.0547376237809658
2827554885.0,-0.5504456162452698,0.4775980114936828,9.55479907989502,1.2967079877853394,-1.248847723007202,0.0796474739909172
2827563218.0,-0.3593824207782745,0.1570813357830047,9.527092933654783,1.3544679880142212,-1.2375516891479492,0.0070311068557202
2827571551.0,-0.2335977852344513,0.0390724726021289,9.485883712768556,1.4530571699142456,-1.2120144367218018,-0.0143695874139666
2827579884.0,-0.2737464606761932,0.2640561759471893,9.431828498840332,1.801000952720642,-0.8777486681938171,-0.034835360944271
2827588217.0,-0.4299115240573883,0.5640867352485657,9.491419792175291,1.907940149307251,-0.6549047827720642,-0.0132169444113969
2827596550.0,-0.5137672424316406,0.4981454014778137,9.51632022857666,1.4220895767211914,-0.7046476006507874,-0.0234882533550262
2827604883.0,-0.5186025500297546,0.1074857711791992,9.575260162353516,1.227805495262146,-0.8210130333900452,0.0464770272374153
2827613216.0,-0.5743604898452759,0.066781036555767,9.568528175354004,1.4670170545578003,-0.8363561034202576,0.0291618090122938
2827621549.0,-0.6245673298835754,0.4070096909999847,9.575236320495604,1.8297144174575808,-1.0223921537399292,-0.1183889880776405
2827629882.0,-0.518532395362854,0.5684139728546143,9.498234748840332,1.9122436046600344,-1.2707735300064087,-0.141954094171524
2827638215.0,-0.2767763435840606,0.4204819798469543,9.484375,1.513084053993225,-1.4125608205795288,-0.0817478224635124
2827646548.0,-0.1918249428272247,0.1908593028783798,9.457796096801758,1.2858600616455078,-1.059955358505249,0.0822473019361496
2827654881.0,-0.3271567225456238,0.2213876396417617,9.469284057617188,1.4650189876556396,-0.7500104308128357,0.0877415612339973
2827663214.0,-0.5590733289718628,0.4075832962989807,9.50205135345459,1.5840226411819458,-0.5509621500968933,-0.0362697541713714
2827671547.0,-0.5535224676132202,0.3602719604969024,9.550811767578123,1.853010535240173,-0.8164665699005127,-0.1910693794488906
2827679880.0,-0.4882551729679107,0.3230179846286773,9.546311378479004,1.682381510734558,-0.939299702644348,-0.2101135849952697
2827688213.0,-0.5932211875915527,0.490194171667099,9.553325653076172,1.5413494110107422,-0.9293612241744996,-0.0055326744914054
2827696546.0,-0.5647249817848206,0.5081170797348022,9.558277130126951,1.182109832763672,-1.1967227458953855,0.0325941182672977
2827704879.0,-0.4521092176437378,0.2789971828460693,9.551400184631348,1.413150191307068,-1.3126014471054075,0.0881513804197311
2827713212.0,-0.2442042380571365,0.1230771094560623,9.484030723571776,1.5437060594558716,-1.2491551637649536,0.0056479396298527
2827721545.0,-0.2241234928369522,0.2300184220075607,9.406309127807615,1.5625066757202148,-0.998929500579834,0.0884075313806533
2827729878.0,-0.401846319437027,0.5312727093696594,9.444912910461426,1.7676513195037842,-0.6232199668884277,0.0057503962889313
2827738211.0,-0.5004701018333435,0.5878850221633911,9.518681526184082,1.4753159284591677,-0.5894092321395874,-0.0634464547038078
2827746544.0,-0.5028162598609924,0.2277823090553283,9.57892894744873,1.1835825443267822,-0.8196684122085571,-0.0154838059097528
2827754877.0,-0.5425216555595398,0.0063660303130745,9.569466590881348,1.4311567544937134,-0.8742650151252747,-0.0241286065429449
2827763210.0,-0.6072510480880737,0.3017265796661377,9.599165916442873,1.8025633096694944,-0.8987779021263123,-0.0526372492313385
2827771543.0,-0.5648326873779297,0.6205542087554932,9.526602745056152,1.9509594440460205,-1.134159803390503,-0.0823369547724723
2827779876.0,-0.3440233170986175,0.521085798740387,9.454740524291992,1.5444231033325195,-1.407168984413147,-0.0671092867851257
2827788209.0,-0.1735350042581558,0.2491225004196167,9.478200912475586,1.161515712738037,-1.2158820629119873,0.114867016673088
2827796542.0,-0.2700913548469543,0.1654953211545944,9.456287384033203,1.3487046957015991,-0.8042101263999939,0.0027535301633179
2827804875.0,-0.4947549998760223,0.3695659339427948,9.49148654937744,1.5467541217803955,-0.5944551825523376,0.0896114036440849
2827813208.0,-0.5519992709159851,0.407369315624237,9.583616256713867,1.7431126832962036,-0.7412502765655518,-0.0539948046207428
2827821541.0,-0.4812242090702057,0.3326085805892944,9.574569702148438,1.6135815382003784,-0.90571928024292,-0.1307606697082519
2827829874.0,-0.5441884994506836,0.4215260744094848,9.533086776733398,1.5095622539520264,-0.7814391255378723,-0.0643685683608055
2827838207.0,-0.6082920432090759,0.5355119109153748,9.544231414794922,1.194737672805786,-0.9716248512268066,0.0224764924496412
2827846540.0,-0.5358337759971619,0.3573989570140838,9.558837890625,1.1555349826812744,-1.2108232975006104,0.0690815895795822
2827854873.0,-0.3148452937602997,0.1523386687040329,9.511260032653809,1.3935680389404297,-1.418452262878418,-0.0581827349960804
2827863206.0,-0.2086428105831146,0.141272947192192,9.441511154174805,1.5362778902053833,-1.1110687255859375,-0.0738714635372161
2827871539.0,-0.3529553115367889,0.4408756494522095,9.449033737182615,1.7639628648757937,-0.7461683750152588,0.0200687553733587
2827879872.0,-0.4671664834022522,0.5926917195320129,9.456165313720703,1.5209604501724243,-0.6471948623657227,-0.2199494242668151
2827888205.0,-0.5139317512512207,0.3086952567100525,9.558895111083984,1.185670018196106,-0.7752916812896729,-0.0610643327236175
2827896538.0,-0.5096972584724426,-0.0242695622146129,9.608433723449709,1.3437354564666748,-0.8485739827156067,-0.0400350466370582
2827904871.0,-0.5848059058189392,0.1958033889532089,9.570932388305664,1.6765669584274292,-0.8625338077545166,-0.089624211192131
2827913204.0,-0.6053797006607056,0.5615232586860657,9.529078483581545,1.7987979650497437,-1.0941376686096191,-0.1391877382993698
2827921537.0,-0.4411322176456451,0.5414097905158997,9.463018417358398,1.7481330633163452,-1.3532512187957764,-0.0533288344740867
2827929870.0,-0.2122275084257125,0.271444022655487,9.476719856262209,1.270350694656372,-1.2329411506652832,0.0027023013681173
2827938203.0,-0.2382254302501678,0.1294736117124557,9.423176765441896,1.1879242658615112,-0.8612018823623657,0.0827980190515518
2827946536.0,-0.4431400895118713,0.2584966123104095,9.469693183898926,1.443451762199402,-0.4328293204307556,-0.0064035588875412
2827954869.0,-0.5603173971176147,0.3975189328193664,9.548322677612305,1.6207534074783323,-0.7191196084022522,-0.0073512853123247
2827963202.0,-0.5092796683311462,0.3414838016033172,9.573081016540527,1.798132061958313,-0.9323837161064148,-0.0433905124664306
2827971535.0,-0.4971265792846679,0.3691872656345367,9.551166534423828,1.5683213472366333,-0.9774136543273926,-0.0255373939871788
2827979868.0,-0.5974340438842773,0.4998692870140075,9.557765007019045,1.315406322479248,-0.9045154452323914,0.0038805564399808
2827988201.0,-0.5424858927726746,0.3839717507362366,9.54042625427246,1.1999884843826294,-1.1351460218429563,0.0030096725095063
2827996534.0,-0.3445837497711181,0.1441217064857483,9.514291763305664,1.5193212032318115,-1.3233082294464111,-0.0250507220625877
2828004867.0,-0.2193073779344558,0.0937320068478584,9.453015327453612,1.732918381690979,-1.3332722187042236,0.1038529276847839
2828013200.0,-0.3006711602210998,0.3299099206924438,9.438405990600586,1.7694058418273926,-0.8344734311103821,-0.0197101552039384
2828021533.0,-0.4472888708114624,0.5945196747779846,9.494044303894045,1.5897986888885498,-0.6676734089851379,-0.0798523798584938
2828029866.0,-0.5223792791366577,0.4140137135982513,9.570961952209473,1.2522798776626587,-0.6461318731307983,0.0015112396795302
2828038199.0,-0.5053842067718506,0.0726371705532074,9.605594635009766,1.1694178581237793,-0.783039927482605,-0.1223976165056228
2828046532.0,-0.5539152026176453,0.101908341050148,9.594426155090332,1.5837920904159546,-0.8447830677032471,0.003726870752871
2828054865.0,-0.600773811340332,0.4578215777873993,9.577550888061523,1.841855525970459,-1.030998468399048,-0.1019958853721618
2828063198.0,-0.4838300943374634,0.6359385251998901,9.498960494995115,1.7774615287780762,-1.3881124258041382,-0.1133430004119873
2828071531.0,-0.2492394298315048,0.4459509253501892,9.481407165527344,1.3795826435089111,-1.2308534383773804,-0.0419176965951919
2828079864.0,-0.2010378241539001,0.1442371010780334,9.46167278289795,1.0567665100097656,-1.0213035345077517,-0.0010886050295084
2828088197.0,-0.3696660697460174,0.1799083054065704,9.441802978515623,1.427570939064026,-0.6425843238830566,0.0031377435661852
2828096530.0,-0.5541014671325684,0.4133973717689514,9.50730800628662,1.72467041015625,-0.5344922542572021,-0.1169801950454711
2828104863.0,-0.5672449469566345,0.4210962355136871,9.539618492126465,1.8512049913406368,-0.667660653591156,-0.0802750214934349
2828113196.0,-0.486570805311203,0.360420823097229,9.549728393554688,1.6583552360534668,-0.8046199083328247,-0.0494867004454135
2828121529.0,-0.5840939879417419,0.4726670086383819,9.510684967041016,1.3333107233047483,-0.8561815023422241,0.0655596405267715
2828129862.0,-0.5826133489608765,0.4230906665325165,9.545819282531738,1.2294703722000122,-1.0755159854888916,0.0327990241348743
2828138195.0,-0.4816085696220398,0.2310357093811035,9.528072357177734,1.3990366458892822,-1.3321707248687744,0.0346432514488697
2828146528.0,-0.2659378051757812,0.108702927827835,9.51834201812744,1.5250715017318726,-1.3514198064804075,-0.1212449669837951
2828154861.0,-0.2273310422897339,0.274738073348999,9.4478120803833,1.7823024988174438,-0.9276707768440248,-0.0541484914720058
2828163194.0,-0.3859528303146362,0.5900799036026001,9.444555282592772,1.6195755004882812,-0.728853166103363,-0.0736153200268745
2828171527.0,-0.5102123022079468,0.5698455572128296,9.505820274353027,1.3700156211853027,-0.620120644569397,-0.0341437719762325
2828179860.0,-0.4822089076042175,0.148185446858406,9.58530330657959,1.112887263298035,-0.6131919622421265,0.0734360143542289
2828188193.0,-0.5139716863632202,-0.0223062485456466,9.595812797546388,1.410089135169983,-0.9197943806648254,-0.0035475713666528
2828196526.0,-0.6212335824966431,0.3230935335159302,9.564438819885254,1.885258793830872,-0.8622903823852539,-0.0417640097439289
2828204859.0,-0.567535400390625,0.6538545489311218,9.51251983642578,1.97342312335968,-1.2083643674850464,-0.003726870752871
2828213192.0,-0.3395199477672577,0.5943077802658081,9.489542007446287,1.6043349504470823,-1.417312502861023,-0.0611411780118942
2828221525.0,-0.1684208363294601,0.2158942520618438,9.429170608520508,1.0883872509002686,-1.1286911964416504,0.126521497964859
2828229858.0,-0.2530747056007385,0.0807913467288017,9.439427375793455,1.160260796546936,-0.7647641897201538,0.1327969878911972
2828238191.0,-0.5141891837120056,0.3119106590747833,9.493158340454102,1.6766437292099,-0.4739913940429687,0.0157655607908964
2828246524.0,-0.5718992948532104,0.4064119756221771,9.576889038085938,1.880929946899414,-0.6737440228462219,-0.0925570428371429
2828254857.0,-0.499022364616394,0.3673999011516571,9.542222023010254,1.7572516202926636,-0.8813858032226562,-0.0409827753901481
2828263190.0,-0.5272045135498047,0.4455120265483856,9.542421340942385,1.488123059272766,-0.933792531490326,0.0004482491058297
2828271523.0,-0.5957102179527283,0.5319998264312744,9.53262996673584,1.0666919946670532,-1.0036425590515137,0.0541100688278675
2828279856.0,-0.5110747218132019,0.2917279303073883,9.539705276489258,1.13252055644989,-1.239524006843567,0.0432240180671215
2828288189.0,-0.3191145956516266,0.072111390531063,9.535604476928713,1.4734972715377808,-1.4338335990905762,0.0141006354242563
2828296522.0,-0.1916738152503967,0.131072387099266,9.459677696228027,1.7572261095046997,-1.1752322912216189,-0.0893680602312088
2828304855.0,-0.3276748359203338,0.4487192928791046,9.45367431640625,1.7902172803878784,-0.7704761624336243,-0.0379602946341037
2828313188.0,-0.4838755130767822,0.613206148147583,9.507624626159668,1.5192954540252686,-0.6191216111183167,0.0836176574230194
2828321521.0,-0.5187599062919617,0.3680209219455719,9.564709663391112,1.0318182706832886,-0.7592443227767944,-0.0839506462216377
2828329854.0,-0.5183665156364441,-0.0112943677231669,9.583036422729492,1.027092456817627,-0.859229564666748,-0.0468740500509738
2828338187.0,-0.5650010108947754,0.0939974635839462,9.580486297607422,1.5627628564834597,-0.9090492129325868,-0.074178822338581
2828346520.0,-0.6316139698028564,0.5215422511100769,9.550040245056152,1.9848341941833496,-1.082483172416687,-0.0536618195474147
2828354853.0,-0.4477292001247406,0.6101546287536621,9.489901542663574,1.7607355117797852,-1.3239487409591677,-0.1599609106779098
2828363186.0,-0.2326721847057342,0.3430457711219787,9.507790565490724,1.3392786979675293,-1.3071199655532837,0.0113599132746458
2828371519.0,-0.1911168098449707,0.1193451881408691,9.43650245666504,1.144559383392334,-0.9946007132530212,0.1549533009529113
2828379852.0,-0.4104229807853699,0.2124751806259155,9.47456169128418,1.3701694011688232,-0.6634854674339294,0.010181657038629
2828388185.0,-0.5485780239105225,0.3777524828910827,9.55681324005127,1.7917284965515137,-0.6350536942481995,-0.1806059628725052
2828396518.0,-0.5160989165306091,0.3875283300876617,9.586174011230469,1.7564576864242554,-0.8897616863250732,-0.1106278747320175
2828404851.0,-0.4825580418109894,0.3608466684818268,9.518976211547852,1.6889899969100952,-0.9031579494476318,-0.013037646189332
2828413184.0,-0.5957388281822205,0.4895620346069336,9.556970596313477,1.2445443868637085,-0.9265822172164916,0.0265875775367021
2828421517.0,-0.5599603652954102,0.3826914727687835,9.531033515930176,1.1188424825668335,-1.1283327341079712,0.0242182593792676
2828429850.0,-0.4199951589107513,0.1768865138292312,9.550326347351074,1.3579002618789673,-1.3054550886154177,-0.077483057975769
2828438183.0,-0.2503487765789032,0.1060926094651222,9.458658218383787,1.721263766288757,-1.1925476789474487,-0.0741275921463966
2828446516.0,-0.2481836825609207,0.3432589471340179,9.403847694396973,1.7891416549682615,-0.938121497631073,-0.0118337785825133
2828454849.0,-0.41868656873703,0.6240175366401672,9.468192100524902,1.6026442050933838,-0.6686083674430847,0.0426348932087421
2828463182.0,-0.5173222422599792,0.5347179174423218,9.504561424255373,1.312537431716919,-0.7383815050125122,0.0451963171362876
2828471515.0,-0.5122937560081482,0.0811919197440147,9.60557460784912,1.146826148033142,-0.8289663195610046,0.0399838164448738
2828479848.0,-0.4957248270511627,0.0032979981042444,9.557943344116213,1.5318976640701294,-0.8931939601898193,-0.0527397058904171
2828488181.0,-0.612273097038269,0.4103305637836456,9.536667823791504,1.847516298294068,-0.9041056632995604,-0.0486670471727848
2828496514.0,-0.544264018535614,0.6861729621887207,9.522396087646484,1.966596722602844,-1.267520308494568,-0.0987940952181816
2828504847.0,-0.3001582622528076,0.5544995069503784,9.467418670654297,1.4387388229370115,-1.461625099182129,0.0027791445609182
2828513180.0,-0.165287896990776,0.2295132726430893,9.451981544494627,1.014106035232544,-1.173029541969299,0.0902773737907409
2828521513.0,-0.3224143981933594,0.1244308575987815,9.454699516296388,1.1367852687835691,-0.61203932762146,0.1340905129909515
2828529846.0,-0.5389991998672485,0.2978838980197906,9.520781517028809,1.7013360261917114,-0.5956078171730042,-0.0703110769391059
2828538179.0,-0.577613115310669,0.4295778572559356,9.57263469696045,1.890727400779724,-0.6546998023986816,-0.0808641389012336
2828546512.0,-0.4854663014411926,0.3916981518268585,9.563902854919434,1.7261561155319214,-0.8679639101028442,-0.0892912149429321
2828554845.0,-0.5511186122894287,0.4699347913265228,9.501248359680176,1.474239945411682,-0.9450883865356444,0.0643557608127594
2828563178.0,-0.5864472985267639,0.500849187374115,9.514639854431152,1.0229429006576538,-0.9895548224449158,0.1199130266904831
2828571511.0,-0.5189387798309326,0.2672016024589538,9.540590286254885,1.1671380996704102,-1.1283198595046997,0.0297893527895212
2828579844.0,-0.3233346343040466,0.0754096955060958,9.516042709350586,1.561021089553833,-1.224795937538147,-0.0677752643823623
2828588177.0,-0.2129779905080795,0.1893132627010345,9.450340270996094,1.829278945922852,-1.084404230117798,-0.0381652116775512
2828596510.0,-0.3374837636947632,0.5378989577293396,9.433549880981444,1.7825841903686523,-0.7440422773361206,-0.0555828846991062
2828604843.0,-0.5156770348548889,0.6438702940940857,9.488825798034668,1.3532769680023191,-0.5872191190719604,0.0445175394415855
2828613176.0,-0.5104554891586304,0.2820580601692199,9.609071731567385,1.0489412546157837,-0.8150961399078369,0.0822344943881034
2828621509.0,-0.5103195905685425,-0.0814780369400978,9.590503692626951,1.2254488468170166,-0.9001609683036804,0.0363850146532058
2828629842.0,-0.564762532711029,0.1522889286279678,9.556679725646973,1.7715188264846802,-0.847241997718811,-0.1167496815323829
2828638175.0,-0.5823078155517578,0.5617393851280212,9.557337760925291,1.9549680948257449,-1.161426305770874,-0.038472581654787
2828646508.0,-0.4079557061195373,0.6498253345489502,9.496282577514648,1.741563081741333,-1.2960675954818726,-0.0683515816926956
2828654841.0,-0.2121865004301071,0.3681954741477966,9.472267150878906,1.2585042715072632,-1.3382028341293335,0.0591176487505435
2828663174.0,-0.2040276974439621,0.0799330174922943,9.434163093566896,0.9679235219955444,-0.8061824440956116,0.1896349936723709
2828671507.0,-0.4537978172302246,0.1763104200363159,9.496286392211914,1.451340913772583,-0.5039088726043701,0.0394587256014347
2828679840.0,-0.5721664428710938,0.3906871974468231,9.557466506958008,1.7983113527297974,-0.6890740990638733,-0.252402663230896
2828688173.0,-0.5177745819091797,0.3873016238212585,9.58199977874756,1.8523319959640503,-0.9674240350723268,-0.1073748841881752
2828696506.0,-0.4537545442581177,0.4034467041492462,9.536442756652832,1.6559345722198486,-1.0300379991531372,-0.0959381088614463
2828704839.0,-0.5654036402702332,0.5315849781036377,9.54139232635498,1.121301531791687,-0.916631042957306,0.0486286245286464
2828713172.0,-0.5320570468902588,0.3600955903530121,9.528852462768556,1.081215262413025,-1.1586087942123413,0.1149694919586181
2828721505.0,-0.3812496364116668,0.1018755063414573,9.555205345153809,1.4320790767669678,-1.1795355081558228,-0.0150099415332078
2828729838.0,-0.2562509477138519,0.0722570642828941,9.491949081420898,1.6873503923416138,-1.1936744451522827,0.0321074426174163
2828738171.0,-0.3008606433868408,0.3773068785667419,9.411628723144531,1.865523219108581,-0.9427318572998048,-0.0090674385428428
2828746504.0,-0.4435473680496216,0.6668091416358948,9.478564262390137,1.6849170923233032,-0.6550584435462952,-0.1159812435507774
2828754837.0,-0.5359410643577576,0.5216925740242004,9.555089950561523,1.2433021068572998,-0.692711353302002,0.0116672841832041
2828763170.0,-0.483989953994751,0.0401775166392326,9.590838432312012,1.0637463331222534,-0.86811763048172,0.065201036632061
2828771503.0,-0.505346417427063,-0.0361627265810966,9.57384967803955,1.4800288677215576,-0.8743674755096436,-0.0347585156559944
2828779836.0,-0.5888585448265076,0.4120382070541382,9.563737869262695,1.950075626373291,-0.9331778287887572,-0.0759205892682075
2828788169.0,-0.4991341829299927,0.6649508476257324,9.490074157714844,1.9190441370010376,-1.3333617448806765,-0.1051336228847503
2828796502.0,-0.2977529764175415,0.5294661521911621,9.489689826965332,1.5381091833114624,-1.2754480838775637,-0.0815685242414474
2828804835.0,-0.2100217789411544,0.1920609921216964,9.47245979309082,1.2028827667236328,-1.0588668584823608,0.040560133755207
2828813168.0,-0.361404538154602,0.1394518315792083,9.422825813293455,1.140486478805542,-0.5811101794242859,0.0263442397117614
2828821501.0,-0.5737142562866211,0.3474377691745758,9.526994705200195,1.5773119926452637,-0.6250898241996765,-0.0445175468921661
2828829834.0,-0.6073871850967407,0.4083474576473236,9.56721305847168,1.946873903274536,-0.8836142420768738,-0.1654167175292968
2828838167.0,-0.4621137678623199,0.3774106502532959,9.544054985046388,1.7155005931854248,-0.987992227077484,-0.0608850345015525
2828846500.0,-0.5209639072418213,0.5208794474601746,9.513104438781738,1.473702311515808,-0.951517641544342,0.0464770309627056
2828854833.0,-0.5667483806610107,0.5135598182678223,9.533860206604004,1.2090944051742554,-1.0302174091339111,0.0829132795333862
2828863166.0,-0.4885892868041992,0.2376317977905273,9.554931640625,1.1933799982070925,-1.138168454170227,-0.01836540363729
2828871499.0,-0.3039587140083313,0.0678523629903793,9.527873992919922,1.52726149559021,-1.2548925876617432,-0.0452091246843338
2828879832.0,-0.2334376722574234,0.2100272327661514,9.442492485046388,1.827613949775696,-1.0682672262191772,-0.106836974620819
2828888165.0,-0.371459811925888,0.5704735517501831,9.459561347961426,1.8857839107513428,-0.7176084518432617,-0.0346560589969158
2828896498.0,-0.5272002816200256,0.6493995189666748,9.508382797241213,1.3269710540771484,-0.7228977084159851,-0.0126150110736489
2828904831.0,-0.5157199501991272,0.2624163627624511,9.604101181030272,1.159248948097229,-0.8043253421783447,0.0737177655100822
2828913164.0,-0.5076229572296143,-0.0580953918397426,9.619987487792969,1.2681989669799805,-0.8739831447601318,-0.0915452763438224
2828921497.0,-0.5474123358726501,0.2231470197439193,9.568735122680664,1.7783833742141724,-0.916451632976532,-0.0555572733283042
2828929830.0,-0.5664995908737183,0.6135870814323425,9.528582572937012,1.919364333152771,-1.1774606704711914,-0.1773529797792434
2828938163.0,-0.3886577785015106,0.6393575668334961,9.472933769226074,1.6650149822235107,-1.336294651031494,-0.0278426762670278
2828946496.0,-0.1781742572784423,0.3183465898036957,9.491202354431152,1.185977578163147,-1.288319110870361,-0.0078891841694712
2828954829.0,-0.2221529930830001,0.1618259251117706,9.441981315612791,1.0538079738616943,-0.7335404753684998,0.0374352037906646
2828963162.0,-0.5003628134727478,0.2678954303264618,9.522486686706545,1.3860503435134888,-0.4233008623123169,-0.0304809398949146
2828971495.0,-0.6055309176445007,0.3496504127979278,9.583227157592772,1.8449807167053225,-0.710103452205658,-0.097129188477993
2828979828.0,-0.5093087553977966,0.3560008108615875,9.603825569152832,1.8442121744155884,-0.8020073175430298,-0.1024825572967529
2828988161.0,-0.4948224723339081,0.4018288254737854,9.523428916931152,1.7016688585281372,-0.933792531490326,-0.0762023478746414
2828996494.0,-0.5888649225234985,0.5258627533912659,9.527144432067873,1.271708369255066,-0.9937554001808168,0.0614357441663742
2829004827.0,-0.5107201933860779,0.3675631582736969,9.542035102844238,1.119303584098816,-1.2450311183929443,0.0645094588398933
2829013160.0,-0.3461763560771942,0.1026511639356613,9.512310981750488,1.3230136632919312,-1.3097070455551147,0.0083374325186014
2829021493.0,-0.1956505328416824,0.0564727559685707,9.462888717651367,1.6377357244491575,-1.108327865600586,-0.1033278182148933
2829029826.0,-0.3052730560302734,0.3853244483470917,9.441864013671877,1.8443145751953125,-0.7761113047599792,-0.1518155634403228
2829038159.0,-0.4795751869678497,0.6594863533973694,9.466700553894045,1.5876086950302124,-0.5888199806213379,-0.0132169444113969
2829046492.0,-0.5529934167861938,0.4533542990684509,9.5309476852417,1.3587965965270996,-0.7512398958206177,-0.0454652644693851
2829054825.0,-0.5110276937484741,0.0220379084348678,9.597284317016602,1.153908371925354,-0.8936806321144104,-0.0508442558348178
2829063158.0,-0.5500737428665161,0.0649422109127044,9.566457748413086,1.6345338821411133,-1.083225965499878,-0.064906470477581
2829071491.0,-0.6367862224578857,0.4871779978275299,9.532605171203612,1.925204515457153,-1.0483907461166382,-0.0937993302941322
2829079824.0,-0.4759579598903656,0.6013513803482056,9.511109352111816,1.817675828933716,-1.3885475397109983,-0.0811202749609947
2829088157.0,-0.2417411804199218,0.4129706621170044,9.502952575683594,1.478184700012207,-1.3402647972106934,0.0608466193079948
2829096490.0,-0.1916675865650177,0.1868966370820999,9.445765495300291,1.109851956367493,-1.040065884590149,0.035565361380577
2829104823.0,-0.3898370862007141,0.228926733136177,9.460357666015623,1.309848070144653,-0.6903291940689087,0.0751649737358093
2829113156.0,-0.5415387153625488,0.3613741397857666,9.547513008117676,1.6244676113128662,-0.5814943313598633,-0.0488207302987575
2829121489.0,-0.5379833579063416,0.3488713204860687,9.57456874847412,1.8137823343276973,-0.9161698818206788,-0.1398793160915374
2829129822.0,-0.4864287972450256,0.3453884720802307,9.533422470092772,1.7068941593170166,-1.0251585245132446,-0.0330679789185524
2829138155.0,-0.5842369794845581,0.4710361063480377,9.561604499816896,1.3694522380828855,-0.8853816390037537,0.1314650475978851
2829146488.0,-0.5941365957260132,0.4403790831565857,9.534575462341309,1.2190455198287964,-1.132174730300903,0.0256014261394739
2829154821.0,-0.4268960654735565,0.1931763738393783,9.544718742370604,1.334027886390686,-1.3280982971191406,0.0080556767061352
2829163154.0,-0.2570154368877411,0.0590394474565982,9.512755393981934,1.5362521409988403,-1.2782270908355713,-0.0825802907347679
2829171487.0,-0.2597599029541015,0.2743682563304901,9.424795150756836,1.7115046977996826,-1.0669353008270264,-0.0462336912751197
2829179820.0,-0.4023904800415039,0.5979902148246765,9.450611114501951,1.7920359373092651,-0.5953003764152527,-0.0392153933644294
2829188153.0,-0.4988106489181518,0.5311200618743896,9.535619735717772,1.3272143602371216,-0.672860324382782,0.0597452074289321
2829196486.0,-0.4865221083164215,0.1376278698444366,9.592426300048828,1.2363094091415403,-0.7414551973342896,0.0247817691415548
2829204819.0,-0.5261058807373047,0.0158078055828809,9.585946083068848,1.455131769180298,-0.8296706676483154,-0.0096565661951899
2829213152.0,-0.6299220323562622,0.3830399215221405,9.585409164428713,1.7061768770217896,-0.915888249874115,-0.0160088967531919
2829221485.0,-0.5545571446418762,0.6110048294067383,9.50997543334961,1.7514116764068604,-1.1923682689666748,-0.0371150262653827
2829229818.0,-0.3722593188285827,0.4931846857070923,9.47408962249756,1.4496502876281738,-1.4567071199417114,0.0543662123382091
2829238151.0,-0.2080351859331131,0.2193167209625244,9.445219993591309,1.2756272554397583,-1.259400725364685,-0.0507930256426334
2829246484.0,-0.2794830501079559,0.1696940660476684,9.438920974731444,1.3345144987106323,-0.6963998079299927,0.0346176363527774
2829254817.0,-0.5254985690116882,0.3792133629322052,9.517183303833008,1.5935641527175903,-0.5400890111923218,-0.0141006372869014
2829263150.0,-0.5551496744155884,0.3871665596961975,9.541701316833496,1.7091867923736572,-0.7673128843307495,-0.1659162193536758
2829271483.0,-0.4691067934036255,0.3084679543972015,9.52920150756836,1.7576743364334106,-0.9761968851089478,-0.0221691187471151
2829279816.0,-0.5508456826210022,0.447148710489273,9.51986026763916,1.5173488855361938,-0.904489815235138,0.0240645725280046
2829288149.0,-0.5998088121414185,0.5018362998962402,9.539374351501465,1.213640809059143,-0.971778392791748,0.0867426022887229
2829296482.0,-0.5130242109298706,0.3205452263355255,9.532575607299805,1.2988338470458984,-1.3180829286575315,-0.0429806821048259
2829304815.0,-0.3126547336578369,0.104745328426361,9.510143280029297,1.3932222127914429,-1.3704384565353394,0.0571581646800041
2829313148.0,-0.2047232538461685,0.2116790413856506,9.446965217590332,1.7658069133758545,-1.003872990608215,0.0289568901062011
2829321481.0,-0.3631944954395294,0.5084018111228943,9.4745512008667,1.7408329248428345,-0.7669669985771179,-0.0326581485569477
2829329814.0,-0.487208753824234,0.5912754535675049,9.503582000732422,1.5092802047729492,-0.6828755140304565,-0.1511496007442474
2829338147.0,-0.5022869110107422,0.2376818209886551,9.561012268066406,1.1772431135177612,-0.8501620292663574,-0.0229247417300939
2829346480.0,-0.5042325258255005,0.0015950498636811,9.593194007873535,1.342839002609253,-0.8529539704322815,-0.0497428439557552
2829354813.0,-0.5867810845375061,0.2982910871505737,9.583730697631836,1.7336610555648804,-0.7915310263633728,-0.050716184079647
2829363146.0,-0.5680261850357056,0.6464776396751404,9.521796226501465,1.8017693758010864,-1.128921627998352,-0.0826315134763717
2829371479.0,-0.3774369657039642,0.5640993118286133,9.511146545410156,1.613709568977356,-1.3059929609298706,-0.1790947318077087
2829379812.0,-0.2050921767950058,0.2295432984828949,9.47791862487793,1.2472466230392456,-1.1871684789657593,-0.0356293991208076
2829388145.0,-0.2528243958950043,0.1201606020331382,9.448253631591797,1.2944024801254272,-0.8389429450035095,0.0125637808814644
2829396478.0,-0.4994544088840484,0.3138453364372253,9.482918739318848,1.5687565803527832,-0.5271665453910828,-0.0183141771703958
2829404811.0,-0.5707024335861206,0.4089574217796325,9.522048950195312,1.749042272567749,-0.5887302756309509,-0.1112298145890235
2829413144.0,-0.4941217005252838,0.3447609841823578,9.57306671142578,1.822516679763794,-0.8707815408706665,-0.0756388306617736
2829421477.0,-0.526624858379364,0.4246701896190643,9.527756690979004,1.4371763467788696,-1.0020288228988647,0.0872804969549179
2829429810.0,-0.600509762763977,0.5190818309783936,9.546670913696287,1.2232846021652222,-0.9883636236190796,0.0094516519457101
2829438143.0,-0.5251421928405762,0.3294774889945984,9.535006523132324,1.2137049436569214,-1.2905092239379885,0.0237443950027227
2829446476.0,-0.3193741142749786,0.1098331958055496,9.531643867492676,1.4034807682037354,-1.3201192617416382,-0.0392281971871852
2829454809.0,-0.2029122859239578,0.1382957100868225,9.462467193603516,1.749464988708496,-1.1857341527938845,0.0082605900242924
2829463142.0,-0.3158296346664428,0.457570880651474,9.43187141418457,1.7371957302093506,-0.7929142117500305,0.0105146430432796
2829471475.0,-0.4592625796794891,0.6369249224662781,9.501879692077637,1.42539381980896,-0.661590039730072,0.0568251796066761
2829479808.0,-0.5020866394042969,0.3274929225444793,9.568487167358398,1.19939923286438,-0.7049293518066406,0.0080812908709049
2829488141.0,-0.5082881450653076,-0.0334109291434288,9.571534156799316,1.2619236707687378,-0.8018535375595093,-0.054788839071989
2829496474.0,-0.571006715297699,0.146088033914566,9.579731941223145,1.559433102607727,-0.8805150389671326,-0.010245693847537
2829504807.0,-0.6389659643173218,0.5446274876594543,9.541993141174316,1.9396892786026,-1.0005817413330078,-0.0248842295259237
2829513140.0,-0.4819171726703644,0.5876278877258301,9.492277145385742,1.739526629447937,-1.45353102684021,-0.0081965550780296
2829521473.0,-0.2319921255111694,0.3127442300319671,9.500962257385254,1.3680179119110107,-1.4748420715332031,0.012461326085031
2829529806.0,-0.2111304998397827,0.1514900922775268,9.436245918273926,1.081548094749451,-0.9177066683769226,0.094093881547451
2829538139.0,-0.4341060519218445,0.281514436006546,9.480427742004396,1.4805155992507937,-0.4485308527946472,0.0087984893471002
2829546472.0,-0.5349438190460205,0.3660337030887604,9.541824340820312,1.7214174270629885,-0.675652265548706,-0.070387914776802
2829554805.0,-0.4722946882247925,0.3233542144298553,9.556720733642578,1.7701358795166016,-0.9253911972045898,-0.113932117819786
2829563138.0,-0.4533473551273346,0.375375896692276,9.527355194091797,1.570114254951477,-0.8870722651481628,-0.086243137717247
2829571471.0,-0.6034160852432251,0.5257341861724854,9.535340309143066,1.4226784706115725,-0.9092797040939332,0.0645862892270088
2829579804.0,-0.5679929256439209,0.4035848677158355,9.567893028259276,1.229572892189026,-1.020317316055298,0.0544174388051033
2829588137.0,-0.3730446696281433,0.1528366506099701,9.496546745300291,1.3755483627319336,-1.324896216392517,0.0113855265080928
2829596470.0,-0.2364650070667266,0.1126274764537811,9.473114967346191,1.6321518421173096,-1.2400107383728027,0.0679929852485656
2829604803.0,-0.2844141125679016,0.353373110294342,9.446738243103027,1.7165764570236206,-0.8081547617912292,0.0198894552886486
2829613136.0,-0.428954929113388,0.5969911813735962,9.438494682312012,1.7147321701049805,-0.6465032696723938,-0.0769963935017585
2829621469.0,-0.512272298336029,0.4466378092765808,9.571934700012209,1.2422775030136108,-0.7163020372390747,-0.0691071972250938
2829629802.0,-0.5021581649780273,0.054969597607851,9.585753440856934,1.2132822275161743,-0.6876140236854553,-0.025486160069704
2829638135.0,-0.5681792497634888,0.118473969399929,9.577672004699709,1.5455244779586792,-0.7909420132637024,-0.0142415147274732
2829646468.0,-0.6418017148971558,0.5132861137390137,9.561813354492188,1.956581950187683,-1.0312291383743286,-0.042263489216566
2829654801.0,-0.4999999701976776,0.6091265678405762,9.50583839416504,1.812143087387085,-1.3758174180984497,-0.1051720529794693
2829663134.0,-0.2441556751728058,0.3982053697109222,9.491530418395996,1.4010601043701172,-1.4460515975952148,-0.0079147974029183
2829671467.0,-0.1852586269378662,0.1638430207967758,9.451709747314451,1.193738579750061,-1.0015933513641355,0.0284446030855178
2829679800.0,-0.366475909948349,0.2175394147634506,9.451423645019531,1.4291846752166748,-0.5624117255210876,0.0124869393184781
2829688133.0,-0.5374518036842346,0.399135947227478,9.522882461547852,1.6832778453826904,-0.5702753067016602,0.0485517792403698
2829696466.0,-0.5362721085548401,0.3621356189250946,9.558839797973633,1.8000402450561523,-0.7719233632087708,-0.2158127278089523
2829704799.0,-0.4802092611789703,0.365190714597702,9.542330741882324,1.568244457244873,-0.7847688794136047,-0.088138572871685
2829713132.0,-0.609735369682312,0.5102329254150391,9.537887573242188,1.4256370067596436,-0.944025456905365,-0.082413800060749
2829721465.0,-0.5865259766578674,0.4590480029582977,9.541220664978027,1.107418656349182,-1.0653728246688845,0.0804414972662925
2829729798.0,-0.419135183095932,0.2075486481189727,9.537386894226074,1.2826200723648071,-1.3696955442428589,-0.0731030255556106
2829738131.0,-0.2417036890983581,0.1019234731793403,9.494866371154783,1.4747780561447144,-1.2988723516464231,-0.0566843077540397
2829746464.0,-0.2318334728479385,0.2877371609210968,9.411663055419922,1.7372469902038574,-0.9975720047950744,-0.0659822672605514
2829754797.0,-0.4218188226222992,0.6056680679321289,9.44996738433838,1.7839163541793823,-0.6784443259239197,-0.0032273940742015
2829763130.0,-0.4958350360393524,0.5068863034248352,9.548267364501951,1.364905595779419,-0.661526083946228,-0.0039061708375811
2829771463.0,-0.4728315770626068,0.1063127517700195,9.581683158874512,1.2222599983215332,-0.7766363620758057,-0.0753442794084549
2829779796.0,-0.5305120348930359,0.0252853222191333,9.592962265014648,1.4194512367248535,-0.7911725044250488,-0.0177762787789106
2829788129.0,-0.6288454532623291,0.3899955153465271,9.595589637756348,1.849616765975952,-0.921651303768158,-0.1274052113294601
2829796462.0,-0.5321683883666992,0.6031559109687805,9.518943786621094,1.8662787675857544,-1.3390353918075562,0.0032017794437706
2829804795.0,-0.2848995625972748,0.4402207732200622,9.483283042907717,1.407015323638916,-1.4441431760787964,-0.0345407947897911
2829813128.0,-0.1748440563678741,0.1518119126558303,9.446301460266112,1.1064454317092896,-1.1969788074493408,0.1054666191339492
2829821461.0,-0.3115635216236114,0.1586715131998062,9.436080932617188,1.4028533697128296,-0.5789329409599304,0.1271618604660034
2829829794.0,-0.5157268047332764,0.3455017507076263,9.506752014160156,1.7560094594955444,-0.5331218838691711,-0.026779681444168
2829838127.0,-0.5493625402450562,0.371813029050827,9.569320678710938,1.7353259325027466,-0.7638677358627319,-0.2224852442741394
2829846460.0,-0.4692763984203338,0.3105541467666626,9.577804565429688,1.646290898323059,-0.7968075275421143,-0.0813508108258247
2829854793.0,-0.5799954533576965,0.44082972407341,9.5419282913208,1.4687329530715942,-0.7788264751434326,0.0743965506553649
2829863126.0,-0.6134994029998779,0.4753350615501404,9.549689292907717,1.240074634552002,-1.0157068967819214,0.1519308239221573
2829871459.0,-0.4744441509246826,0.2500328123569488,9.551410675048828,1.3053526878356934,-1.2680968046188354,0.0041495058685541
2829879792.0,-0.2657341659069061,0.0823802575469017,9.516472816467283,1.562762975692749,-1.3319658041000366,0.0619224086403846
2829888125.0,-0.2283355444669723,0.2275408059358596,9.41451358795166,1.740397572517395,-1.0588412284851074,0.0114367557689547
2829896458.0,-0.3907219767570495,0.5210167765617371,9.45297622680664,1.723543405532837,-0.7298775911331177,0.0736793428659439
2829904791.0,-0.5131950378417969,0.5586012601852417,9.507137298583984,1.4342049360275269,-0.6015759110450745,-0.0305065531283617
2829913124.0,-0.5040322542190552,0.1817036420106887,9.578293800354004,1.214511752128601,-0.7428896427154541,-0.0406241714954376
2829921457.0,-0.5346249341964722,-0.0583958253264427,9.617420196533203,1.2681351900100708,-0.7207717895507812,0.0417255870997905
2829929790.0,-0.6077885031700134,0.2940366864204407,9.586597442626951,1.8121174573898315,-0.862533688545227,-0.0411364585161209
2829938123.0,-0.5692125558853149,0.6434402465820312,9.521992683410645,1.9289950132369995,-1.2333511114120483,0.0219898205250501
2829946456.0,-0.3361862897872925,0.5716384053230286,9.500904083251951,1.5973165035247805,-1.4143668413162231,-0.0564537681639194
2829954789.0,-0.1538850963115692,0.2598892152309418,9.456964492797852,1.1712236404418943,-1.2211328744888306,0.0114111406728625
2829963122.0,-0.26495561003685,0.1376993805170059,9.4291353225708,1.1698917150497437,-0.7248059511184692,0.1045957207679748
2829971455.0,-0.5068790912628174,0.3105835914611816,9.494647979736328,1.489736795425415,-0.5127201080322266,-0.0985635817050933
2829979788.0,-0.5876389741897583,0.3769841492176056,9.579999923706056,1.7947511672973633,-0.5503730773925781,-0.2102672457695007
2829988121.0,-0.5147653818130493,0.3431533575057983,9.550785064697266,1.8038442134857176,-0.8011876940727234,-0.1260220408439636
2829996454.0,-0.5592027306556702,0.4612806141376495,9.539118766784668,1.583664059638977,-0.9063084721565248,0.0188392698764801
2830004787.0,-0.6365485787391663,0.5461593866348267,9.546422004699709,1.269556760787964,-1.166497826576233,-0.0040726633742451
2830013120.0,-0.490607738494873,0.3642058372497558,9.531794548034668,1.2149728536605835,-1.2381923198699951,0.0167645178735256
2830021453.0,-0.2880094051361084,0.1049363985657692,9.49557113647461,1.294044017791748,-1.253944993019104,-0.0334265790879726
2830029786.0,-0.1822798252105713,0.1116677299141883,9.445486068725586,1.7663447856903076,-1.0477758646011353,0.0378706455230712
2830038119.0,-0.3322550058364868,0.4368681609630584,9.414469718933104,1.7346855401992798,-0.7304154634475708,0.0041366987861692
2830046452.0,-0.4693717956542969,0.626160740852356,9.479461669921877,1.6150672435760498,-0.5321869850158691,-0.0207475312054157
2830054785.0,-0.5209773182868958,0.3455609977245331,9.59328556060791,1.1467365026474,-0.6198388934135437,0.0103865722194314
2830063118.0,-0.5303546786308289,0.0068166591227054,9.608650207519531,1.195044994354248,-0.6452226042747498,-0.0082221692427992
2830071451.0,-0.6020247340202332,0.1530317217111587,9.596583366394045,1.6996196508407593,-0.8617908954620361,-0.0598092339932918
2830079784.0,-0.6320046186447144,0.5276046395301819,9.561518669128418,1.839448094367981,-1.2402669191360474,-0.025230024009943
2830088117.0,-0.412847638130188,0.5808576345443726,9.51519012451172,1.807340383529663,-1.5350995063781738,-0.0961174145340919
2830096450.0,-0.1660565733909607,0.373267263174057,9.469152450561523,1.3319272994995115,-1.3198503255844116,-0.017366450279951
2830104783.0,-0.1924973130226135,0.1412328779697418,9.415752410888672,1.0880030393600464,-0.943090558052063,0.1113066524267196
2830113116.0,-0.411860704421997,0.2250069826841354,9.492938041687012,1.4329756498336792,-0.542842447757721,-0.0695170313119888
2830121449.0,-0.5587201714515686,0.3647966086864471,9.576953887939451,1.693856716156006,-0.5743992328643799,-0.1140602082014083
2830129782.0,-0.5379301905632019,0.3408371806144714,9.586161613464355,1.7584046125411987,-0.7630993723869324,-0.0257935356348752
2830138115.0,-0.5172318816184998,0.3798718452453613,9.558902740478516,1.5951648950576782,-0.867041826248169,-0.1200539171695709
2830146448.0,-0.6196936964988708,0.5253261923789978,9.566733360290527,1.325972318649292,-0.9987630844116212,0.058144312351942
2830154781.0,-0.5495743751525879,0.4213811457157135,9.566362380981444,1.1514365673065186,-1.1449947357177734,-0.0141006354242563
2830163114.0,-0.374126672744751,0.1777451038360595,9.527219772338867,1.2721949815750122,-1.3446192741394043,-0.093363881111145
2830171447.0,-0.2161606848239898,0.0674775540828704,9.49303913116455,1.553234338760376,-1.0991836786270142,-0.0783027186989784
2830179780.0,-0.2727285921573639,0.3147030770778656,9.437922477722168,1.8072763681411743,-0.7434787750244141,0.0061089945957064
2830188113.0,-0.4515942335128784,0.6597219109535217,9.43782901763916,1.7601975202560425,-0.6236554384231567,0.037588894367218
2830196446.0,-0.5363988280296326,0.5225366353988647,9.546348571777344,1.400368571281433,-0.7251390218734741,-0.0270486343652009
2830204779.0,-0.5158201456069946,0.0870143547654151,9.60407829284668,1.0426658391952517,-0.8135849833488464,0.0008068483439274
2830213112.0,-0.5607399940490723,0.0414006486535072,9.571470260620115,1.3805687427520752,-0.8497522473335266,0.0416871644556522
2830221445.0,-0.630976676940918,0.4215103983879089,9.596052169799805,1.8100428581237795,-1.053948998451233,-0.0665201768279075
2830229778.0,-0.5246652960777283,0.6248952746391296,9.526686668395996,1.8336334228515625,-1.3435945510864258,-0.0605264343321323
2830238111.0,-0.2795374393463135,0.4640632271766662,9.472650527954102,1.467657208442688,-1.3397525548934937,-0.0730005726218223
2830246444.0,-0.1811099797487259,0.1987345814704895,9.446194648742676,1.1471974849700928,-1.1259249448776243,0.1074132919311523
2830254777.0,-0.3304470479488373,0.1681848019361496,9.472331047058104,1.2299699783325195,-0.699998676776886,0.0723858326673507
2830263110.0,-0.5158925652503967,0.4051297903060913,9.515899658203123,1.6036559343338013,-0.5805594325065613,-0.0847703143954277
2830271443.0,-0.5589690804481506,0.3863701820373535,9.578389167785645,1.8876538276672363,-0.8133288025856018,-0.1274051964282989
2830279776.0,-0.5149039030075073,0.314059853553772,9.561838150024414,1.675887942314148,-0.9466124773025512,0.0270998589694499
2830288109.0,-0.5969119071960449,0.4486477673053741,9.521721839904783,1.3850771188735962,-0.891990065574646,0.0888173654675483
2830296442.0,-0.5837578177452087,0.4683609902858734,9.526992797851562,1.2380255460739136,-1.0761051177978516,0.0340028963983058
2830304775.0,-0.4887409210205078,0.2597306668758392,9.512665748596191,1.326138615608215,-1.3195428848266602,-0.0787637755274772
2830313108.0,-0.255019336938858,0.0556544810533523,9.506461143493652,1.525135517120361,-1.3044304847717283,-0.0702086240053176
2830321441.0,-0.1827352344989776,0.2008490711450576,9.431109428405762,1.680511713027954,-1.055101752281189,-0.0064804023131728
2830329774.0,-0.3517137467861175,0.5595518946647644,9.477736473083496,1.7698283195495603,-0.7436323761940002,0.0313902422785759
2830338107.0,-0.4835608005523681,0.6042292714118958,9.521464347839355,1.4029172658920288,-0.6658805012702942,-0.0528805926442146
2830346440.0,-0.4901914894580841,0.2143277823925018,9.582613945007324,1.1887950897216797,-0.7824124097824097,0.0084911193698644
2830354773.0,-0.5214565396308899,-0.0265585053712129,9.592241287231444,1.3318250179290771,-0.7491907477378845,-0.0398813635110855
2830363106.0,-0.6033214926719666,0.2289251983165741,9.58051586151123,1.7553563117980957,-0.8564631342887878,-0.0611155591905117
2830371439.0,-0.5979321599006653,0.5678070187568665,9.549622535705566,1.937345623970032,-1.198771834373474,-0.1113707050681114
2830379772.0,-0.3949797451496124,0.5537952184677124,9.518990516662598,1.6234428882598877,-1.4571425914764404,0.0059809242375195
2830388105.0,-0.2062226831912994,0.2768727540969848,9.478460311889648,1.213589787483215,-1.3138822317123413,0.0374864339828491
2830396438.0,-0.2197353392839431,0.1148031279444694,9.46121597290039,1.130958080291748,-0.6673020720481873,0.0578753612935543
2830404771.0,-0.4512084722518921,0.2816145420074463,9.482629776000977,1.4892370700836182,-0.5960559844970703,0.0168285500258207
2830413104.0,-0.5928900837898254,0.3644098341464996,9.576451301574709,1.7769109010696411,-0.6106818318367004,-0.224547192454338
2830421437.0,-0.5139811635017395,0.3135549128055572,9.585521697998049,1.7997713088989258,-0.8811808824539185,-0.065931037068367
2830429770.0,-0.5130367875099182,0.4017484784126282,9.527365684509276,1.6238783597946167,-0.9126864075660706,-0.1248437762260437
2830438103.0,-0.5995889902114868,0.5403461456298828,9.509522438049316,1.403160572052002,-1.0211371183395386,-0.0012550975661724
2830446436.0,-0.5351899862289429,0.3674987554550171,9.52807331085205,1.165716528892517,-1.1137579679489136,-0.0143695846199989
2830454769.0,-0.334929496049881,0.1055845618247985,9.514870643615724,1.30024254322052,-1.3734865188598633,0.0082862041890621
2830463102.0,-0.2310886085033416,0.1045646220445633,9.452799797058104,1.7171909809112549,-1.218443512916565,-0.0363978259265422
2830471435.0,-0.3351747989654541,0.4094007909297943,9.43443775177002,1.8956453800201416,-0.8042101263999939,-0.068287543952465
2830479768.0,-0.5055301785469055,0.6238498687744141,9.507884979248049,1.6909364461898804,-0.6620767712593079,-0.121385857462883
2830488101.0,-0.5231946706771851,0.4527606666088104,9.531972885131836,1.309719800949097,-0.7002675533294678,-0.0046361763961613
2830496434.0,-0.5155482888221741,0.0670936703681945,9.583829879760742,1.208594799041748,-0.8855865597724915,-0.0103737656027078
2830504767.0,-0.5279550552368164,0.0820977687835693,9.577485084533691,1.4810791015625,-0.9383262991905212,0.0392025858163833
2830513100.0,-0.5737277269363403,0.5097034573554993,9.52056121826172,1.834171295166016,-1.1550995111465454,-0.0955154746770858
2830521433.0,-0.4238851368427276,0.6356508731842041,9.468345642089844,1.786721110343933,-1.3680949211120603,-0.0697603747248649
2830529766.0,-0.2496582567691803,0.3951403200626373,9.450115203857422,1.3417503833770752,-1.2275749444961548,-0.0371534451842308
2830538099.0,-0.205150693655014,0.1899008303880691,9.446587562561035,1.1745790243148804,-0.9245713353157043,0.0788278058171272
2830546432.0,-0.4275325834751129,0.2454283535480499,9.43845558166504,1.277586817741394,-0.586501955986023,0.044389471411705
2830554765.0,-0.6252344250679016,0.3689773976802826,9.539555549621582,1.6361219882965088,-0.5458136796951294,-0.0899828001856803
2830563098.0,-0.5720182657241821,0.3473944365978241,9.582786560058594,1.7359662055969238,-0.8354082107543945,-0.1364982575178146
2830571431.0,-0.4918028116226196,0.3530434966087341,9.545994758605955,1.59421706199646,-0.9397093653678894,-0.0454652644693851
2830579764.0,-0.5528861284255981,0.4941756129264831,9.529590606689451,1.217713475227356,-0.9657847285270692,0.0520609319210052
