SampleTimeFine,Acc_X,Acc_Y,Acc_Z,Gyr_X,Gyr_Y,Gyr_Z
3274478340.0,0.0,0.0,0.0,0.0,0.0,0.0
3274486673.0,-0.4008312523365021,0.3489195704460144,9.630410194396973,2.0360114574432373,0.629277765750885,1.320887804031372
3274495006.0,-0.3744824826717376,0.0820003524422645,9.80994987487793,1.8904203176498413,0.1614593565464019,1.2602331638336182
3274503339.0,-0.3758759200572967,0.0720146372914314,10.161202430725098,2.114096641540528,0.0543021820485591,1.339957594871521
3274511672.0,-0.4525204598903656,0.3132675886154175,10.132172584533691,2.259124279022217,0.640407145023346,1.1975423097610474
3274520005.0,-0.4765532910823822,0.3820884227752685,9.710468292236328,2.13297438621521,0.96248060464859,1.2457484006881714
3274528338.0,-0.4846460223197937,0.1966263800859451,9.72406005859375,1.9757026433944704,0.517945408821106,1.2591700553894043
3274536671.0,-0.4852370619773865,0.1056908518075943,10.03392505645752,1.9569787979125977,0.0456701815128326,1.2705941200256348
3274545004.0,-0.4807574450969696,0.2780075073242187,10.113178253173828,2.1555020809173584,0.3105341792106628,1.274116039276123
3274553337.0,-0.4720182418823242,0.3601192533969879,9.810303688049316,2.1261353492736816,0.6032152771949768,1.354660153388977
3274561670.0,-0.431829571723938,0.2386881560087204,9.6370210647583,2.0556833744049072,0.5344794392585754,1.347142457962036
3274570003.0,-0.3739793002605438,0.1040285900235176,9.91217803955078,2.0809903144836426,0.0554676316678524,1.2538297176361084
3274578336.0,-0.4181380271911621,0.2473247647285461,10.133435249328612,2.1024677753448486,0.2185918986797332,1.3019204139709473
3274586669.0,-0.5178841948509216,0.4195343554019928,9.925263404846191,2.1600229740142822,0.942450225353241,1.2675204277038574
3274595002.0,-0.5473420023918152,0.3033380806446075,9.61760139465332,2.060460329055786,0.7483199238777161,1.2266145944595337
3274603335.0,-0.4951386749744415,0.0792200788855552,9.800691604614258,2.015456199645996,0.2027879208326339,1.293032169342041
3274611668.0,-0.4480870962142944,0.1451516896486282,10.14938735961914,2.20154356956482,-0.1191446036100387,1.2557379007339478
3274620001.0,-0.4458598494529724,0.4183791279792785,10.07292366027832,2.27976942062378,0.4390024244785309,1.242930889129639
3274628334.0,-0.4259685277938843,0.4680252373218536,9.709948539733888,2.088533639907837,0.739406168460846,1.3271502256393433
3274636667.0,-0.375112384557724,0.2336059063673019,9.67928981781006,1.9657005071640008,0.3202675879001617,1.2255514860153198
3274645000.0,-0.3768206536769867,0.0726614445447921,10.029603958129885,1.9953234195709229,0.0693889632821083,1.2512298822402954
3274653333.0,-0.4409193098545074,0.2671476006507873,10.150447845458984,2.295778274536133,0.3284769654273987,1.2716954946517944
3274661666.0,-0.5116586089134216,0.4584952890872955,9.86326026916504,2.217437267303467,0.9541430473327636,1.3366917371749878
3274669999.0,-0.52757728099823,0.3571904003620147,9.6541166305542,1.9619354009628296,0.7372417449951172,1.2329028844833374
3274678332.0,-0.4966716468334198,0.1536368131637573,9.891656875610352,1.907120704650879,0.142863392829895,1.1755013465881348
3274686665.0,-0.4386813044548034,0.2024910449981689,10.142147064208984,2.0500738620758057,0.1756752431392669,1.305288791656494
3274694998.0,-0.445456713438034,0.3630702793598175,9.94200038909912,2.1767616271972656,0.6280482411384583,1.2811343669891355
3274703331.0,-0.3965990245342254,0.3645518720149994,9.686064720153809,2.0479736328125,0.6177513599395752,1.3013185262680054
3274711664.0,-0.3323995172977447,0.1675696223974228,9.805753707885742,1.956274390220642,0.0929668694734573,1.1535497903823853
3274719997.0,-0.34814453125,0.1838007718324661,10.13583755493164,2.068669557571411,-0.0158295966684818,1.16574227809906
3274728330.0,-0.4162507653236389,0.3968890905380249,10.050285339355469,2.194371461868286,0.5477091670036316,1.2614754438400269
3274736663.0,-0.4970653355121612,0.4017563462257385,9.731925964355469,1.9900213479995728,1.1148083209991455,1.2660092115402222
3274744996.0,-0.5130457878112793,0.1765736937522888,9.693140983581545,1.9417897462844849,0.6118215918540955,1.1826860904693604
3274753329.0,-0.4595482945442199,0.0327425226569175,10.048215866088867,2.033693552017212,-0.0255501996725797,1.2461838722229004
3274761662.0,-0.4643952548503876,0.284423828125,10.138209342956545,2.2689731121063232,0.2077698856592178,1.1685855388641355
3274769995.0,-0.4681245982646942,0.5059102773666382,9.851154327392578,2.2253518104553223,0.703302800655365,1.2729634046554563
3274778328.0,-0.4171393811702728,0.381216436624527,9.640131950378418,2.028378486633301,0.6234120726585388,1.2613859176635742
3274786661.0,-0.3767771124839782,0.0812554284930229,9.872982025146484,1.7306896448135376,0.094759851694107,1.2969895601272583
3274794994.0,-0.371101975440979,0.1137655302882194,10.130834579467772,1.99190366268158,0.1837437152862548,1.1372079849243164
3274803327.0,-0.4767879247665405,0.3686736524105072,10.031005859375,2.1640567779541016,0.8245862722396851,1.2700178623199463
3274811660.0,-0.5059261918067932,0.4145449995994568,9.669164657592772,2.0201690196990967,1.0591485500335691,1.2075318098068235
3274819993.0,-0.5192533135414124,0.2214908450841903,9.73727321624756,1.9144593477249143,0.2763263881206512,1.3254599571228027
3274828326.0,-0.4864667952060699,0.1282083988189697,10.118552207946776,2.0309271812438965,-0.0403552278876304,1.2497698068618774
3274836659.0,-0.4884663820266723,0.2917834222316742,10.112220764160156,2.0526864528656006,0.3479053378105163,1.2976555824279783
3274844992.0,-0.4856862425804138,0.3726013898849487,9.75990390777588,2.135727643966675,0.8567320704460144,1.2802122831344604
3274853325.0,-0.3894735872745514,0.1878707706928253,9.652241706848145,1.8145381212234497,0.3690242767333984,1.2952349185943604
3274861658.0,-0.3428045809268951,0.0986540392041206,10.004236221313477,1.904533624649048,0.033874824643135,1.1378737688064575
3274869991.0,-0.3852310478687286,0.2750618159770965,10.201104164123535,2.117772340774536,0.2826915383338928,1.307312250137329
3274878324.0,-0.4708389937877655,0.4430106580257416,9.88137912750244,2.1681296825408936,1.047404408454895,1.2767800092697144
3274886657.0,-0.5180445909500122,0.2884394228458404,9.619902610778809,1.930353045463562,0.9719448685646056,1.2121295928955078
3274894990.0,-0.4926114082336426,0.0268034543842077,9.8551025390625,1.9337852001190183,0.0798523798584938,1.2193784713745115
3274903323.0,-0.4584296643733978,0.1486307233572006,10.191006660461426,2.1666057109832764,0.0024333524052053,1.214294195175171
3274911656.0,-0.4601833522319793,0.4086841344833374,10.02451229095459,2.295137882232666,0.622041642665863,1.2878581285476685
3274919989.0,-0.443068116903305,0.4245796799659729,9.595477104187012,2.052955389022827,0.8131238222122192,1.3114231824874878
3274928322.0,-0.360823780298233,0.1788856089115142,9.708918571472168,1.8492835760116573,0.2783114910125732,1.2036257982254028
3274936655.0,-0.3603415191173553,0.0940495654940605,10.133184432983398,1.972577810287476,-0.0228863190859556,1.2411121129989624
3274944988.0,-0.4314671456813812,0.2322780191898346,10.114130973815918,2.1614060401916504,0.574885904788971,1.3062492609024048
3274953321.0,-0.4776890277862549,0.4315879046916961,9.771676063537598,2.082859754562378,0.9643630385398864,1.295913815498352
3274961654.0,-0.4872666895389557,0.266024112701416,9.661067962646484,2.057809352874756,0.617520809173584,1.258542776107788
3274969987.0,-0.4768024682998657,0.1590002328157425,9.987242698669434,1.942122459411621,0.1307606697082519,1.2089406251907349
3274978320.0,-0.4561071991920471,0.2535979449748993,10.110589981079102,2.065301418304444,0.1891355067491531,1.3380107879638672
3274986653.0,-0.4682784378528595,0.3552093803882599,9.926146507263184,2.066248893737793,0.8032879829406738,1.2899327278137207
3274994986.0,-0.4360093474388122,0.3269915580749511,9.665094375610352,2.042556047439575,0.6252691149711609,1.234273076057434
3275003319.0,-0.3546675443649292,0.1381355226039886,9.85195255279541,1.9007554054260247,0.0835280194878578,1.259810447692871
3275011652.0,-0.3348053395748138,0.2093259990215301,10.096007347106934,2.0276355743408203,0.0197357647120952,1.2858729362487793
3275019985.0,-0.4281066656112671,0.4257314503192901,10.023393630981444,2.172471523284912,0.6616413593292236,1.3249220848083496
3275028318.0,-0.4809618294239044,0.3549076020717621,9.725750923156738,2.0187604427337646,0.9970598220825196,1.380786657333374
3275036651.0,-0.5146750807762146,0.1438138037919998,9.777860641479492,1.910719394683838,0.5128993988037109,1.277305006980896
3275044984.0,-0.4694803059101105,0.0907279327511787,10.063390731811523,1.9499090909957888,0.0511260107159614,1.1827117204666138
3275053317.0,-0.4629922211170196,0.3225810825824737,10.128687858581545,2.2073707580566406,0.2048498690128326,1.1769102811813354
3275061650.0,-0.4628140926361084,0.5197716355323792,9.884044647216797,2.0947062969207764,0.6906366348266602,1.2685961723327637
3275069983.0,-0.4115451574325561,0.3313722312450409,9.631049156188965,1.9768552780151367,0.4864399433135986,1.249539136886597
3275078316.0,-0.3821457326412201,0.0797761604189872,9.94881534576416,1.862872004508972,0.1438239067792892,1.1767947673797607
3275086649.0,-0.3976200819015503,0.174883559346199,10.159187316894531,1.991224765777588,0.2330894917249679,1.25251042842865
3275094982.0,-0.4736838936805725,0.3721998333930969,9.981160163879396,2.2094712257385254,0.8340891599655151,1.3249090909957886
3275103315.0,-0.5003225803375244,0.4086658358573913,9.73908805847168,2.0692715644836426,0.7707836031913757,1.243699073791504
3275111648.0,-0.5067447423934937,0.1875842213630676,9.853578567504885,1.8612840175628664,0.3153624236583709,1.1881930828094482
3275119981.0,-0.5059316158294678,0.165433645248413,10.136396408081056,2.0170955657958984,0.0652394592761993,1.2714649438858032
3275128314.0,-0.5163829326629639,0.3572015166282654,9.997653007507324,2.034769296646118,0.502115786075592,1.219263195991516
3275136647.0,-0.4853713512420654,0.3007901310920715,9.70319652557373,1.9688124656677248,0.8550032377243042,1.2958754301071167
3275144980.0,-0.3755107820034027,0.1228864192962646,9.793188095092772,1.7411787509918213,0.4970185756683349,1.2722846269607544
3275153313.0,-0.3707127869129181,0.103750541806221,10.093982696533203,1.946630597114563,0.3122375309467315,1.2142940759658811
3275161646.0,-0.4522561132907867,0.334653228521347,9.999135971069336,2.22011399269104,0.515921950340271,1.2347086668014526
3275169979.0,-0.513714075088501,0.3777718544006347,9.752906799316406,2.042184829711914,0.6941329836845398,1.2684298753738403
3275178312.0,-0.4822669625282287,0.164325550198555,9.728002548217772,1.848937749862671,0.5011937022209167,1.2511016130447388
3275186645.0,-0.4775963425636291,0.0125105557963252,10.10438632965088,1.9823111295700075,0.1432604044675827,1.221337914466858
3275194978.0,-0.4717447459697723,0.2043265998363495,10.122085571289062,2.323979616165161,0.3948690593242645,1.254252314567566
3275203311.0,-0.4619457125663757,0.4207099676132202,9.778778076171877,2.1931676864624023,0.6555707454681396,1.2708759307861328
3275211644.0,-0.4141325950622558,0.3718019723892212,9.644487380981444,1.915458083152771,0.3794748783111572,1.3262794017791748
3275219977.0,-0.3449021577835083,0.1500971764326095,9.935989379882812,1.9235776662826536,0.0726675912737846,1.2324801683425903
3275228310.0,-0.3389506042003631,0.0697253197431564,10.15444564819336,2.0645713806152344,0.3100730776786804,1.310078263282776
3275236643.0,-0.4652717411518097,0.2779638767242431,9.915315628051758,2.223456382751465,0.8273782134056091,1.3122044801712036
3275244976.0,-0.4968606531620025,0.3031390011310577,9.6243314743042,2.040186643600464,0.9863402843475342,1.2350032329559326
3275253309.0,-0.4472858011722564,0.1826763898134231,9.754640579223633,1.8934426307678225,0.2724713981151581,1.2583889961242676
3275261642.0,-0.4562325179576874,0.133302703499794,10.0635347366333,2.0805673599243164,0.0579137802124023,1.1398333311080933
3275269975.0,-0.4736965894699096,0.2570538520812988,9.95557975769043,2.215503454208374,0.5112089514732361,1.3452852964401243
3275278308.0,-0.4772257506847381,0.3444456458091736,9.68826961517334,2.237223863601685,0.7086178064346313,1.290188908576965
3275286641.0,-0.4088003635406494,0.2265581637620926,9.66822910308838,2.044886827468872,0.4495298564434051,1.1933928728103638
3275294974.0,-0.3614029884338379,0.1420388370752334,10.051068305969238,2.0246005058288574,-0.0720144286751747,1.2347344160079956
3275303307.0,-0.368045300245285,0.2851342558860779,10.14154815673828,2.167271852493286,0.3109055757522583,1.2395496368408203
3275311640.0,-0.4318961203098297,0.4463940560817718,9.86791706085205,2.193526268005371,0.9744935035705566,1.1348642110824585
3275319973.0,-0.5006248950958252,0.3234624862670898,9.763827323913574,1.8900104761123653,0.874815821647644,1.17877995967865
3275328306.0,-0.4890673160552978,0.1115633994340896,10.015798568725586,1.911948800086975,0.291387528181076,1.3283543586730957
3275336639.0,-0.4997116923332214,0.1240748465061187,10.19405746459961,2.0719099044799805,0.1794533431529998,1.2899839878082275
3275344972.0,-0.4995144307613373,0.390887588262558,10.077707290649414,2.26283860206604,0.5975289344787598,1.2313786745071411
3275353305.0,-0.4861702620983124,0.5151010155677795,9.811184883117676,2.0499839782714844,0.7643800377845764,1.2862956523895264
3275361638.0,-0.4256302118301391,0.3006620109081268,9.814263343811035,1.8523188829422,0.3801152408123016,1.1752578020095823
3275369971.0,-0.3939190804958343,0.0970546752214431,10.081759452819824,1.956825256347656,0.0489231906831264,1.345976948738098
3275378304.0,-0.4276066720485687,0.2415908426046371,10.114986419677734,1.987869381904602,0.4583667516708374,1.2512810230255127
3275386637.0,-0.4821786284446716,0.4113911688327789,9.819992065429688,2.157294988632202,0.9282215237617492,1.3524190187454224
3275394970.0,-0.4962963163852691,0.3535411953926086,9.678396224975586,1.9468101263046265,0.668890118598938,1.219160795211792
3275403303.0,-0.4795503914356231,0.1714217513799667,9.925246238708496,1.8844903707504272,0.1366519480943679,1.1795098781585691
3275411636.0,-0.5378173589706421,0.2018198072910308,10.087854385375977,2.052699089050293,0.1647763848304748,1.20043683052063
3275419969.0,-0.5518867373466492,0.3584891259670257,9.861407279968262,2.1988799571990967,0.7163277864456177,1.362754225730896
3275428302.0,-0.4937732219696045,0.3395881354808807,9.585537910461426,2.090864419937134,0.5816224217414856,1.1753346920013428
3275436635.0,-0.4140806198120117,0.1839555501937866,9.789774894714355,1.882992029190064,0.0344895683228969,1.216868281364441
3275444968.0,-0.3613187968730926,0.263803482055664,10.143712043762209,2.016826629638672,-0.0936200395226478,1.23387610912323
3275453301.0,-0.4265550971031189,0.4618964195251465,9.980399131774902,2.0281219482421875,0.4613507390022278,1.334872841835022
3275461634.0,-0.4586525559425354,0.4786727130413055,9.644119262695312,1.9379987716674805,0.9155295491218568,1.3033547401428225
3275469967.0,-0.4598728120326996,0.2180404961109161,9.717721939086914,1.7881168127059937,0.4096868336200714,1.367505431175232
3275478300.0,-0.4461043775081634,0.1362261176109314,10.118780136108398,1.7435482740402222,-0.0448249131441116,1.3226295709609983
3275486633.0,-0.4932203292846679,0.3377262055873871,10.162567138671877,1.9234882593154907,0.337941437959671,1.2312122583389282
3275494966.0,-0.4732404947280884,0.4865633547306061,9.779623985290527,2.07625150680542,0.7212584614753723,1.271657109260559
3275503299.0,-0.4073835611343384,0.3730882108211517,9.630295753479004,1.618166446685791,0.4370172917842865,1.1597743034362793
3275511632.0,-0.3802823424339294,0.1654311418533325,10.002447128295898,1.4859073162078855,-0.0701701864600181,1.2483097314834597
3275519965.0,-0.3738208711147308,0.166061669588089,10.205896377563477,1.7172168493270874,0.144144132733345,1.2607455253601074
3275528298.0,-0.4434100389480591,0.3574749529361725,9.987601280212402,1.9040215015411377,0.822281002998352,1.2834910154342651
3275536631.0,-0.4455485939979553,0.3907926082611084,9.710697174072266,1.7498235702514648,0.8853175640106201,1.2541369199752808
3275544964.0,-0.4320495128631592,0.2108837068080902,9.871088981628418,1.5534651279449463,0.2562320232391357,1.3228857517242432
3275553297.0,-0.4436401724815368,0.1696087718009948,10.200576782226562,1.6797558069229126,0.0825802981853485,1.3041232824325562
3275561630.0,-0.4684848487377167,0.3074006140232086,10.031603813171388,1.8609892129898071,0.5851187109947205,1.2556993961334229
3275569963.0,-0.4631214737892151,0.3166273236274719,9.734504699707031,1.8357208967208865,0.7332074642181396,1.1698530912399292
3275578296.0,-0.3782477676868438,0.1323106586933136,9.721233367919922,1.672558307647705,0.27655690908432,1.1944431066513062
3275586629.0,-0.353762686252594,0.0685386434197425,10.11030101776123,1.7670619487762451,0.055749375373125,1.0679470300674438
3275594962.0,-0.4188098907470703,0.2416177541017532,10.109830856323242,1.9660334587097168,0.4487998485565185,1.277010440826416
3275603295.0,-0.4900100827217102,0.3466541171073913,9.709467887878418,2.005364179611206,0.9252119064331056,1.2631915807724
3275611628.0,-0.4950064122676849,0.1595179140567779,9.531248092651367,1.7142581939697266,0.7189660668373108,1.2202365398406982
3275619961.0,-0.5024874210357666,-0.0529583394527435,9.912559509277344,1.774067521095276,0.0516639091074466,1.234452486038208
3275628294.0,-0.4816669821739197,0.069327563047409,10.131708145141602,1.946489930152893,0.084258034825325,1.2292656898498535
3275636627.0,-0.4953922629356384,0.3075559437274933,9.843409538269045,2.127159833908081,0.6185325384140015,1.2239251136779783
3275644960.0,-0.4602257013320923,0.3088870048522949,9.517919540405272,1.932568311691284,0.6432247161865234,1.3198245763778689
3275653293.0,-0.3819140195846557,0.1157724633812904,9.78542709350586,1.82890784740448,0.0561720170080661,1.345233917236328
3275661626.0,-0.3712269365787506,0.0519046410918235,10.167684555053713,1.8954788446426392,0.0861406624317169,1.206276774406433
3275669959.0,-0.440727949142456,0.2324418276548385,9.982345581054688,2.1041839122772217,0.6393313407897949,1.2859370708465576
3275678292.0,-0.481835663318634,0.3275649547576904,9.64718532562256,2.075239896774292,0.9552317261695862,1.2692879438400269
3275686625.0,-0.4562561810016632,0.2185053527355194,9.740068435668944,1.815332174301148,0.3304236531257629,1.365520715713501
3275694958.0,-0.4612942039966583,0.1325820833444595,10.121731758117676,1.80201268196106,0.0696963295340538,1.3443630933761597
3275703291.0,-0.4848529696464538,0.2375734746456146,10.16477870941162,2.02115535736084,0.348033457994461,1.217841625213623
3275711624.0,-0.4957135021686554,0.3393044471740722,9.775768280029297,2.043926239013672,0.7357048392295837,1.3151756525039673
3275719957.0,-0.4068959951400757,0.2539894580841064,9.64175033569336,1.787015438079834,0.4718526303768158,1.2424312829971311
3275728290.0,-0.321161150932312,0.1127808913588523,10.027956008911133,1.883120059967041,-0.0577600970864295,1.199937105178833
3275736623.0,-0.3343818783760071,0.2285738587379455,10.291459083557127,1.9489872455596924,0.1163654774427414,1.195185899734497
3275744956.0,-0.4088682532310486,0.4319069385528564,9.96867561340332,2.0378429889678955,0.8234207630157471,1.2220807075500488
3275753289.0,-0.4664360284805298,0.40556401014328,9.66609001159668,1.8377059698104856,0.9282726645469666,1.243276596069336
3275761622.0,-0.471261978149414,0.1672928482294082,9.913125038146973,1.6725070476531982,0.3571648597717285,1.17251718044281
3275769955.0,-0.4505963027477264,0.1377303600311279,10.310847282409668,1.8019357919692995,0.1330659538507461,1.2311993837356567
3275778288.0,-0.4843735694885254,0.395228236913681,10.20620346069336,2.046987295150757,0.4142590165138244,1.1195982694625854
3275786621.0,-0.4706212282180786,0.5620501637458801,9.769444465637209,1.9610003232955933,0.8519039154052734,1.1973375082015991
3275794954.0,-0.3979476392269134,0.4308871924877167,9.75914192199707,1.5716893672943115,0.4348272383213043,1.2330180406570437
3275803287.0,-0.3832910656929016,0.2479327768087387,10.214451789855955,1.470999836921692,0.1225641071796417,1.2984367609024048
3275811620.0,-0.4035261571407318,0.3545591235160827,10.351189613342283,1.6921403408050537,0.4086110591888428,1.2315452098846436
3275819953.0,-0.5079776048660278,0.5477414131164551,9.96328353881836,1.6808573007583618,0.9727004766464232,1.21339750289917
3275828286.0,-0.5161022543907166,0.5273892879486084,9.714598655700684,1.336896538734436,0.8095507621765137,1.2728354930877686
3275836619.0,-0.5209994316101074,0.3773767054080963,10.075647354125977,1.2834653854370115,0.0084398910403251,1.2582608461380005
3275844952.0,-0.5138001441955566,0.4095565974712372,10.353017807006836,1.2944921255111694,0.0863199681043624,1.2612961530685425
3275853285.0,-0.5183589458465576,0.498164564371109,10.079936027526855,1.3813756704330444,0.5364901423454285,1.1969019174575806
3275861618.0,-0.5538265705108643,0.4265962243080139,9.782050132751465,1.050157904624939,0.7834370136260986,1.203100562095642
3275869951.0,-0.4461228251457214,0.2559930980205536,9.901158332824709,0.9844831228256226,0.3882605731487274,1.2689034938812256
3275878284.0,-0.4151071310043335,0.274588942527771,10.205666542053224,1.2060976028442385,-0.1172491759061813,1.2485404014587402
3275886617.0,-0.4405093491077423,0.3896712958812713,10.109182357788086,1.280634880065918,0.260957807302475,1.2946970462799072
3275894950.0,-0.5176476240158081,0.3812199831008911,9.784780502319336,1.1603505611419678,0.8263152241706848,1.3164435625076294
3275903283.0,-0.5683369636535645,0.1585501730442047,9.760296821594238,0.8968055844306946,0.6268059611320496,1.388163447380066
3275911616.0,-0.5317385196685791,0.0675453320145607,10.03172492980957,1.0437288284301758,0.0758693590760231,1.3273040056228638
3275919949.0,-0.5195673108100891,0.2038872689008712,10.029603958129885,1.394912838935852,0.1258043050765991,1.216970682144165
3275928282.0,-0.5362120866775513,0.3399920165538788,9.79410171508789,1.3862040042877195,0.3511583805084228,1.3037006855010986
3275936615.0,-0.5006629228591919,0.258318156003952,9.666302680969238,1.2285484075546265,0.3420653045177459,1.3791089057922363
3275944948.0,-0.4390255510807037,0.1380856335163116,9.852953910827637,1.1295620203018188,0.0801725462079048,1.4695911407470703
3275953281.0,-0.4203469455242157,0.086968682706356,9.993207931518556,1.364931344985962,-0.1145084425806999,1.4264311790466309
3275961614.0,-0.483482152223587,0.2174211144447326,9.822084426879885,1.5530295372009275,0.2859701514244079,1.4536463022232056
3275969947.0,-0.5269321799278259,0.2271658629179,9.68967056274414,1.4951924085617063,0.5557392239570618,1.39865243434906
3275978280.0,-0.5019127130508423,0.1499135941267013,9.820985794067385,1.2558531761169434,0.1943223923444748,1.4216541051864624
3275986613.0,-0.509628176689148,0.140445202589035,10.019867897033691,1.298526406288147,-0.0096565671265125,1.2892541885375977
3275994946.0,-0.5118998289108276,0.2148833870887756,9.839064598083496,1.4909533262252808,-0.0521633848547935,1.414571762084961
3276003279.0,-0.5105928778648376,0.1638419181108474,9.610390663146973,1.4473322629928589,0.314132958650589,1.376022219657898
3276011612.0,-0.4063150584697723,0.0654200315475463,9.755289077758787,1.2691341638565063,0.1240753605961799,1.4121896028518677
3276019945.0,-0.3585782647132873,0.0590401887893676,9.942960739135742,1.3259849548339844,-0.2183613628149032,1.2131543159484863
3276028278.0,-0.361731618642807,0.1508601307868957,9.857056617736816,1.5275816917419434,0.0681594833731651,1.3067870140075684
3276036611.0,-0.4129672944545746,0.17118801176548,9.626434326171877,1.429709792137146,0.3124936521053314,1.2360148429870603
3276044944.0,-0.4319506287574768,0.0394554920494556,9.657475471496582,1.2919819355010986,0.4507592916488647,1.2908037900924685
3276053277.0,-0.4078479409217834,-0.12920543551445,9.920098304748535,1.380479097366333,0.0256142355501651,1.2021528482437134
3276061610.0,-0.3821597993373871,-0.1064077690243721,9.981019020080566,1.7001960277557373,0.1134710535407066,1.1933414936065674
3276069943.0,-0.4168306291103363,0.1154826208949089,9.723278999328612,1.888588786125183,0.1506629288196563,1.1173185110092163
3276078276.0,-0.3857977390289306,0.0744658708572387,9.61287784576416,1.767766356468201,0.2756091654300689,1.161144495010376
3276086609.0,-0.290759801864624,-0.0772600173950195,9.81046199798584,1.6503252983093262,0.1665437668561935,1.0465209484100342
3276094942.0,-0.2673148810863495,-0.2044341564178466,10.02966594696045,1.8344528675079343,-0.0156502965837717,1.071635603904724
3276103275.0,-0.3476669192314148,-0.0803243964910507,9.845876693725586,2.136406421661377,0.3787064552307129,1.141626477241516
3276111608.0,-0.3998312652111053,0.0188004579395055,9.586913108825684,2.1494572162628174,0.6523817181587219,1.0904364585876465
3276119941.0,-0.3807618916034698,-0.0084135765209794,9.79429531097412,1.9638304710388184,0.461453229188919,1.1418185234069824
3276128274.0,-0.3578680157661438,-0.1537849158048629,10.062865257263184,2.092644691467285,0.2110484838485717,1.1974527835845947
3276136607.0,-0.3801015019416809,-0.051140084862709,10.036160469055176,2.2344963550567627,0.3607636988162994,1.2196859121322632
3276144940.0,-0.4077982008457184,0.0805909857153892,9.6282320022583,2.377116203308105,0.6297131776809692,1.3075683116912842
3276153273.0,-0.3624616265296936,0.0496450252830982,9.645047187805176,2.193974494934082,0.4632974565029144,1.1511164903640747
3276161606.0,-0.2827400863170624,-0.0264265220612287,9.998138427734377,2.3527188301086426,0.1121135130524635,1.2338377237319946
3276169939.0,-0.2676319777965545,0.0397284403443336,10.150304794311523,2.5499870777130127,0.2078723460435867,1.3228600025177002
3276178272.0,-0.3349173069000244,0.2409126907587051,9.860416412353516,2.5878703594207764,0.7168272137641907,1.3365380764007568
3276186605.0,-0.4292449951171875,0.3296680450439453,9.602520942687988,2.4147565364837646,0.8322321772575378,1.3713606595993042
3276194938.0,-0.4407326877117157,0.142163410782814,9.85068416595459,2.218180179595948,0.5374507308006287,1.3018563985824585
3276203271.0,-0.4207082092761993,0.0846858248114585,10.213827133178713,2.4066238403320312,0.3402722775936126,1.3490376472473145
3276211604.0,-0.4524605274200439,0.2688228189945221,10.02137565612793,2.606388807296753,0.5331987142562866,1.3956300020217896
3276219937.0,-0.4719837009906769,0.5001461505889893,9.673832893371582,2.561244010925293,0.7810035943984985,1.4495095014572144
3276228270.0,-0.4275334775447845,0.4497947692871094,9.71015167236328,2.2505438327789307,0.4872852265834808,1.3503825664520264
3276236603.0,-0.3397497832775116,0.1965229362249374,10.032188415527344,2.1283509731292725,0.1593077331781387,1.264331579208374
3276244936.0,-0.3808324635028839,0.2102135270833969,10.19920253753662,2.232344627380371,0.3743904531002044,1.3533921241760254
3276253269.0,-0.4723828732967376,0.3970723748207092,9.846355438232422,2.459939956665039,0.9048996567726136,1.351970672607422
3276261602.0,-0.5073676705360413,0.4400010108947754,9.632890701293944,2.242680072784424,0.7733194231987,1.2338377237319946
3276269935.0,-0.4703150689601898,0.2974454760551452,9.88102912902832,2.052212238311768,0.3250446617603302,1.287832498550415
3276278268.0,-0.4988638460636139,0.2536678612232208,10.232236862182615,2.277387380599976,0.2278130054473877,1.201973557472229
3276286601.0,-0.5418318510055542,0.3434982895851135,10.02000617980957,2.4454166889190674,0.6508577466011047,1.202255368232727
3276294934.0,-0.5326457619667053,0.4281730949878692,9.632184982299805,2.281191110610962,0.853402316570282,1.315226912498474
3276303267.0,-0.4526925384998321,0.2966415286064148,9.714502334594728,2.075303792953491,0.258819043636322,1.1774479150772097
3276311600.0,-0.365963727235794,0.2232687920331955,10.168299674987791,2.087944269180298,-0.0396124124526977,1.235733151435852
3276319933.0,-0.3888516426086426,0.3556174039840698,10.177118301391602,2.3088159561157227,0.3133645355701446,1.2741289138793943
3276328266.0,-0.4752758741378784,0.4638665616512298,9.753384590148926,2.234791040420532,0.927107274532318,1.2375774383544922
3276336599.0,-0.5263223052024841,0.3027740120887756,9.62578582763672,1.948103427886963,0.7666724920272827,1.2889978885650637
3276344932.0,-0.5134293437004089,0.1325392872095108,9.99594497680664,1.8541502952575684,0.2656067907810211,1.2705812454223633
3276353265.0,-0.4820346534252167,0.1977150738239288,10.24913215637207,2.2008776664733887,0.1631370484828949,1.2474645376205444
3276361598.0,-0.498222291469574,0.4058931469917297,9.93436050415039,2.231051206588745,0.6427892446517944,1.235169768333435
3276369931.0,-0.4735768139362335,0.4135160744190216,9.621746063232422,1.9996778964996336,0.6285989880561829,1.175001859664917
3276378264.0,-0.3909555077552795,0.2022511661052703,9.80167007446289,1.7489142417907717,0.1815537065267563,1.2807117700576782
3276386597.0,-0.3605363070964813,0.0788820907473564,10.146278381347656,1.842214107513428,0.119708128273487,1.2835934162139893
3276394930.0,-0.4142890274524688,0.1900997906923294,10.07076644897461,2.0729470252990723,0.4342765212059021,1.348320484161377
3276403263.0,-0.4981429874897003,0.3032445609569549,9.767888069152832,2.13930082321167,0.946369171142578,1.340546488761902
3276411596.0,-0.4905713200569153,0.2140189707279205,9.71910285949707,1.8202245235443115,0.5031660795211792,1.2676997184753418
3276419929.0,-0.4389257133007049,0.0898514315485954,9.9683198928833,1.7380921840667725,0.125548169016838,1.2938389778137207
3276428262.0,-0.418063223361969,0.1430275291204452,10.140267372131348,1.9658924341201784,0.1592180728912353,1.250666260719299
3276436595.0,-0.4452435076236725,0.2629674971103668,9.833967208862305,2.134972333908081,0.7247036099433899,1.2310457229614258
3276444928.0,-0.4291959702968597,0.2143674045801162,9.629240036010742,1.9768298864364624,0.5642048120498657,1.3153423070907593
3276453261.0,-0.3129696249961853,0.0037129917182028,9.86545753479004,1.905622124671936,0.034502375870943,1.3170325756072998
3276461594.0,-0.3114689588546753,0.1149898767471313,10.15798568725586,2.1321802139282227,0.0815557315945625,1.1696996688842771
3276469927.0,-0.3874870240688324,0.2844752073287964,10.004916191101074,2.219934701919556,0.6687108278274536,1.2423160076141355
3276478260.0,-0.45616614818573,0.2893110513687134,9.668172836303713,2.0497021675109863,0.9665274620056152,1.370335817337036
3276486593.0,-0.4337436258792877,0.039052665233612,9.739673614501951,1.8083009719848635,0.541318416595459,1.2521389722824097
3276494926.0,-0.4033918380737304,-0.0464094430208206,10.113988876342772,2.0085785388946533,0.0931717827916145,1.3167381286621094
3276503259.0,-0.4339425563812256,0.1234340667724609,10.108409881591797,2.280858039855957,0.3021327257156372,1.360308051109314
3276511592.0,-0.4326893091201782,0.390038788318634,9.843414306640623,2.1928601264953613,0.9454725980758668,1.2729250192642212
3276519925.0,-0.3967331945896148,0.2063659876585006,9.605321884155272,1.9290846586227417,0.4887195825576782,1.2439807653427124
3276528258.0,-0.351180225610733,-0.0132511863484978,9.95717716217041,1.841996431350708,0.1531475037336349,1.2662140130996704
3276536591.0,-0.3450365662574768,0.033598281443119,10.166598320007324,2.144295692443848,0.1321950554847717,1.312191605567932
3276544924.0,-0.4304450452327728,0.21485336124897,9.943843841552734,2.340551853179932,0.8154035806655884,1.2053548097610474
3276553257.0,-0.4795088171958923,0.2936988472938537,9.67351531982422,2.1101772785186768,0.7496261596679688,1.2286893129348757
3276561590.0,-0.4796276092529297,0.1116939336061477,9.84458351135254,1.9548014402389529,0.2771203815937042,1.326638102531433
3276569923.0,-0.4708085358142853,0.0531995855271816,10.14252758026123,2.081374406814575,0.0859485641121864,1.156623601913452
3276578256.0,-0.4866997897624969,0.244347333908081,10.050874710083008,2.2423343658447266,0.6821455955505371,1.3148940801620483
3276586589.0,-0.4882929027080536,0.260428637266159,9.690693855285645,2.175762891769409,0.7351670265197754,1.1808290481567385
3276594922.0,-0.431266576051712,0.1603038161993026,9.727877616882324,2.0994577407836914,0.3143250346183777,1.2460941076278689
3276603255.0,-0.3479356467723846,0.0757229998707771,9.994714736938477,2.135125637054444,-0.0336186811327934,1.2669825553894043
3276611588.0,-0.3959171175956726,0.2530680298805237,10.155308723449709,2.262659311294556,0.3093431293964386,1.326663613319397
3276619921.0,-0.4656436741352081,0.3913375735282898,9.88623046875,2.2480719089508057,1.043075680732727,1.2855912446975708
3276628254.0,-0.5173729062080383,0.2531875967979431,9.607983589172363,2.1276848316192627,0.8954864740371704,1.208492398262024
3276636587.0,-0.4942429661750793,0.0302361547946929,9.890477180480955,2.09702467918396,0.1435037702322006,1.2186357975006104
3276644920.0,-0.4881977438926697,0.1568926572799682,10.216178894042969,2.279448986053467,-0.1040706411004066,1.2494239807128906
3276653253.0,-0.4920656085014343,0.4257796704769134,10.003761291503906,2.386772871017456,0.6403431296348572,1.356978178024292
3276661586.0,-0.4418717920780182,0.4610538780689239,9.635723114013672,2.1691670417785645,0.7440422773361206,1.2784063816070557
3276669919.0,-0.3860140144824981,0.2345952540636062,9.705098152160645,1.8958886861801147,0.2818590104579925,1.198541283607483
3276678252.0,-0.3618119060993194,0.0836592987179756,10.05467414855957,2.155937433242798,0.0427885800600051,1.2772411108016968
3276686585.0,-0.4189161658287048,0.285152792930603,10.090279579162598,2.2230210304260254,0.4781537055969238,1.2887930870056152
3276694918.0,-0.5054454207420349,0.4037278294563293,9.765488624572754,2.286198377609253,0.7979602813720703,1.2346830368041992
3276703251.0,-0.4861450493335724,0.3379456102848053,9.679473876953123,2.022576808929444,0.6242702007293701,1.2104263305664062
3276711584.0,-0.465145856142044,0.1953712850809097,10.006474494934082,2.0087451934814453,0.0692352801561355,1.2692110538482666
3276719917.0,-0.4383227527141571,0.2538096308708191,10.127260208129885,2.0832443237304688,0.18807253241539,1.2276262044906616
3276728250.0,-0.4565132558345794,0.3389517664909363,9.897644996643066,2.2235589027404785,0.6639337539672852,1.3948103189468384
3276736583.0,-0.4278954863548279,0.2752903997898102,9.684436798095703,2.109204053878784,0.6965534687042236,1.2799946069717407
3276744916.0,-0.3457447588443756,0.1237635165452957,9.837278366088867,1.975305676460266,0.0879720747470855,1.2093887329101562
3276753249.0,-0.3097835183143616,0.2014604657888412,10.093111038208008,2.093566656112671,0.0762920007109642,1.2270371913909912
3276761582.0,-0.4043987989425659,0.3865546286106109,10.02530288696289,2.153849840164185,0.6769073605537415,1.353174328804016
3276769915.0,-0.4781533181667328,0.3503732979297638,9.70912265777588,1.941123366355896,0.9255190491676332,1.2542264461517334
3276778248.0,-0.4957028031349182,0.1305984407663345,9.685596466064451,1.889894962310791,0.5257065296173096,1.274717926979065
3276786581.0,-0.4535286724567413,0.0182445980608463,10.004920959472656,1.94012463092804,0.0224124547094106,1.0858131647109983
3276794914.0,-0.4466734826564789,0.2355728149414062,10.156003952026367,2.102902889251709,0.2191553860902786,1.286449313163757
3276803247.0,-0.4528178572654724,0.4119493663311004,9.865779876708984,2.16132926940918,0.784692108631134,1.3084007501602173
3276811580.0,-0.3952767252922058,0.2690269351005554,9.649785041809082,1.9038548469543457,0.6624352931976318,1.1263090372085571
3276819913.0,-0.3370455503463745,0.0347501896321773,9.87808609008789,1.838679313659668,-2.56142338912e-05,1.204163670539856
3276828246.0,-0.3264231383800506,0.0802576392889022,10.160074234008787,1.963484764099121,0.2405432909727096,1.2567111253738403
3276836579.0,-0.4355990290641784,0.2670318186283111,9.98304271697998,2.0762386322021484,0.7955012321472168,1.2218246459960938
3276844912.0,-0.4832406938076019,0.2629124820232391,9.670492172241213,2.1040685176849365,0.9807050228118896,1.3585662841796875
3276853245.0,-0.4630112946033478,0.0925106108188629,9.813272476196287,2.0303633213043213,0.201532781124115,1.2002829313278198
3276861578.0,-0.4618610143661499,0.0763561651110649,10.143077850341797,2.108333110809326,0.022309998050332,1.2319165468215942
3276869911.0,-0.4714756608009338,0.2071702778339386,10.061264038085938,2.05216121673584,0.6461959481239319,1.265496850013733
3276878244.0,-0.4666875004768371,0.2355007529258728,9.707188606262209,2.0326690673828125,0.79140305519104,1.177998661994934
3276886577.0,-0.4222961366176605,0.0850847959518432,9.70230484008789,1.9608975648880005,0.4329061806201935,1.2498977184295654
3276894910.0,-0.3516642153263092,0.021525165066123,10.00078582763672,2.104209423065185,-0.1740103214979171,1.2517421245574951
3276903243.0,-0.37863689661026,0.2039156705141067,10.13021469116211,2.1933469772338867,0.2563472688198089,1.2177519798278809
3276911576.0,-0.482183575630188,0.3274107277393341,9.84914207458496,2.20854926109314,0.9938963651657104,1.3216304779052734
3276919909.0,-0.5095506906509399,0.1611211746931076,9.661026000976562,2.029069900512696,0.7476667165756226,1.212846755981445
3276928242.0,-0.4720538556575775,-0.0280153602361679,9.948042869567873,2.0257785320281982,0.1812975406646728,1.1486190557479858
3276936575.0,-0.4450867176055908,0.0797604694962501,10.130685806274414,2.2043356895446777,0.0778416693210601,1.2253594398498535
3276944908.0,-0.4560200870037079,0.3624812960624695,9.958763122558594,2.303206443786621,0.5739125609397888,1.2601178884506226
3276953241.0,-0.4269768595695495,0.3802028000354767,9.650678634643556,2.103902101516724,0.6520360112190247,1.1487215757369995
3276961574.0,-0.3650991916656494,0.1127653568983078,9.766761779785156,1.980453968048096,0.259459376335144,1.2637423276901243
3276969907.0,-0.3763019740581512,0.0133488103747367,10.084060668945312,2.108704805374145,0.040457684546709,1.2494494915008545
3276978240.0,-0.4501122534275055,0.217420607805252,10.111916542053224,2.3176913261413574,0.6052772402763367,1.1999629735946655
3276986573.0,-0.5160492658615112,0.3682170212268829,9.761276245117188,2.219921588897705,1.0592381954193115,1.2606430053710938
3276994906.0,-0.4987946152687073,0.2491349726915359,9.686301231384276,2.122152090072632,0.5070209503173828,1.245965838432312
3277003239.0,-0.4408901333808899,0.0925963446497917,9.990859031677246,1.9394968748092647,0.0725011005997657,1.2589523792266846
3277011572.0,-0.419135183095932,0.1956794261932373,10.164229393005373,2.1080644130706787,0.2053365260362625,1.2994742393493652
3277019905.0,-0.4189439415931701,0.3276846706867218,9.887494087219238,2.1799378395080566,0.7357048988342285,1.3389713764190674
3277028238.0,-0.3956459760665893,0.2594106793403625,9.628539085388184,2.0243570804595947,0.7399056553840637,1.27357816696167
3277036571.0,-0.3537627458572387,0.0839300975203514,9.88379192352295,2.016890525817871,0.106119766831398,1.251511573791504
3277044904.0,-0.3516891002655029,0.1915103644132614,10.174031257629396,2.1402230262756348,0.1254329085350036,1.245543360710144
3277053237.0,-0.45204958319664,0.4050790965557098,9.990350723266602,2.2816264629364014,0.703533411026001,1.3391761779785156
3277061570.0,-0.5076605081558228,0.3389506340026855,9.638248443603516,2.0403270721435547,0.9804872274398804,1.2845025062561035
3277069903.0,-0.491311252117157,0.0835250690579414,9.694211959838867,1.942173719406128,0.4797033369541168,1.2617571353912354
3277078236.0,-0.4393100142478943,0.0536934100091457,10.05972385406494,2.1209611892700195,-0.049986183643341,1.2033569812774658
3277086569.0,-0.4466619491577148,0.3175933063030243,10.153982162475586,2.4391796588897705,0.4506697058677673,1.3033676147460938
3277094902.0,-0.4248511791229248,0.5027385950088501,9.787466049194336,2.248225450515747,0.8396987318992615,1.2183282375335691
3277103235.0,-0.3744686245918274,0.3305188119411468,9.608036041259766,1.9614356756210327,0.5592100024223328,1.1799710988998413
3277111568.0,-0.3440147340297699,0.0879587978124618,9.943185806274414,1.884695291519165,0.0925442278385162,1.2833499908447266
3277119901.0,-0.3730687499046325,0.1608464121818542,10.17121410369873,2.149367332458496,0.2627252042293548,1.244698166847229
3277128234.0,-0.4823449850082397,0.3504502773284912,9.93603801727295,2.155668497085572,0.9729310870170592,1.3151885271072388
3277136567.0,-0.5100110769271851,0.3305647373199463,9.625343322753906,2.158050537109375,0.811894416809082,1.280839920043945
3277144900.0,-0.5120465159416199,0.1838640719652176,9.857412338256836,1.858030915260315,0.1871632039546966,1.2404462099075315
3277153233.0,-0.4902171194553375,0.1658259332180023,10.169388771057127,2.112124443054199,-0.0454268492758274,1.1995915174484253
3277161566.0,-0.4804306030273437,0.3193671703338623,10.05441188812256,2.0807981491088867,0.5684055089950562,1.3217971324920654
3277169899.0,-0.4576035439968109,0.3100070655345917,9.703322410583496,2.026687860488892,0.8476646542549133,1.1916894912719729
3277178232.0,-0.3781844079494476,0.1042137667536735,9.717056274414062,1.848182201385498,0.2868410050868988,1.261385798454285
3277186565.0,-0.329070121049881,0.0766322016716003,10.054454803466797,1.9770218133926392,-0.0416999720036983,1.1847224235534668
3277194898.0,-0.3849644660949707,0.2850102186203003,10.14848518371582,2.104952335357666,0.5473250150680542,1.2257180213928225
3277203231.0,-0.4924722015857696,0.3602974712848663,9.82382106781006,2.0738821029663086,0.9545658230781556,1.2709527015686035
3277211564.0,-0.5254061222076416,0.1198106184601783,9.64113712310791,1.8856686353683472,0.7085409164428711,1.1868867874145508
3277219897.0,-0.5030202865600586,-0.0471834763884544,9.940577507019045,1.9831053018569944,-0.018685583025217,1.1574817895889282
3277228230.0,-0.4576753973960876,0.114867627620697,10.187172889709473,2.237249851226806,0.2041710913181305,1.215677261352539
3277236563.0,-0.4545564353466034,0.3753761947154999,9.95606517791748,2.338707685470581,0.6271133422851562,1.2798408269882202
3277244896.0,-0.4032138288021087,0.3211053013801574,9.624903678894045,1.9327094554901123,0.5398328304290771,1.2486042976379397
3277253229.0,-0.3744652867317199,0.0573690570890903,9.79318904876709,1.8414076566696167,0.0760999023914337,1.2143710851669312
3277261562.0,-0.350005954504013,0.0167127009481191,10.082592964172363,2.057181596755981,0.0936968773603439,1.1760263442993164
3277269895.0,-0.4437282383441925,0.2195126712322235,10.027896881103516,2.195882797241211,0.612820565700531,1.22710120677948
3277278228.0,-0.4766519069671631,0.3092427551746368,9.735106468200684,2.141606330871582,0.8998280167579651,1.3174426555633545
3277286561.0,-0.4800910353660583,0.1543435454368591,9.731050491333008,2.0558881759643555,0.3913727402687073,1.246888279914856
3277294894.0,-0.4560503363609314,0.0772973820567131,10.036605834960938,1.8913934230804443,0.0530855022370815,1.2333637475967407
3277303227.0,-0.4239912629127502,0.2150808274745941,10.083280563354492,2.1990842819213867,0.3778355419635772,1.2581710815429688
3277311560.0,-0.4416563510894775,0.2871679365634918,9.807252883911133,2.084179162979126,0.8676310181617737,1.2692879438400269
3277319893.0,-0.386821299791336,0.1596844345331192,9.650744438171388,2.0312345027923584,0.4884378314018249,1.1159865856170654
3277328226.0,-0.3419033586978912,0.055998008698225,9.986385345458984,2.0142393112182617,-0.0165724083781242,1.2238866090774536
3277336559.0,-0.3543067276477813,0.2261750847101211,10.16721534729004,2.25053071975708,0.230335995554924,1.2464014291763306
3277344892.0,-0.4450484216213226,0.3849451243877411,9.911687850952148,2.185086488723755,0.9302193522453308,1.2779839038848877
3277353225.0,-0.4824353754520416,0.2586680054664612,9.65647792816162,2.0369718074798584,1.0017468929290771,1.3163410425186155
3277361558.0,-0.4766120314598083,0.0078963590785861,9.8286771774292,2.022909879684448,0.2277617901563644,1.2343244552612305
3277369891.0,-0.4642767012119293,0.0862508937716484,10.119836807250977,2.2496213912963867,0.0220026280730962,1.2455177307128906
3277378224.0,-0.4544565975666046,0.3581175506114959,10.043177604675291,2.3668062686920166,0.4197916686534881,1.2746667861938477
3277386557.0,-0.4562673568725586,0.4381429851055145,9.719734191894531,2.1526970863342285,0.7736523151397705,1.2317373752593994
3277394890.0,-0.3866812586784363,0.2183606326580047,9.700369834899902,1.941405296325684,0.3360331654548645,1.1658062934875488
3277403223.0,-0.3607188463211059,0.0582017414271831,10.026447296142578,1.8982709646224976,-0.0423531346023082,1.073569416999817
3277411556.0,-0.4010856747627258,0.2136401236057281,10.098943710327148,2.26107120513916,0.4423834979534149,1.141524076461792
3277419889.0,-0.4833122193813324,0.3930528461933136,9.848262786865234,2.2598674297332764,0.9925004839897156,1.2982574701309204
3277428222.0,-0.4914750456809997,0.2965897023677826,9.66390323638916,2.0541975498199463,0.6428276300430298,1.273398756980896
3277436555.0,-0.4865283966064453,0.1446755975484848,9.919580459594728,1.9237951040267944,0.0823881775140762,1.2580045461654663
3277444888.0,-0.4964844286441803,0.214748203754425,10.1740083694458,2.1392626762390137,0.2109716534614563,1.2076727151870728
3277453221.0,-0.4882454574108124,0.348618745803833,9.934019088745115,2.14365553855896,0.7792875170707703,1.4048895835876465
3277461554.0,-0.4425091445446014,0.2932650148868561,9.652342796325684,1.9167898893356323,0.6134353280067444,1.2466447353363037
3277469887.0,-0.3856298625469208,0.0897251814603805,9.83787441253662,1.9196206331253047,0.1172235533595085,1.1765515804290771
3277478220.0,-0.3541909456253052,0.138248786330223,10.12243366241455,2.0943350791931152,-0.0390104837715625,1.221350908279419
3277486553.0,-0.4184879958629608,0.3468606173992157,10.03367519378662,2.2646186351776123,0.7148293256759644,1.2539833784103394
3277494886.0,-0.4838219881057739,0.3248739242553711,9.713528633117676,2.0682213306427,1.02305805683136,1.306684494018555
3277503219.0,-0.5092003345489502,0.0924042388796806,9.704218864440918,1.895735263824463,0.4304472506046295,1.3462586402893066
3277511552.0,-0.483050674200058,0.017349898815155,10.040411949157717,1.989790797233581,-0.1096417382359504,1.3105010986328125
3277519885.0,-0.4623984098434448,0.2426532506942749,10.153541564941406,2.2498390674591064,0.2606633007526397,1.2146910429000854
3277528218.0,-0.4550654590129852,0.4375151991844177,9.837448120117188,2.2202932834625244,0.915094256401062,1.2065842151641846
3277536551.0,-0.4102432131767273,0.2977052330970764,9.607355117797852,1.993222951889038,0.637948215007782,1.2767159938812256
3277544884.0,-0.3624701201915741,0.055051140487194,9.859450340270996,1.8438661098480225,0.0062242583371698,1.247438669204712
3277553217.0,-0.3587650656700134,0.1063967645168304,10.158327102661133,2.0799272060394287,0.1776859760284423,1.27446186542511
3277561550.0,-0.4451642036437988,0.3392365872859955,9.985133171081545,2.1500589847564697,0.7845896482467651,1.3076835870742798
3277569883.0,-0.4662461876869201,0.3088974356651306,9.676240921020508,2.1209867000579834,0.8590757846832275,1.3406490087509155
3277578216.0,-0.4428562223911285,0.1385030448436737,9.830065727233888,1.8865396976470947,0.2362144887447357,1.208915114402771
3277586549.0,-0.4376884996891022,0.1218988075852394,10.120405197143556,1.9783540964126587,-0.0603727549314498,1.1758087873458862
3277594882.0,-0.4491081535816192,0.2856703400611877,10.034550666809082,2.052340507507324,0.610515296459198,1.2258716821670532
3277603215.0,-0.4172661900520324,0.2897228002548218,9.732708930969238,2.030158519744873,0.7258817553520203,1.3272016048431396
3277611548.0,-0.3953421115875244,0.1105089709162712,9.681357383728027,1.957465410232544,0.3893876075744629,1.0793325901031494
3277619881.0,-0.3384681046009063,0.0462386906147003,10.058524131774902,2.0106022357940674,-0.0685693025588989,1.2334662675857544
3277628214.0,-0.4002278447151184,0.2473637759685516,10.142532348632812,2.303142070770264,0.3943183422088623,1.2816722393035889
3277636547.0,-0.4794007837772369,0.3396545052528381,9.836649894714355,2.093848466873169,1.1030898094177246,1.3445810079574585
3277644880.0,-0.4789629876613617,0.1505710184574127,9.63301944732666,1.93556547164917,0.7126392722129822,1.3026888370513916
3277653213.0,-0.4674811661243438,-0.0258921459317207,9.94304370880127,1.9233214855194087,0.1594486236572265,1.1919070482254028
3277661546.0,-0.4286536574363708,0.1359562128782272,10.200350761413574,2.255358934402466,0.2473054379224777,1.1753603219985962
3277669879.0,-0.42326819896698,0.4106233716011047,9.969621658325195,2.2979555130004883,0.7260867953300476,1.2704917192459106
3277678212.0,-0.3872493505477905,0.35822594165802,9.598397254943848,1.925857424736023,0.704519510269165,1.2991540431976318
3277686545.0,-0.3904570341110229,0.0950874462723732,9.817998886108398,1.8357467651367188,0.0419817343354225,1.176615595817566
3277694878.0,-0.3831525146961212,0.047900628298521,10.126110076904297,2.0632266998291016,0.2070142477750778,1.298693060874939
3277703211.0,-0.4598526954650879,0.2364760786294937,10.081711769104004,2.2029776573181152,0.6336448788642883,1.2359379529953003
3277711544.0,-0.5141872763633728,0.3296374082565307,9.747660636901855,2.178183317184448,1.042653203010559,1.2443138360977173
3277719877.0,-0.5276909470558167,0.1557167470455169,9.709343910217283,2.024087905883789,0.49440598487854,1.3038413524627686
3277728210.0,-0.4883737862110138,0.0848157554864883,10.042771339416504,2.0843327045440674,0.0810690596699714,1.263166069984436
3277736543.0,-0.4410041272640228,0.2290731370449066,10.1270112991333,2.136022090911865,0.3019149899482727,1.262730598449707
3277744876.0,-0.4930223226547241,0.3273923993110657,9.816511154174805,2.118105411529541,0.7604226469993591,1.297937273979187
3277753209.0,-0.4252558946609497,0.1616533696651458,9.681687355041504,2.067939758300781,0.4912298321723938,1.2605533599853516
3277761542.0,-0.3790513277053833,0.0489490814507007,9.95339012145996,2.096730232238769,0.0066340873017907,1.2732837200164795
3277769875.0,-0.3780742287635803,0.2256560772657394,10.129655838012695,2.20051908493042,0.1245108023285865,1.2816338539123535
3277778208.0,-0.482963889837265,0.4204763174057007,9.918033599853516,2.1670925617218018,0.8576671481132507,1.2421623468399048
3277786541.0,-0.515673041343689,0.2832068502902984,9.662988662719728,2.018606424331665,1.0598657131195068,1.3206698894500732
3277794874.0,-0.5084153413772583,0.042403221130371,9.806440353393556,1.9215798377990725,0.1903650015592575,1.3329904079437256
3277803207.0,-0.4473716616630554,0.0941666439175605,10.133699417114258,2.178810834884644,0.0083374343812465,1.4004456996917725
3277811540.0,-0.4372472167015075,0.3735450506210327,10.077880859375,2.296149730682373,0.4906278550624847,1.3199657201766968
3277819873.0,-0.4048663377761841,0.4441313743591308,9.714325904846191,2.085690498352051,0.8085901141166687,1.198208212852478
3277828206.0,-0.3643680214881897,0.205970898270607,9.69334888458252,1.915995955467224,0.3538862764835357,1.225666642189026
3277836539.0,-0.347594141960144,0.0679918527603149,10.01945686340332,1.9087984561920168,-0.0341053530573844,1.2063792943954468
3277844872.0,-0.4030227661132812,0.2180278897285461,10.148763656616213,2.237006425857544,0.4972363412380218,1.291712999343872
3277853205.0,-0.5061946511268616,0.3712360262870788,9.824296951293944,2.082603693008423,1.0117493867874146,1.2851814031600952
3277861538.0,-0.5123276710510254,0.2734884917736053,9.691286087036133,1.969401836395264,0.7332843542098999,1.1840949058532717
3277869871.0,-0.4592337012290954,0.1163558959960937,9.935675621032717,1.9090288877487185,0.1914407908916473,1.1824555397033691
3277878204.0,-0.4536623954772949,0.2085101753473281,10.142984390258787,2.129682779312134,0.119682528078556,1.2268579006195068
3277886537.0,-0.4442688226699829,0.3482155501842499,9.931556701660156,2.1250336170196533,0.6970401406288147,1.204867959022522
3277894870.0,-0.4029490351676941,0.2735461592674255,9.650288581848145,1.9000897407531736,0.6313396692276001,1.3196710348129272
3277903203.0,-0.3394930958747864,0.0714752450585365,9.803115844726562,2.0276358127593994,0.0868706852197647,1.252010941505432
3277911536.0,-0.3457852900028229,0.129230260848999,10.083735466003418,2.0775575637817383,0.1133557930588722,1.2848739624023438
3277919869.0,-0.4231716096401214,0.338775098323822,10.061119079589844,2.177786350250244,0.8016871809959412,1.277676701545715
3277928202.0,-0.4855961799621582,0.3121565580368042,9.728555679321287,1.980351686477661,1.097736358642578,1.3223220109939575
3277936535.0,-0.5078006386756897,0.082650139927864,9.73066520690918,1.801820516586304,0.5285625457763672,1.2468624114990234
3277944868.0,-0.4594337344169616,-0.0296426340937614,10.06643009185791,1.9534951448440552,-0.0231424607336521,1.2578637599945068
3277953201.0,-0.4465475082397461,0.194918543100357,10.142155647277832,2.2572033405303955,0.2594209909439087,1.2543035745620728
3277961534.0,-0.4199589490890503,0.375520646572113,9.81202220916748,2.251696348190308,0.7821050882339478,1.1532297134399414
3277969867.0,-0.4029127061367035,0.2396052479743957,9.616704940795898,1.960334300994873,0.5576987862586975,1.2388324737548828
3277978200.0,-0.3632449209690094,0.0204637609422206,9.870619773864746,1.9673269987106323,0.0055326740257442,1.2895228862762451
3277986533.0,-0.3750744760036468,0.0715101808309555,10.147333145141602,2.116427421569824,0.3627744317054748,1.2654969692230225
3277994866.0,-0.4339844882488251,0.3228269219398498,9.943822860717772,2.2214584350585938,0.9450243711471558,1.3528798818588257
3278003199.0,-0.4879080355167389,0.3279218077659607,9.623470306396484,2.093502759933472,0.7582070231437683,1.317468285560608
3278011532.0,-0.4387091696262359,0.1191545128822326,9.826126098632812,1.8568782806396484,0.269384890794754,1.2248982191085815
3278019865.0,-0.4377434253692627,0.1571684628725052,10.090036392211914,2.087163209915161,0.0136908097192645,1.229675531387329
3278028198.0,-0.4667757451534271,0.2947700917720794,10.016927719116213,2.166656732559204,0.6614875793457031,1.3025606870651243
3278036531.0,-0.4628532826900482,0.2777400314807892,9.744671821594238,2.108755826950073,0.8490990400314331,1.1947888135910034
3278044864.0,-0.3907394111156463,0.116136223077774,9.720706939697266,1.90012788772583,0.3320757746696472,1.2633579969406128
3278053197.0,-0.3644343912601471,0.0867879986763,10.062280654907228,2.02225661277771,-0.0697475597262382,1.1534730195999146
3278061530.0,-0.4036638140678406,0.2024959176778793,10.14451026916504,2.109396457672119,0.4467251002788543,1.2780096530914309
3278069863.0,-0.4807986319065094,0.3936525285243988,9.852664947509766,2.228771686553955,1.0789228677749634,1.2022552490234375
3278078196.0,-0.5451499223709106,0.1362278312444687,9.65976333618164,2.0669405460357666,0.7626382112503052,1.2814033031463623
3278086529.0,-0.5190710425376892,-0.0200617332011461,9.949868202209473,2.0034942626953125,0.097795158624649,1.1922147274017334
3278094862.0,-0.4633462131023407,0.1232994422316551,10.177207946777344,2.278719425201416,0.1054281964898109,1.1996426582336426
3278103195.0,-0.4704149663448334,0.3916003704071045,9.958929061889648,2.29178237915039,0.6586444973945618,1.292161226272583
3278111528.0,-0.4425812661647796,0.4148418307304382,9.630343437194824,2.132359504699707,0.6070061922073364,1.261014461517334
3278119861.0,-0.3869621753692627,0.1160856708884239,9.751704216003418,1.918378233909607,0.2233049124479293,1.2441860437393188
3278128194.0,-0.3615972995758056,0.0516776368021965,10.091802597045898,2.012766599655152,0.0436978824436664,1.2289196252822876
3278136527.0,-0.4355540573596954,0.2794723510742187,10.074957847595217,2.314271688461304,0.5922523140907288,1.242802619934082
3278144860.0,-0.4941155016422272,0.3553261458873749,9.748560905456545,2.141836643218994,0.8870721459388733,1.255789041519165
3278153193.0,-0.4977065920829773,0.2519636452198028,9.696066856384276,1.936987042427063,0.4682410657405853,1.393888235092163
3278161526.0,-0.445292204618454,0.1246089413762092,9.96414852142334,1.9618709087371824,0.0342718437314033,1.2920587062835691
3278169859.0,-0.4456261694431305,0.2198097109794616,10.156944274902344,2.1535425186157227,0.2312197089195251,1.3025606870651243
3278178192.0,-0.4393701553344726,0.3374351859092712,9.868027687072754,2.0520331859588623,0.7259842753410339,1.3367301225662231
3278186525.0,-0.3926496803760528,0.2092333287000656,9.643064498901367,2.0003693103790283,0.5106965899467468,1.3734866380691528
3278194858.0,-0.3483334481716156,0.0958044230937957,9.900330543518066,1.999741792678833,-0.0710538849234581,1.2763444185256958
3278203191.0,-0.3458783328533172,0.1826167702674865,10.15611457824707,2.1468698978424072,0.1586417704820633,1.3119739294052124
3278211524.0,-0.4278596937656402,0.3733851909637451,9.95646858215332,2.1476895809173584,0.7488192915916443,1.3182750940322876
3278219857.0,-0.4819712340831756,0.2959821820259094,9.64294719696045,2.040225028991699,0.8831276893615723,1.280378818511963
3278228190.0,-0.4670016169548034,0.0339422635734081,9.729373931884766,1.9653033018112185,0.3699463605880737,1.2349903583526611
3278236523.0,-0.432941734790802,0.0038890335708856,10.118184089660645,2.076866388320923,-0.0380627512931823,1.266790509223938
3278244856.0,-0.4272762835025787,0.2905733287334442,10.145903587341309,2.354895830154419,0.3955093622207641,1.300408959388733
3278253189.0,-0.4215663969516754,0.4309351742267608,9.73695468902588,2.1748533248901367,0.9012880921363832,1.3069919347763062
3278261522.0,-0.3948865830898285,0.2151941508054733,9.643476486206056,1.9149458408355715,0.4747598469257355,1.307888388633728
3278269855.0,-0.3448811173439026,0.0111529156565666,9.971592903137209,1.9097846746444704,0.1722429245710373,1.3192483186721802
3278278188.0,-0.3917088508605957,0.116630345582962,10.178775787353516,2.122178077697754,0.4740554690361023,1.2466576099395752
3278286521.0,-0.4723699986934662,0.3239815533161163,9.888036727905272,2.205270290374756,1.0840071439743042,1.1869508028030396
3278294854.0,-0.5283917188644409,0.2970059216022491,9.624934196472168,2.0684776306152344,0.8059006929397583,1.200795292854309
3278303187.0,-0.4890170991420746,0.094413511455059,9.852076530456545,1.8622831106185915,0.1420821547508239,1.2166506052017212
3278311520.0,-0.4352905452251434,0.1247100755572319,10.163798332214355,1.9890862703323364,0.0461696572601795,1.147120714187622
3278319853.0,-0.4850516021251678,0.2724869847297668,10.022377967834473,2.151762247085572,0.791210949420929,1.302573561668396
3278328186.0,-0.4704576432704925,0.2614181041717529,9.678338050842283,2.034564018249512,0.8432973027229309,1.2460811138153076
3278336519.0,-0.4193731546401977,0.0972263067960739,9.73304271697998,1.9020360708236688,0.2591391801834106,1.241393804550171
3278344852.0,-0.351803183555603,0.0449545755982399,10.12864112854004,2.061587333679199,0.0223612263798713,1.2418293952941897
3278353185.0,-0.3995496034622192,0.2744040787220001,10.143540382385254,2.1808090209960938,0.4938552975654602,1.2439169883728027
3278361518.0,-0.4789145588874817,0.3254685699939728,9.779786109924316,2.1177978515625,1.18526029586792,1.363202452659607
3278369851.0,-0.5175177454948425,0.1297700107097625,9.646754264831545,1.911167860031128,0.6580681800842285,1.2643060684204102
3278378184.0,-0.4849173128604889,-0.0554573535919189,9.991175651550291,1.9939916133880613,0.0190313775092363,1.211988925933838
3278386517.0,-0.4735345542430877,0.109144352376461,10.243474960327148,2.248110055923462,0.0952081009745597,1.2415730953216553
3278394850.0,-0.4791300594806671,0.4088314175605774,9.969456672668455,2.358917236328125,0.6091577410697937,1.2463374137878418
3278403183.0,-0.4403702616691589,0.3553783297538757,9.59126091003418,2.088456630706787,0.6883057355880737,1.3058393001556396
3278411516.0,-0.3960482478141784,0.0973028540611267,9.779080390930176,1.980172634124756,0.0743965506553649,1.2601051330566406
3278419849.0,-0.3814414739608764,0.0457288511097431,10.139992713928224,2.132987260818481,0.0295460205525159,1.263383865356445
3278428182.0,-0.4122673571109772,0.2627347111701965,10.115843772888184,2.2521445751190186,0.6578888893127441,1.224091649055481
3278436515.0,-0.4508995413780212,0.3325071930885315,9.697637557983398,2.201722860336304,1.123798966407776,1.3023046255111694
3278444848.0,-0.458704799413681,0.1465786844491958,9.645044326782228,2.016352653503418,0.5156657695770264,1.2787394523620603
3278453181.0,-0.4269117414951324,0.0630065724253654,9.94396686553955,1.9813761711120603,-0.0192619040608406,1.289715051651001
3278461514.0,-0.4334520995616913,0.2586439847946167,10.228026390075684,2.169986724853516,0.1557601690292358,1.3946951627731323
3278469847.0,-0.4723742604255676,0.3606568872928619,9.88908863067627,2.150763511657715,0.8983809947967529,1.3586686849594116
3278478180.0,-0.4006904065608978,0.210077166557312,9.499068260192873,2.046436548233032,0.5853493809700012,1.273936748504639
3278486513.0,-0.3542368412017822,0.095275692641735,9.87432861328125,1.9097206592559808,-0.0511132106184959,1.1501816511154177
3278494846.0,-0.3430672585964203,0.2164416760206222,10.248302459716797,2.192476272583008,0.1735620647668838,1.2691596746444702
3278503179.0,-0.4541527926921844,0.4059754610061645,10.021324157714844,2.1339473724365234,1.0287188291549685,1.3379850387573242
3278511512.0,-0.4927315413951874,0.3539140224456787,9.601088523864746,2.0589747428894043,1.0743635892868042,1.2874737977981567
3278519845.0,-0.4991606771945953,0.0440457239747047,9.771222114562988,1.872912764549256,0.3215610980987549,1.2060973644256592
3278528178.0,-0.4575556814670563,0.1008953303098678,10.159927368164062,2.2961368560791016,0.0294563714414834,1.2889084815979004
3278536511.0,-0.4157770276069641,0.3805840909481048,10.09079360961914,2.3022587299346924,0.5316234827041626,1.1714670658111572
3278544844.0,-0.4432263970375061,0.4322247207164764,9.77735710144043,2.067683458328247,0.8420166969299316,1.2925710678100586
3278553177.0,-0.3891480267047882,0.2194888442754745,9.660115242004396,1.8834402561187744,0.3776562809944153,1.2094528675079346
3278561510.0,-0.3949220776557922,0.0700675621628761,9.986489295959473,1.889088153839112,-0.0640099719166755,1.2721437215805054
3278569843.0,-0.4257052540779114,0.2106780260801315,10.154990196228027,2.151954412460327,0.5298817157745361,1.1860415935516355
3278578176.0,-0.4929355382919311,0.3679031431674957,9.828960418701172,2.168731689453125,0.9417842626571656,1.390571355819702
3278586509.0,-0.5082314610481262,0.2901347875595093,9.651854515075684,1.970797538757324,0.663114070892334,1.239229440689087
3278594842.0,-0.4596978425979614,0.142618715763092,9.90093994140625,1.9413666725158687,0.1285450309514999,1.232416033744812
3278603175.0,-0.4645270407199859,0.1347681581974029,10.13845157623291,1.9603469371795648,0.0481675677001476,1.0563437938690186
3278611508.0,-0.4600091278553009,0.2808979451656341,10.003824234008787,2.115556478500366,0.6404839754104614,1.2689803838729858
3278619841.0,-0.4478165507316589,0.2664333581924438,9.722419738769531,2.0684518814086914,0.7150982618331909,1.362907886505127
3278628174.0,-0.38978111743927,0.0851263254880905,9.761170387268066,1.9045463800430296,0.0399838164448738,1.2346572875976562
3278636507.0,-0.3353703618049621,0.1170030310750007,10.10220432281494,2.06099796295166,-0.1149951070547103,1.289599895477295
3278644840.0,-0.395896166563034,0.2946103513240814,10.070429801940918,2.154669761657715,0.4968649446964264,1.362651824951172
3278653173.0,-0.4697408378124237,0.3359447717666626,9.770349502563477,2.010563850402832,0.9619682431221008,1.2480536699295044
3278661506.0,-0.4962893426418304,0.0971163213253021,9.64889430999756,1.922681212425232,0.6001415252685547,1.3008956909179688
3278669839.0,-0.4749545156955719,-0.0647605061531066,9.956456184387209,2.050445318222046,0.0999467521905899,1.2170605659484863
3278678172.0,-0.4532868862152099,0.1664434820413589,10.169818878173828,2.251401662826538,0.1623045951128006,1.213359236717224
3278686505.0,-0.4940182268619537,0.4322680234909057,9.896484375,2.195472955703736,0.7164302468299866,1.354275822639465
3278694838.0,-0.4183489382266998,0.2959374487400055,9.599776268005373,2.0213732719421387,0.5712742805480957,1.3779946565628052
3278703171.0,-0.3497926294803619,0.0662030279636383,9.838509559631348,1.8736811876297,0.0586822107434272,1.2450823783874512
3278711504.0,-0.3724756240844726,0.0542164146900177,10.14599609375,2.1222293376922607,0.1423511207103729,1.279085397720337
3278719837.0,-0.4205847382545471,0.2715199291706085,10.042211532592772,2.263197183609009,0.8078217506408691,1.3831943273544312
3278728170.0,-0.4643744230270386,0.3056661188602447,9.66067600250244,2.186251878738404,1.0086886882781982,1.3319401741027832
3278736503.0,-0.4587924480438232,0.1273200809955597,9.758621215820312,1.9129605293273928,0.3538990318775177,1.1436371803283691
3278744836.0,-0.4584666788578033,0.1002842858433723,10.129195213317873,2.0031228065490723,-0.0995625257492065,1.3363075256347656
3278753169.0,-0.4721551537513733,0.2426296770572662,10.053094863891602,2.1694486141204834,0.4521681368350982,1.312524676322937
3278761502.0,-0.4580825865268707,0.3078219592571258,9.756571769714355,2.0216548442840576,0.8273398280143738,1.3331953287124634
3278769835.0,-0.4106519222259521,0.1490055918693542,9.67731761932373,1.971604585647583,0.4254525005817413,1.2466962337493896
3278778168.0,-0.3213927447795868,0.0346877127885818,9.990736961364746,2.097447395324707,-0.0550578013062477,1.1853755712509155
3278786501.0,-0.3401119709014892,0.1790136694908142,10.159050941467283,2.2156312465667725,0.2857780158519745,1.1761544942855835
3278794834.0,-0.4357911348342895,0.3611452579498291,9.940338134765623,2.2009289264678955,1.0191136598587036,1.2464655637741089
3278803167.0,-0.4899310767650604,0.2278178632259369,9.675817489624023,2.041313648223877,0.951223075389862,1.328648805618286
3278811500.0,-0.4999507069587707,-0.0114376582205295,9.908924102783203,1.9708999395370483,0.0894833281636238,1.2688394784927368
3278819833.0,-0.465410828590393,0.0488849319517612,10.166101455688477,2.222060441970825,-0.099600963294506,1.27151620388031
3278828166.0,-0.4461219310760498,0.3411888182163238,10.038293838500977,2.359660148620605,0.5233244299888611,1.2809934616088867
3278836499.0,-0.4117856025695801,0.3629189729690552,9.675872802734377,2.217449903488159,0.7613575458526611,1.2766648530960083
3278844832.0,-0.3573521077632904,0.1182700917124748,9.667085647583008,2.026342391967773,0.3758120834827423,1.2485660314559937
3278853165.0,-0.3738881647586822,0.0775535702705383,10.071452140808104,1.995169758796692,-0.0854875072836875,1.2926737070083618
3278861498.0,-0.4277622699737549,0.1989740580320358,10.297168731689451,2.251568078994751,0.6909183859825134,1.2606301307678225
3278869831.0,-0.5307343006134033,0.4462001323699951,9.77931022644043,2.3828794956207275,1.018562912940979,1.2943769693374634
3278878164.0,-0.5087705254554749,0.3334831893444061,9.48977279663086,1.9563512802124023,0.455766886472702,1.3726028203964231
3278886497.0,-0.4892474412918091,0.1197205558419227,10.022845268249512,1.8658818006515503,0.0243463292717933,1.2779325246810913
3278894830.0,-0.455066978931427,0.2126423418521881,10.205835342407228,2.134651899337769,0.2072319537401199,1.3434537649154663
3278903163.0,-0.4790702164173126,0.4147349894046783,9.916414260864258,2.2019405364990234,0.7771743535995483,1.3535970449447632
3278911496.0,-0.4624083936214447,0.2593870759010315,9.648948669433594,2.0164809226989746,0.7831295728683472,1.2703124284744265
3278919829.0,-0.3961679339408874,0.1271395534276962,9.76731777191162,2.083845853805542,-0.0145616913214325,1.19623601436615
3278928162.0,-0.3680822253227234,0.1661632508039474,10.148799896240234,2.071474552154541,0.0787893831729888,1.3044817447662354
3278936495.0,-0.3983455300331116,0.3679239153861999,10.063976287841797,2.231486558914185,0.6065195202827454,1.415442705154419
3278944828.0,-0.5041206479072571,0.3566549718379974,9.705355644226074,2.037317991256714,1.0009403228759766,1.334027886390686
3278953161.0,-0.4851899743080139,0.123606264591217,9.658998489379885,1.873156189918518,0.5180606842041016,1.2605148553848269
3278961494.0,-0.4742927253246307,0.0128135336562991,10.07498264312744,2.037804365158081,-0.1444130539894104,1.245530605316162
3278969827.0,-0.4557767808437347,0.231036439538002,10.140562057495115,2.235661745071411,0.1640591770410537,1.1419339179992676
3278978160.0,-0.4361763894557953,0.4534476101398468,9.825366973876951,2.145192146301269,0.7377411723136902,1.197926640510559
3278986493.0,-0.400684654712677,0.3345788717269897,9.639912605285645,1.905750393867493,0.5012706518173218,1.3297630548477173
3278994826.0,-0.3362744450569153,0.0421065911650657,9.920241355895996,1.8256032466888428,0.0472838766872882,1.307452917098999
3279003159.0,-0.340545654296875,0.0356448143720626,10.148137092590332,2.1080002784729004,0.1618819534778595,1.152077078819275
3279011492.0,-0.4405977129936218,0.3028316795825958,10.062519073486328,2.268691062927246,0.8414404392242432,1.2905603647232056
3279019825.0,-0.5018900632858276,0.3764724135398865,9.650084495544434,2.08052921295166,0.8872387409210205,1.315406322479248
3279028158.0,-0.4869292080402374,0.1725085079669952,9.729894638061523,1.876947045326233,0.3254160284996032,1.226960301399231
3279036491.0,-0.42914679646492,0.0763389393687248,10.096774101257324,1.897310495376587,-0.1147773936390876,1.1755523681640625
3279044824.0,-0.4259057641029358,0.2344300746917724,10.144974708557127,2.0614850521087646,0.4459950923919678,1.2379616498947144
3279053157.0,-0.4343464970588684,0.2760194540023803,9.766922950744627,2.186635971069336,0.8234720230102539,1.2983856201171875
3279061490.0,-0.3791066408157348,0.1218989714980125,9.616214752197266,1.9476295709609983,0.5408445596694946,1.3079140186309814
3279069823.0,-0.3273865878582001,0.0248681735247373,9.955904960632324,1.9840532541275024,-0.1098978817462921,1.2165993452072144
3279078156.0,-0.3698713779449463,0.199031263589859,10.202922821044922,2.097805976867676,0.2270701974630355,1.1512573957443235
3279086489.0,-0.4683443307876587,0.3650517761707306,9.911001205444336,2.194986343383789,1.0831748247146606,1.2605022192001345
3279094822.0,-0.4983207285404205,0.2064767926931381,9.5982027053833,1.9880489110946653,0.9524141550064088,1.3343480825424194
3279103155.0,-0.4878187477588653,-0.0441528260707855,9.857172966003418,1.887589812278748,0.2445903271436691,1.1688029766082764
3279111488.0,-0.4557192325592041,0.0160714797675609,10.198795318603516,2.1386606693267822,-0.0534953251481056,1.2006161212921145
3279119821.0,-0.452324241399765,0.3237187266349792,10.029629707336426,2.337068796157837,0.6066219806671143,1.194314956665039
3279128154.0,-0.4286971688270569,0.3808028399944305,9.651517868041992,2.171036958694458,0.9040544033050536,1.2433149814605713
3279136487.0,-0.3968833684921264,0.1541212648153305,9.677830696105955,1.863179326057434,0.2782474160194397,1.310347318649292
3279144820.0,-0.3445782661437988,-0.0071268449537456,10.081761360168455,1.9814658164978027,0.0516895242035388,1.242392897605896
3279153153.0,-0.4215925633907318,0.1819929778575897,10.150649070739746,2.290322542190552,0.5430731177330017,1.31726336479187
3279161486.0,-0.5119637250900269,0.3366852402687073,9.818482398986816,2.3390536308288574,1.0895143747329712,1.2801867723464966
3279169819.0,-0.5235759019851685,0.2613358497619629,9.62056827545166,2.1051185131073,0.6265625953674316,1.2880759239196775
3279178152.0,-0.4668773412704468,0.0833527743816375,9.930462837219238,1.972142457962036,0.071463719010353,1.1920865774154663
3279186485.0,-0.447147011756897,0.18353933095932,10.18577003479004,2.1401844024658203,0.0875366553664207,1.2456331253051758
3279194818.0,-0.4938177764415741,0.2939906716346741,9.996397018432615,2.1715877056121826,0.7510222792625427,1.2452489137649536
3279203151.0,-0.433350145816803,0.2805956304073334,9.62940788269043,2.091517686843872,0.6992302536964417,1.233210206031799
3279211484.0,-0.3647648990154266,0.1132572218775749,9.833751678466797,2.006119728088379,0.1270850151777267,1.176705002784729
3279219817.0,-0.3464600741863251,0.0987276509404182,10.135259628295898,2.1157102584838867,-0.0445303544402122,1.3096559047698977
3279228150.0,-0.4077240824699402,0.3271431624889374,10.065937042236328,2.209279060363769,0.6939151883125305,1.2826073169708252
3279236483.0,-0.5099713802337646,0.382168561220169,9.7255220413208,2.097703456878662,1.0477759838104248,1.2648309469223022
3279244816.0,-0.5011385679244995,0.0832407772541046,9.63948917388916,1.876383662223816,0.5816096663475037,1.276984930038452
3279253149.0,-0.4722598195075989,1.69730046764e-05,10.011666297912598,2.018824338912964,-0.0687229931354522,1.2482712268829346
3279261482.0,-0.4337297081947326,0.2608879804611206,10.17917823791504,2.3099687099456787,0.1764308512210846,1.2143452167510986
3279269815.0,-0.4358233511447906,0.4423186779022217,9.877363204956056,2.1871228218078613,0.7768028378486633,1.2733603715896606
3279278148.0,-0.3973211050033569,0.3299484550952911,9.589966773986816,2.011268377304077,0.7431586384773254,1.2886137962341309
3279286481.0,-0.3560392558574676,0.0506107881665229,9.822225570678713,1.7560734748840332,0.0378194153308868,1.2103623151779177
3279294814.0,-0.3743985593318939,0.0797964408993721,10.18410301208496,2.1115736961364746,0.1247541382908821,1.3423268795013428
3279303147.0,-0.4621244966983795,0.3455224931240082,10.016679763793944,2.356983661651612,0.8568089008331299,1.36012864112854
3279311480.0,-0.5251528024673462,0.3764704465866089,9.630141258239746,2.1494956016540527,1.048902988433838,1.319338083267212
3279319813.0,-0.4939146637916565,0.2073609679937362,9.747604370117188,1.9312620162963867,0.2616493999958038,1.2477974891662598
3279328146.0,-0.4405560195446014,0.1173321604728698,10.100262641906738,1.9079275131225584,-0.0333369299769401,1.2968487739562988
3279336479.0,-0.4317607581615448,0.2563640177249908,10.091145515441896,2.073664426803589,0.427924245595932,1.1820842027664185
3279344812.0,-0.4243784248828888,0.3177102208137512,9.764449119567873,2.155630111694336,0.8692574501037598,1.269633650779724
3279353145.0,-0.3590089082717895,0.1636986136436462,9.626960754394531,2.0577707290649414,0.3141585886478424,1.3511508703231812
3279361478.0,-0.3381842076778412,0.0717970728874206,10.000094413757324,1.954660534858704,-0.0586565993726253,1.2063920497894287
3279369811.0,-0.3793705701828003,0.2398719489574432,10.216055870056152,2.0859463214874268,0.3138768076896667,1.3155471086502075
3279378144.0,-0.4685057997703552,0.3797043561935425,9.901493072509766,2.136176109313965,1.1011561155319214,1.2559173107147217
3279386477.0,-0.5123433470726013,0.2049495428800583,9.616501808166504,1.9693119525909424,1.0622352361679075,1.2481433153152466
3279394810.0,-0.4904488325119018,-0.0130309490486979,9.8892822265625,1.9288159608840945,0.1245748326182365,1.1733496189117432
3279403143.0,-0.443678617477417,0.0526147335767746,10.16980266571045,2.121588468551636,0.0593353733420372,1.167022943496704
3279411476.0,-0.4299038648605346,0.3719618916511535,10.053675651550291,2.262134075164795,0.5663948059082031,1.10180926322937
3279419809.0,-0.4258732497692108,0.3932469189167022,9.62437629699707,2.0337061882019043,0.8207440972328186,1.2362068891525269
3279428142.0,-0.3867141306400299,0.1416808813810348,9.68936538696289,1.9355524778366089,0.1957823932170868,1.3537250757217407
3279436475.0,-0.3803224861621856,-0.0110831605270504,10.078665733337402,1.9873188734054563,-0.031889721751213,1.2562886476516724
3279444808.0,-0.4338254332542419,0.1812233626842498,10.144094467163086,2.2174882888793945,0.567086398601532,1.2384098768234253
3279453141.0,-0.4877089858055115,0.3385974168777466,9.800163269042969,2.151672601699829,1.005025863647461,1.287832498550415
3279461474.0,-0.4957432448863983,0.2112417072057724,9.647054672241213,2.022167205810547,0.5678163766860962,1.2432382106781006
3279469807.0,-0.461533784866333,0.0785713419318199,9.951539039611816,1.963536024093628,-0.0134858964011073,1.1975936889648438
3279478140.0,-0.4382672309875488,0.1666144430637359,10.16248607635498,2.0529556274414062,0.1674914956092834,1.2484122514724731
3279486473.0,-0.4598250985145569,0.2929317057132721,9.917969703674316,2.2258002758026123,0.7577715516090393,1.3451827764511108
3279494806.0,-0.4025692045688629,0.2048082947731018,9.618204116821287,2.0583856105804443,0.6545461416244507,1.272976279258728
3279503139.0,-0.3630172312259674,0.0681887865066528,9.819125175476074,1.9455548524856567,0.0868834927678108,1.2089407444000244
3279511472.0,-0.3629840016365051,0.1358375251293182,10.185912132263184,2.1414523124694824,0.0658798143267631,1.1837362051010132
3279519805.0,-0.4595687687397003,0.3434859812259674,10.048218727111816,2.1653761863708496,0.7843846678733826,1.2256155014038086
3279528138.0,-0.5161532759666443,0.3006615936756134,9.667720794677734,2.0454249382019043,1.1994889974594116,1.3064284324645996
3279536471.0,-0.5103276968002319,0.0808235108852386,9.713404655456545,1.844890832901001,0.3704586923122406,1.2071220874786377
3279544804.0,-0.4671955108642578,0.0176094770431518,10.06229305267334,1.9779056310653689,-0.0973212867975235,1.133148193359375
3279553137.0,-0.4122637212276459,0.2660491466522217,10.15153980255127,2.311582326889038,0.3843160271644592,1.1411911249160769
3279561470.0,-0.4162459373474121,0.4717929065227508,9.850976943969728,2.277233600616455,0.7413784861564636,1.3250499963760376
3279569803.0,-0.3644230663776397,0.2360327094793319,9.616853713989258,2.01179313659668,0.3872872292995453,1.2566344738006592
3279578136.0,-0.3458618223667145,0.084582008421421,9.924872398376465,1.9755618572235107,-0.0080428700894117,1.1974526643753052
3279586469.0,-0.3803740739822387,0.1277969479560852,10.20459270477295,2.123753309249878,0.3901048302650451,1.3296605348587036
3279594802.0,-0.4829779863357544,0.3420471549034118,9.927430152893066,2.1962926387786865,0.810229480266571,1.308170199394226
3279603135.0,-0.4873553216457367,0.3245421946048736,9.682500839233398,2.0463979244232178,0.891836404800415,1.2699280977249146
3279611468.0,-0.4714175462722778,0.1461445838212967,9.820561408996582,1.9836688041687007,0.1300178617238998,1.2484121322631836
3279619801.0,-0.4634834229946136,0.109068177640438,10.075227737426758,2.038841724395752,0.0582211539149284,1.3902125358581543
3279628134.0,-0.4450214803218841,0.3234261870384216,10.023313522338867,2.2286689281463623,0.5359522700309753,1.234785556793213
3279636467.0,-0.4469209015369415,0.2418079078197479,9.689661979675291,2.093745946884156,0.7624205946922302,1.3123583793640137
3279644800.0,-0.3880975842475891,0.117154523730278,9.732192039489746,1.9922881126403809,0.217170313000679,1.288664937019348
3279653133.0,-0.3395155966281891,0.1296634972095489,10.062095642089844,2.0823349952697754,-0.0868962928652763,1.1888846158981323
3279661466.0,-0.3908926248550415,0.2808608412742615,10.120423316955566,2.2199089527130127,0.5589795112609863,1.3632665872573853
3279669799.0,-0.4955047965049743,0.3658837378025055,9.770034790039062,2.134831428527832,0.9718425273895264,1.37029767036438
3279678132.0,-0.5017493367195129,0.1246377155184745,9.63067626953125,1.98056960105896,0.714201807975769,1.336371660232544
3279686465.0,-0.4942215383052826,-0.0231966506689786,9.986369132995604,2.0535190105438232,0.0931077525019645,1.251332402229309
3279694798.0,-0.4446426928043365,0.1879530698060989,10.167137145996094,2.1755197048187256,0.1596279293298721,1.3384462594985962
3279703131.0,-0.4470596015453338,0.4058252871036529,9.881324768066406,2.286339282989502,0.735832929611206,1.244992733001709
3279711464.0,-0.4129184484481811,0.3638049066066742,9.696001052856444,2.1040685176849365,0.5675218105316162,1.3382540941238403
3279719797.0,-0.3735250830650329,0.0938173905014991,9.77985668182373,1.8519349098205569,0.1412369012832641,1.2429563999176023
3279728130.0,-0.3842160701751709,0.0504244640469551,10.128533363342283,2.023780584335327,0.158449649810791,1.1594794988632202
3279736463.0,-0.4802232384681701,0.2701816856861114,10.074939727783203,2.2698309421539307,0.8239843249320984,1.306018590927124
3279744796.0,-0.5075862407684326,0.3525348901748657,9.703330993652344,2.155770778656006,0.9555389881134032,1.2213380336761477
3279753129.0,-0.5084916353225708,0.1952206343412399,9.74418830871582,1.9804925918579104,0.4326756000518799,1.233607053756714
3279761462.0,-0.4651749432086944,0.1489638686180114,10.09211254119873,2.0921709537506104,-0.0060577667318284,1.3513046503067017
3279769795.0,-0.4450338184833526,0.2662235796451568,10.090478897094728,2.0899550914764404,0.3940109610557556,1.218866229057312
3279778128.0,-0.4414278864860534,0.3089840710163116,9.817527770996094,2.0799272060394287,0.8819749355316162,1.2321728467941284
3279786461.0,-0.3794356286525726,0.1334335654973983,9.644682884216309,2.037561416625977,0.4689710438251495,1.2591190338134766
3279794794.0,-0.3331606388092041,0.0419696383178234,9.938441276550291,2.0022647380828857,-0.0500886365771293,1.2641905546188354
3279803127.0,-0.3748976588249206,0.2481447756290435,10.171667098999023,2.12052583694458,0.202429324388504,1.252766728401184
3279811460.0,-0.471829354763031,0.3577759265899658,9.88546657562256,2.1562061309814453,1.032227873802185,1.2817106246948242
3279819793.0,-0.5113660097122192,0.2341704368591308,9.663413047790527,1.9748320579528809,0.8546957969665527,1.3276883363723757
3279828126.0,-0.5000218152999878,-0.0303329546004533,9.824858665466309,1.981529951095581,0.1183249577879905,1.2822357416152954
3279836459.0,-0.46306112408638,0.0465661324560642,10.182775497436523,2.2154903411865234,-0.0493330173194408,1.2585937976837158
3279844792.0,-0.4537538588047027,0.3516461253166199,10.040494918823242,2.3076632022857666,0.5161781311035156,1.2560453414916992
3279853125.0,-0.4147405624389648,0.3939417600631714,9.6885404586792,2.185867547988892,0.772781491279602,1.1732088327407837
3279861458.0,-0.3596740365028381,0.1486434638500213,9.704601287841797,1.949781060218811,0.3656432032585144,1.1349411010742188
3279869791.0,-0.3456744849681854,0.028115002438426,10.052688598632812,2.0484602451324463,-0.0083758551627397,1.222272872924805
3279878124.0,-0.3982782661914825,0.1948340833187103,10.097973823547363,2.2196786403656006,0.5177149772644043,1.2584017515182495
3279886457.0,-0.4634325802326202,0.3413261473178863,9.787043571472168,2.22533917427063,0.9449604153633118,1.376509189605713
3279894790.0,-0.5035064220428467,0.2131534367799759,9.67540168762207,2.0284554958343506,0.6326844692230225,1.3196837902069092
3279903123.0,-0.4973757565021515,0.0748641639947891,9.967498779296877,1.9988065958023071,-0.0257294978946447,1.2547131776809692
3279911456.0,-0.4855670630931854,0.2018592208623886,10.16238498687744,2.011870145797729,0.2580890357494354,1.2799177169799805
3279919789.0,-0.4764039814472198,0.3079224824905395,9.859712600708008,2.0941426753997803,0.7086433172225952,1.3765088319778442
3279928122.0,-0.4250443279743194,0.2149927765130996,9.62804126739502,2.033872604370117,0.521531343460083,1.3679282665252686
3279936455.0,-0.3519326746463775,0.0608796216547489,9.877209663391112,2.010960817337036,-0.0240773800760507,1.2411762475967407
3279944788.0,-0.3307166993618011,0.1526040434837341,10.106111526489258,2.068464756011963,0.1355377286672592,1.2233232259750366
3279953121.0,-0.4154382348060608,0.3598644137382507,9.99194622039795,2.1483683586120605,0.8110491633415222,1.2122704982757568
3279961454.0,-0.4759619235992431,0.289394736289978,9.677879333496094,2.042325496673584,0.936738133430481,1.4052224159240725
3279969787.0,-0.4973364174365997,0.0537749305367469,9.751679420471191,1.9798775911331177,0.3382359445095062,1.2620388269424438
3279978120.0,-0.4688634872436523,0.0301951486617326,10.115342140197754,2.185176134109497,0.0950032025575637,1.2555586099624634
3279986453.0,-0.4613552391529083,0.3176832795143127,10.108092308044434,2.2862753868103027,0.4213285744190216,1.1926757097244265
3279994786.0,-0.4445951879024505,0.4357312023639679,9.756685256958008,2.229872703552246,0.8212692141532898,1.1649097204208374
3280003119.0,-0.3914942443370819,0.2350907325744629,9.671786308288574,2.00782322883606,0.3862626850605011,1.2848100662231443
3280011452.0,-0.3615149259567261,0.0333639904856681,9.96897029876709,1.9964760541915887,-0.0112830707803368,1.313395619392395
3280019785.0,-0.3939999341964721,0.1673004180192947,10.14586067199707,2.1019811630249023,0.3527592718601227,1.229995608329773
3280028118.0,-0.4640779495239258,0.3569844961166382,9.90418815612793,2.2674617767333984,1.000069499015808,1.255366325378418
3280036451.0,-0.492494136095047,0.2856089770793915,9.696111679077148,2.05496597290039,0.7332202196121216,1.332542061805725
3280044784.0,-0.480433851480484,0.1283294260501861,9.894859313964844,1.9604109525680544,0.2139300554990768,1.317544937133789
3280053117.0,-0.4556434154510498,0.1793174743652343,10.121957778930664,2.0262527465820312,0.1443746387958526,1.18121337890625
3280061450.0,-0.4775277376174927,0.3119572699069977,9.964619636535645,2.1447184085845947,0.7285585403442383,1.2198652029037476
3280069783.0,-0.4579819142818451,0.2591638267040252,9.67719268798828,1.9767146110534668,0.6220289468765259,1.281364917755127
3280078116.0,-0.363305002450943,0.0843293815851211,9.826374053955078,1.9912633895874023,0.1155330017209053,1.2432509660720823
3280086449.0,-0.3430854976177215,0.1366613954305648,10.1321382522583,2.151596069335937,0.0588359050452709,1.258709192276001
3280094782.0,-0.4048666954040527,0.3151159584522247,10.066076278686523,2.217475652694702,0.6188655495643616,1.324486494064331
3280103115.0,-0.4763113856315613,0.319637656211853,9.738442420959473,2.085472822189331,1.0587517023086548,1.25885009765625
3280111448.0,-0.4980887174606323,0.0844909101724624,9.700955390930176,1.8728489875793457,0.5185474157333374,1.243635177612305
3280119781.0,-0.4650963544845581,-0.0182428285479545,10.008214950561523,2.0419797897338867,0.0748576074838638,1.288152813911438
3280128114.0,-0.4620163440704345,0.2276006340980529,10.141984939575195,2.2961626052856445,0.254375010728836,1.2585042715072632
3280136447.0,-0.4570794701576233,0.4161744713783264,9.84219741821289,2.272981643676758,0.673500657081604,1.2487963438034058
3280144780.0,-0.4178062379360199,0.296387106180191,9.644465446472168,2.055439710617065,0.5874624252319336,1.2612193822860718
3280153113.0,-0.3762725293636322,0.0462992712855339,9.867727279663086,1.9214519262313845,-0.0166108310222625,1.2916492223739624
3280161446.0,-0.3938171863555908,0.109893724322319,10.14777946472168,2.1241629123687744,0.3048349916934967,1.2522798776626587
3280169779.0,-0.4655390083789825,0.319404274225235,9.987588882446287,2.253873348236084,0.9377627968788148,1.281710863113403
3280178112.0,-0.5011770725250244,0.3299554586410522,9.674307823181152,2.048216819763184,0.8724720478057861,1.240523099899292
3280186445.0,-0.4799955189228058,0.1372557282447815,9.802653312683104,1.944453239440918,0.1315290927886963,1.3057622909545898
3280194778.0,-0.4624954760074615,0.1283913552761078,10.115445137023926,2.03853440284729,0.0055839037522673,1.235451340675354
3280203111.0,-0.4859106242656708,0.2846189141273498,10.042293548583984,2.1404407024383545,0.4859916567802429,1.2563397884368896
3280211444.0,-0.4624360501766205,0.3309020698070526,9.709675788879396,2.1318726539611816,0.785204291343689,1.165755033493042
3280219777.0,-0.3887984454631805,0.1245965585112571,9.699021339416504,2.007489919662476,0.2824737727642059,1.1960564851760864
3280228110.0,-0.3495855033397674,0.0876631885766983,10.061233520507812,2.035153388977051,-0.0504728518426418,1.1963129043579102
3280236443.0,-0.3919860124588012,0.2680717706680298,10.142069816589355,2.2702407836914062,0.49591726064682,1.2629098892211914
3280244776.0,-0.4703326821327209,0.3750897049903869,9.83292293548584,2.047640323638916,1.2074933052062988,1.218968629837036
3280253109.0,-0.5030338168144226,0.1872195750474929,9.642784118652344,1.9992806911468504,0.8037362098693848,1.3170199394226074
3280261442.0,-0.4908880889415741,3.52606875821e-05,9.919405937194824,2.062611818313598,0.0455421060323715,1.316110610961914
3280269775.0,-0.4689341485500335,0.1582330763339996,10.173649787902832,2.172240972518921,-0.1162502095103263,1.143983006477356
3280278108.0,-0.4392390847206116,0.4011056125164032,9.990113258361816,2.221855401992798,0.6650736331939697,1.2554048299789429
3280286441.0,-0.3925349116325378,0.3423160016536712,9.667724609375,2.01371431350708,0.7261635661125183,1.2606302499771118
3280294774.0,-0.3427787721157074,0.116854690015316,9.815579414367676,1.8412792682647705,0.2264298200607299,1.2306357622146606
3280303107.0,-0.3379169106483459,0.0766792073845863,10.11695384979248,2.003007650375366,0.0681850984692573,1.1883981227874756
3280311440.0,-0.4049639701843261,0.2653841078281402,10.087279319763184,2.2087666988372803,0.7611269354820251,1.171082854270935
3280319773.0,-0.4814158678054809,0.3511049151420593,9.739877700805664,2.07285737991333,1.0302814245224,1.3539685010910034
3280328106.0,-0.5010150671005249,0.1806196272373199,9.705883026123049,1.9718862771987915,0.3987112045288086,1.3616015911102295
3280336439.0,-0.4812598824501037,0.0944394171237945,10.01091480255127,1.9881510734558103,-0.0428654253482818,1.216010332107544
3280344772.0,-0.4760628938674927,0.2314023375511169,10.107723236083984,2.096320390701294,0.3545266091823578,1.2010258436203003
3280353105.0,-0.4543897211551666,0.2970130443572998,9.81047821044922,2.034282684326172,0.7813878655433655,1.3010238409042358
3280361438.0,-0.3860254287719726,0.162667229771614,9.623215675354004,2.0719356536865234,0.4351858794689178,1.2885242700576782
3280369771.0,-0.3389078676700592,0.0582750886678695,9.935123443603516,2.0363316535949707,-0.170501172542572,1.3208749294281006
3280378104.0,-0.3615149259567261,0.2069195955991745,10.154813766479492,2.12818455696106,0.2037868648767471,1.2973098754882812
3280386437.0,-0.4495903253555298,0.3583452403545379,9.930411338806152,2.23174262046814,0.9550779461860656,1.2746155261993408
3280394770.0,-0.5015113949775696,0.242232859134674,9.681361198425291,2.054517984390259,0.8031344413757324,1.2888572216033936
3280403103.0,-0.5032217502593994,0.0005147542105987,9.833032608032228,1.983937740325928,0.2863031029701233,1.270350694656372
3280411436.0,-0.4866601824760437,0.0707414224743843,10.113834381103516,2.2164382934570312,0.0862303227186203,1.1351076364517212
3280419769.0,-0.4807835221290588,0.3495374619960785,10.028830528259276,2.27984619140625,0.5745016932487488,1.2131927013397217
3280428102.0,-0.4489839673042297,0.3986044228076935,9.73184585571289,2.1339988708496094,0.6543668508529663,1.3538661003112793
3280436435.0,-0.3734956383705139,0.1705889850854873,9.674678802490234,1.9386900663375848,0.0984355062246322,1.1802014112472534
3280444768.0,-0.349775493144989,0.0522729344666004,10.03393268585205,2.009410858154297,0.0897266715764999,1.3106292486190796
3280453101.0,-0.4015271067619324,0.2296268045902252,10.089856147766112,2.193641662597656,0.4987732470035553,1.2349008321762085
3280461434.0,-0.458804190158844,0.3274929225444793,9.82648468017578,2.23926043510437,0.9610845446586608,1.3322603702545166
3280469767.0,-0.4851711392402649,0.2433047592639923,9.703617095947266,1.9902262687683103,0.6991150379180908,1.1652172803878784
3280478100.0,-0.4741570949554443,0.1077118068933487,9.971026420593262,1.9437617063522337,-0.0209140218794345,1.2569929361343384
3280486433.0,-0.4833110272884369,0.1964121609926223,10.121068954467772,2.109229803085327,0.1632907390594482,1.2866287231445312
3280494766.0,-0.4696424901485443,0.3110810220241546,9.890867233276367,2.115197896957397,0.7522645592689514,1.2515628337860107
3280503099.0,-0.4145081639289856,0.2166401445865631,9.67119598388672,2.041992664337158,0.6740130186080933,1.200231909751892
3280511432.0,-0.3469857275485992,0.059444535523653,9.86455535888672,1.9785969257354736,-0.0005763202789239,1.1856060028076172
3280519765.0,-0.3586218059062958,0.1565655022859573,10.14496612548828,2.125392436981201,0.0937993377447128,1.269031643867493
3280528098.0,-0.4232732653617859,0.360267698764801,9.983315467834473,2.139582395553589,0.7817208170890808,1.3218737840652466
3280536431.0,-0.4787808358669281,0.3015928268432617,9.715270042419434,2.0332581996917725,0.9886838793754578,1.32610023021698
3280544764.0,-0.4935814142227173,0.0580396577715873,9.756786346435549,2.002636194229126,0.3302315473556518,1.2386149168014526
3280553097.0,-0.480021595954895,0.0400033108890056,10.107766151428224,2.051469564437866,-0.0611796006560325,1.158403754234314
3280561430.0,-0.4577425718307495,0.291255921125412,10.110289573669434,2.340474843978882,0.2988156974315643,1.2323520183563232
3280569763.0,-0.4460835754871368,0.411895751953125,9.79329776763916,2.171395778656006,0.7037767767906189,1.1831473112106323
3280578096.0,-0.3953265845775604,0.2337705194950103,9.66248893737793,1.9366155862808228,0.4036291539669037,1.3162388801574707
3280586429.0,-0.3544888198375702,0.0546328648924827,9.955740928649902,1.9100278615951536,-0.028086008504033,1.229867458343506
3280594762.0,-0.3819997608661651,0.1634812802076339,10.158066749572754,2.124598503112793,0.3289124369621277,1.3123453855514526
3280603095.0,-0.474609762430191,0.3448229134082794,9.913637161254885,2.1931934356689453,1.0220080614089966,1.2631148099899292
3280611428.0,-0.480845957994461,0.2838164567947387,9.63640594482422,2.033782958984375,0.792133092880249,1.2663549184799194
3280619761.0,-0.4701375067234039,0.1208197623491287,9.839406967163086,1.9259470701217647,0.1263422071933746,1.319273829460144
3280628094.0,-0.4806766211986542,0.1236526891589164,10.134844779968262,2.0257914066314697,0.0136651955544948,1.299986481666565
3280636427.0,-0.4751659333705902,0.3192712068557739,9.97056484222412,2.080388069152832,0.6598995327949524,1.3149068355560305
3280644760.0,-0.4440348446369171,0.2826347351074219,9.652243614196776,1.9782644510269165,0.7171474099159241,1.2408818006515503
3280653093.0,-0.3858285248279571,0.0974936038255691,9.708226203918455,1.981696367263794,-0.0022156313061714,1.1919326782226562
3280661426.0,-0.3189970254898071,0.1102176159620285,10.084771156311035,2.0694892406463623,-0.0630366206169128,1.1616950035095217
3280669759.0,-0.3709566593170166,0.3114384114742279,10.098387718200684,2.2285280227661133,0.5820194482803345,1.2667902708053589
3280678092.0,-0.4544501900672912,0.3318122029304504,9.745903968811035,2.119104146957397,1.033163070678711,1.2659451961517334
3280686425.0,-0.4899332225322723,0.1264448463916778,9.67475414276123,1.963049292564392,0.6116166710853577,1.217239499092102
3280694758.0,-0.4779697060585022,-0.0186567828059196,9.985888481140137,2.0087451934814453,-0.0381011739373207,1.2464910745620728
3280703091.0,-0.4767525494098663,0.1905533969402313,10.176526069641112,2.318946123123169,0.2025957852602005,1.2252953052520752
3280711424.0,-0.4752924740314483,0.4191796779632568,9.888704299926758,2.252464771270752,0.722782552242279,1.246849775314331
3280719757.0,-0.4353041350841522,0.3146281242370605,9.63279151916504,2.0075411796569824,0.4909480810165405,1.3488454818725586
3280728090.0,-0.3503113985061645,0.0580773465335369,9.848902702331545,1.925819039344788,0.1021879911422729,1.2502946853637695
3280736423.0,-0.3441672921180725,0.0875272676348686,10.106865882873535,2.091069459915161,0.0738970711827278,1.22953462600708
3280744756.0,-0.4041841626167297,0.2880414724349975,10.036293029785156,2.234842300415039,0.8362280130386353,1.2767159938812256
3280753089.0,-0.4404695630073547,0.3368470072746277,9.68704605102539,2.2029008865356445,0.9838170409202576,1.2892411947250366
3280761422.0,-0.4633716344833374,0.1591876000165939,9.782434463500977,1.9258830547332764,0.4373374581336975,1.3127038478851318
3280769755.0,-0.482095330953598,0.0944265872240066,10.0955228805542,1.998115062713623,0.0330679789185524,1.304456114768982
3280778088.0,-0.493967056274414,0.2700813412666321,10.095345497131348,2.152338743209839,0.5938148498535156,1.2777405977249146
3280786421.0,-0.4868635237216949,0.3142329454421997,9.760805130004885,2.036382913589477,0.788226842880249,1.2965925931930542
3280794754.0,-0.4191153645515442,0.1235009655356407,9.662132263183594,2.0142266750335693,0.3155674040317535,1.300818920135498
3280803087.0,-0.3314608633518219,0.0599053166806697,9.999611854553224,2.0615234375,-0.0981281250715255,1.284054398536682
3280811420.0,-0.3403713703155517,0.2387690097093582,10.179536819458008,2.1458070278167725,0.2476384341716766,1.2482842206954956
3280819753.0,-0.4416180849075317,0.3634409010410309,9.8814697265625,2.137558937072754,1.059584140777588,1.312678337097168
3280828086.0,-0.4992823302745819,0.1922366619110107,9.647823333740234,1.9749854803085327,0.8339738249778748,1.271772384643555
3280836419.0,-0.461836040019989,-0.0161060243844985,9.890464782714844,2.0335655212402344,0.112830713391304,1.183710694313049
3280844752.0,-0.4628377258777618,0.0879858955740928,10.154706954956056,2.174366950988769,-0.0017289607785642,1.3085287809371948
3280853085.0,-0.4799618721008301,0.3937337100505829,10.039490699768066,2.378448247909546,0.5795092582702637,1.1603631973266602
3280861418.0,-0.4469515681266784,0.4140084385871887,9.663352966308594,2.127838611602783,0.685065507888794,1.2684041261672974
3280869751.0,-0.3947854936122894,0.1489972025156021,9.703753471374512,1.9617942571640008,0.293641597032547,1.2506920099258425
3280878084.0,-0.3494662046432495,0.0343454331159591,10.061010360717772,1.9173022508621216,0.0655980482697486,1.1889102458953855
3280886417.0,-0.4189934432506561,0.2013666033744812,10.081689834594728,2.1609065532684326,0.5815584063529968,1.2866414785385132
3280894750.0,-0.4861250519752502,0.3467966020107269,9.770127296447754,2.1583707332611084,0.9890297651290894,1.248604416847229
3280903083.0,-0.4836823046207428,0.2421340495347976,9.683276176452637,1.8312642574310305,0.5727855563163757,1.226845145225525
3280911416.0,-0.4834508895874023,0.1141973137855529,9.984819412231444,1.9282394647598269,0.0481035336852073,1.2402667999267578
3280919749.0,-0.4348472058773041,0.2093188762664795,10.108097076416016,2.123957872390747,0.1847554743289947,1.296797513961792
3280928082.0,-0.4512186050415039,0.3436640501022339,9.847867965698242,2.125571727752685,0.8630973696708679,1.2281001806259155
3280936415.0,-0.4164230525493622,0.2275553941726684,9.646652221679688,1.99433708190918,0.6445950269699097,1.2212483882904053
3280944748.0,-0.3455591201782226,0.0611201077699661,9.85043716430664,2.0046212673187256,-0.0638434886932373,1.2402924299240112
3280953081.0,-0.3571743965148926,0.1557722687721252,10.18073272705078,2.110382318496704,0.0839122310280799,1.418413758277893
3280961414.0,-0.4558828771114349,0.3738776445388794,9.988201141357422,2.1939361095428467,0.92800372838974,1.1838130950927734
3280969747.0,-0.5089450478553772,0.3110067546367645,9.654008865356444,2.0780956745147705,0.990745723247528,1.243814468383789
3280978080.0,-0.5106019377708435,0.0493432804942131,9.719993591308594,1.9481418132781985,0.3366222679615021,1.1998732089996338
3280986413.0,-0.4617067277431488,0.0056663276627659,10.107340812683104,2.040276050567627,-0.0790071040391922,1.178741455078125
3280994746.0,-0.4280087351799011,0.2929646372795105,10.126060485839844,2.288939476013184,0.3605459630489349,1.297770857810974
3281003079.0,-0.390694260597229,0.4426262080669403,9.775845527648926,2.104696035385132,0.7692979574203491,1.2821205854415894
3281011412.0,-0.3719634115695953,0.23819600045681,9.638294219970703,2.016685485839844,0.4671011567115783,1.1510523557662964
3281019745.0,-0.3392671644687652,0.0214648805558681,9.96658992767334,1.9789557456970213,0.0129864159971475,1.2155234813690186
3281028078.0,-0.387006402015686,0.1456903964281082,10.20775032043457,2.153017282485962,0.3385305404663086,1.284797191619873
3281036411.0,-0.4834718406200409,0.3529805839061737,9.90154266357422,2.265591621398926,1.0358268022537231,1.3203498125076294
3281044744.0,-0.5281575322151184,0.3141409158706665,9.613877296447754,2.1325130462646484,0.795091450214386,1.242034077644348
3281053077.0,-0.5120185613632202,0.1326429694890976,9.858702659606934,1.938562273979187,0.1577837020158767,1.181943416595459
3281061410.0,-0.4942376017570495,0.1163005903363227,10.146684646606444,2.032233476638794,0.0391897782683372,1.2202876806259155
3281069743.0,-0.4821023941040039,0.2851317524909973,10.012079238891602,2.150366306304932,0.5592868328094482,1.2555586099624634
3281078076.0,-0.4513880312442779,0.2767404019832611,9.690207481384276,2.053826093673706,0.7621258497238159,1.334143042564392
3281086409.0,-0.3722571730613708,0.0847038403153419,9.740095138549805,1.9498834609985352,0.1888537555932998,1.2659322023391724
3281094742.0,-0.3216269314289093,0.0994639471173286,10.041827201843262,2.099906206130981,-0.019658925011754,1.2456459999084473
3281103075.0,-0.3654316961765289,0.295021116733551,10.112924575805664,2.2522084712982178,0.4713018834590912,1.2327619791030884
3281111408.0,-0.4802342057228088,0.3725627660751343,9.75643539428711,2.168296337127685,1.1049469709396362,1.3184672594070437
3281119741.0,-0.5418710112571716,0.132245659828186,9.63603687286377,1.9684282541275024,0.7264196276664734,1.306274652481079
3281128074.0,-0.494361013174057,-0.062841385602951,9.947707176208496,1.9497554302215576,-0.0746014565229415,1.250666260719299
3281136407.0,-0.4508337080478668,0.1871188580989837,10.214187622070312,2.2422447204589844,0.1695150285959243,1.305737018585205
3281144740.0,-0.4556714594364166,0.4056612253189087,9.969159126281738,2.2406179904937744,0.7673384547233582,1.212052822113037
3281153073.0,-0.4283268749713897,0.3509768843650818,9.603551864624023,2.054249048233032,0.6330686211585999,1.3417633771896362
3281161406.0,-0.3417355120182037,0.1160311996936798,9.801006317138672,1.7562017440795898,0.0571581646800041,1.24699068069458
3281169739.0,-0.326652318239212,0.091828167438507,10.137978553771973,2.0631754398345947,-0.0945037230849266,1.2574539184570312
3281178072.0,-0.4270747900009155,0.2439336329698562,10.043194770812988,2.2197041511535645,0.7075163722038269,1.3296349048614502
3281186405.0,-0.4570808112621307,0.3756260871887207,9.743922233581545,2.1769540309906006,1.0890148878097534,1.2012308835983276
3281194738.0,-0.464906096458435,0.1795741319656372,9.724732398986816,1.973884344100952,0.3643112480640411,1.2542778253555298
3281203071.0,-0.4725864827632904,0.0992296412587165,10.089458465576172,1.9086319208145144,-0.0555572733283042,1.3571062088012695
3281211404.0,-0.4537461698055267,0.2589365243911743,10.122260093688965,2.1686549186706543,0.438310831785202,1.1719025373458862
3281219737.0,-0.4656062126159668,0.2964535057544708,9.822593688964844,2.077519178390503,0.9094589948654176,1.3260232210159302
3281228070.0,-0.4316751360893249,0.1965823173522949,9.614030838012695,1.9885741472244265,0.4495170712471008,1.2847716808319092
3281236403.0,-0.3357484042644501,0.0447310097515583,9.95370388031006,1.92708683013916,0.0241029933094978,1.180637001991272
3281244736.0,-0.3286384642124176,0.2133476436138153,10.206722259521484,2.12052583694458,0.1162886396050453,1.1664979457855225
3281253069.0,-0.4380074143409729,0.4179849326610565,9.928292274475098,2.1550025939941406,0.8509050011634827,1.2534071207046509
3281261402.0,-0.4879040122032165,0.2377172857522964,9.622974395751951,2.015648365020752,1.0297307968139648,1.2248599529266355
3281269735.0,-0.4850237965583801,0.0191440284252166,9.81903839111328,1.9303911924362185,0.0757412984967231,1.3163154125213623
3281278068.0,-0.4419455826282501,0.0495913289487361,10.16175651550293,2.1562063694000244,0.0386262722313404,1.238064169883728
3281286401.0,-0.4793402552604675,0.3450051248073578,10.08448314666748,2.3115310668945312,0.5438414216041565,1.2651383876800537
3281294734.0,-0.4749960601329803,0.4320180714130401,9.703688621520996,2.149956703186035,0.9457287192344666,1.2250008583068848
3281303067.0,-0.3905479311943054,0.1927533894777298,9.617192268371582,1.963382244110108,0.2824481427669525,1.285245418548584
3281311400.0,-0.3797798454761505,0.0452787205576896,10.051628112792969,1.9561079740524288,-0.0507417991757392,1.237679958343506
3281319733.0,-0.3976609706878662,0.2096471339464187,10.165037155151367,2.198392868041992,0.4509642124176025,1.2321728467941284
3281328066.0,-0.5052312016487122,0.3571088016033172,9.843548774719238,2.06225323677063,1.0747478008270264,1.3301728963851929
3281336399.0,-0.4923673272132873,0.2565030753612518,9.657144546508787,2.0088987350463867,0.7156617045402527,1.1998475790023804
3281344732.0,-0.4838400185108185,0.1091502532362937,9.91443920135498,1.8666117191314693,0.0216696429997682,1.1938027143478394
3281353065.0,-0.4563389122486114,0.189293548464775,10.185526847839355,2.001906156539917,0.0455164909362793,1.276434063911438
3281361398.0,-0.4808014035224914,0.3421409726142883,9.94229507446289,2.143860340118408,0.7127416729927063,1.332298755645752
3281369731.0,-0.4362861216068268,0.2433126717805862,9.615559577941896,2.062342882156372,0.6518438458442688,1.290176272392273
3281378064.0,-0.367126852273941,0.0934603065252304,9.815910339355469,1.9867807626724243,0.0114623690024018,1.1990662813186646
3281386397.0,-0.3604223430156708,0.1058595180511474,10.151890754699709,2.1312966346740723,0.0758821740746498,1.3170713186264038
3281394730.0,-0.412512332201004,0.3113715648651123,10.061086654663086,2.1782472133636475,0.7163405418395996,1.2544188499450684
3281403063.0,-0.4915045499801636,0.3237805664539337,9.702876091003418,2.1048243045806885,1.075464963912964,1.2429052591323853
3281411396.0,-0.4872092008590698,0.0737971812486648,9.706006050109863,1.915919303894043,0.5212497115135193,1.2348880767822266
3281419729.0,-0.4423561096191406,0.0004358055302873,10.046297073364258,1.993812084197998,-0.0058528529480099,1.2831709384918213
3281428062.0,-0.4329818487167358,0.2569483816623688,10.16549015045166,2.2301928997039795,0.3481358885765075,1.2390245199203491
3281436395.0,-0.4039169251918793,0.4273892939090729,9.832011222839355,2.199737787246704,0.7901607751846313,1.2749615907669067
3281444728.0,-0.3516801297664642,0.2542799413204193,9.63730239868164,2.024229049682617,0.617315948009491,1.1658191680908203
3281453061.0,-0.3229164481163025,0.0119207985699176,9.894124984741213,1.895197391510009,0.0215415731072425,1.2633452415466309
3281461394.0,-0.3686338663101196,0.0995656847953796,10.179165840148926,2.205270528793335,0.1936308145523071,1.2146655321121216
3281469727.0,-0.4640532433986664,0.3345302641391754,9.990164756774902,2.17171573638916,0.9777593016624452,1.224757432937622
3281478060.0,-0.4911389052867889,0.3067640662193298,9.653095245361328,2.0370874404907227,0.851660430431366,1.2266273498535156
3281486393.0,-0.4867459833621979,0.1485401540994644,9.792922019958496,1.9300708770751955,0.2976501882076263,1.1663825511932373
3281494726.0,-0.4811754822731018,0.1479853093624115,10.142011642456056,1.9610254764556885,0.1039425507187843,1.1934696435928345
3281503059.0,-0.4633862376213074,0.2813924551010132,10.013190269470217,2.151173114776612,0.5256425738334656,1.250627875328064
3281511392.0,-0.4227293133735657,0.2834067642688751,9.743308067321776,2.083679676055908,0.8191561698913574,1.24934720993042
3281519725.0,-0.3678230345249176,0.1020734384655952,9.720854759216309,1.977150082588196,0.2972147762775421,1.1867717504501345
3281528058.0,-0.329111784696579,0.0883108675479888,10.08839988708496,2.010499954223633,-0.0150099415332078,1.2421494722366333
3281536391.0,-0.3735802769660949,0.2765458226203918,10.08358669281006,2.204988718032837,0.5631930232048035,1.3603336811065674
3281544724.0,-0.4866961538791656,0.3516116142272949,9.787561416625977,2.1354329586029053,1.10438334941864,1.4343715906143188
3281553057.0,-0.5304014086723328,0.1262679398059845,9.617369651794434,2.0447843074798584,0.7020093202590942,1.1340446472167969
3281561390.0,-0.4955499470233917,-0.0103762838989496,9.929849624633787,2.0438365936279297,0.0211061276495456,1.3480771780014038
3281569723.0,-0.4922717213630676,0.1786027401685714,10.171412467956545,2.2282848358154297,0.1920043230056762,1.2870640754699707
3281578056.0,-0.4788574278354645,0.4028501212596893,9.933470726013184,2.308406114578247,0.6849247217178345,1.2819669246673584
3281586389.0,-0.4256435632705688,0.3322611451148987,9.628410339355469,2.0707826614379883,0.608363687992096,1.346284031867981
3281594722.0,-0.3927240073680877,0.0951427742838859,9.81755256652832,1.887026309967041,0.1172875836491584,1.2369369268417358
3281603055.0,-0.36768838763237,0.091465912759304,10.119184494018556,2.117042064666748,0.1103461235761642,1.2580429315567017
3281611388.0,-0.4204622209072113,0.2837855815887451,10.043476104736328,2.324927568435669,0.8040820956230164,1.3237948417663574
3281619721.0,-0.463196724653244,0.3483138382434845,9.735784530639648,2.080336809158325,0.9404008388519288,1.239344596862793
3281628054.0,-0.4805245995521545,0.1747477054595947,9.73364543914795,1.9982945919036863,0.3861858546733856,1.3686710596084597
3281636387.0,-0.4873614013195038,0.1037550419569015,10.077240943908691,2.0312600135803223,0.1097570061683654,1.1526662111282349
3281644720.0,-0.4603559076786041,0.2555734813213348,10.108986854553224,2.0866124629974365,0.3847258687019348,1.2423416376113892
3281653053.0,-0.4714095294475555,0.3209344446659088,9.817428588867188,2.158665180206299,0.8077704906463623,1.2729251384735107
3281661386.0,-0.4187424182891845,0.1794128715991974,9.645193099975586,1.9753696918487549,0.3403619229793548,1.148106813430786
3281669719.0,-0.3532735705375671,0.0948670879006385,9.99008846282959,2.0330660343170166,-0.1374203860759735,1.2753456830978394
3281678052.0,-0.3385491371154785,0.227335050702095,10.13469696044922,2.14416766166687,0.2218704968690872,1.287268877029419
3281686385.0,-0.4249384105205536,0.3563686609268188,9.894832611083984,2.054645776748657,0.8875331878662109,1.2637550830841064
3281694718.0,-0.466083288192749,0.2046031504869461,9.650886535644531,2.040609359741211,0.8800026774406433,1.2847845554351809
3281703051.0,-0.4588346481323242,0.0216876752674579,9.859454154968262,1.9549680948257449,0.2254437059164047,1.3401241302490234
3281711384.0,-0.4377270638942718,0.1280269175767898,10.149776458740234,2.160496950149536,0.1509062647819519,1.303546905517578
3281719717.0,-0.4519916176795959,0.3781623542308807,10.02941608428955,2.2097270488739014,0.4890397489070892,1.278726577758789
3281728050.0,-0.4415114521980285,0.3704080879688263,9.694462776184082,2.100200653076172,0.7695668339729309,1.200705647468567
3281736383.0,-0.3841237723827362,0.1202332451939582,9.745515823364258,1.8727593421936035,0.2352411597967147,1.303892731666565
3281744716.0,-0.3661112785339355,0.0596667304635047,10.045315742492676,1.959770679473877,-0.001908260397613,1.1547409296035769
3281753049.0,-0.4098133444786072,0.2409323900938034,10.09148406982422,2.1558732986450195,0.583466649055481,1.2546106576919556
3281761382.0,-0.4844155013561249,0.3728298246860504,9.798396110534668,2.05709195137024,0.9487127661705016,1.1590313911437988
3281769715.0,-0.4828364253044128,0.2145764976739883,9.693583488464355,1.99021315574646,0.5968756675720215,1.2513706684112549
3281778048.0,-0.4779050350189209,0.0924753621220588,9.968853950500488,1.95013964176178,-0.01363957952708,1.191881537437439
3281786381.0,-0.4717331826686859,0.1925480961799621,10.119720458984377,2.075137138366699,0.3328826427459717,1.3571445941925049
3281794714.0,-0.4818419516086578,0.3170447051525116,9.862634658813477,2.1717028617858887,0.8741113543510437,1.297489047050476
3281803047.0,-0.427291065454483,0.1765439361333847,9.652077674865724,2.055363178253174,0.5746297836303711,1.2793285846710205
3281811380.0,-0.3597738146781921,0.0490081533789634,9.897518157958984,2.010396957397461,0.0144336204975843,1.1093653440475464
3281819713.0,-0.3652380704879761,0.1701049953699112,10.143296241760254,2.1198854446411133,0.1183377802371978,1.1375025510787964
3281828046.0,-0.4593363404273987,0.372389554977417,9.9922513961792,2.178913354873657,0.8618294596672058,1.2462478876113892
3281836379.0,-0.5096970796585083,0.2598782777786255,9.660358428955078,2.010141134262085,0.9469197988510132,1.2125394344329834
3281844712.0,-0.5097063779830933,0.0046105440706014,9.75449275970459,1.9917371273040767,0.2718438804149627,1.3149837255477903
3281853045.0,-0.4768555462360382,0.0506322830915451,10.10861873626709,2.095206022262573,-0.007709885481745,1.2257821559906006
3281861378.0,-0.4798705577850342,0.3322025835514068,10.096338272094728,2.2780919075012207,0.4981072247028351,1.2918667793273926
3281869711.0,-0.4427548944950104,0.4191954731941223,9.741812705993652,2.183024644851685,0.7355384230613708,1.2592471837997437
3281878044.0,-0.3921128511428833,0.2224773913621902,9.685680389404297,1.9046235084533687,0.2087560296058654,1.2391399145126345
3281886377.0,-0.3418289422988891,0.0323510095477104,9.987576484680176,1.944299578666687,-0.0674550831317901,1.2169322967529297
3281894710.0,-0.3672029078006744,0.1732312440872192,10.146465301513672,2.097229480743408,0.4188823997974396,1.1926372051239014
3281903043.0,-0.4424962699413299,0.3639988303184509,9.872513771057127,2.193129062652588,1.0030406713485718,1.2633836269378662
3281911376.0,-0.4559075236320495,0.265727549791336,9.672635078430176,2.082040309906006,0.7565292716026306,1.3615630865097046
3281919709.0,-0.4719100892543793,0.1147981956601142,9.914887428283691,1.930749773979187,0.052253033965826,1.2113994359970093
3281928042.0,-0.4572637975215912,0.1891104131937027,10.170051574707031,2.09783148765564,0.1738950461149215,1.2610913515090942
3281936375.0,-0.4922220408916473,0.3157972991466522,9.944466590881348,2.203003406524658,0.6446591019630432,1.3266637325286863
3281944708.0,-0.4459170997142792,0.2481584846973419,9.679266929626465,1.968735933303833,0.6626403331756592,1.295619249343872
3281953041.0,-0.3670372068881988,0.0764100104570388,9.803643226623535,1.97672700881958,0.0919294878840446,1.2280999422073364
3281961374.0,-0.3280907869338989,0.1393444985151291,10.122238159179688,2.091991424560547,-0.0272151250392198,1.217137098312378
3281969707.0,-0.4026257991790771,0.3285775184631347,10.068354606628418,2.1348180770874023,0.7021117210388184,1.3221553564071655
3281978040.0,-0.457043707370758,0.317981094121933,9.739075660705566,2.1032872200012207,0.981178879737854,1.307785987854004
3281986373.0,-0.4841007888317108,0.0385235659778118,9.677729606628418,1.9852313995361328,0.5569815635681152,1.2567369937896729
3281994706.0,-0.4535548686981201,0.0143404966220259,10.03099536895752,2.046154737472534,-0.0264595039188861,1.1151797771453855
3282003039.0,-0.4520372450351715,0.2503776848316192,10.154937744140623,2.333674669265747,0.2692696452140808,1.3316456079483032
3282011372.0,-0.4350941479206085,0.430535614490509,9.835319519042969,2.1674509048461914,0.8115358352661133,1.269364595413208
3282019705.0,-0.4216310381889343,0.2516300976276397,9.647019386291504,1.906659483909607,0.6374742388725281,1.206187129020691
3282028038.0,-0.3805083334445953,0.0366442315280437,9.89995002746582,1.94381320476532,0.0884459465742111,1.2838878631591797
3282036371.0,-0.4130069315433502,0.1201760917901992,10.124981880187988,2.117656946182251,0.309368759393692,1.29582417011261
3282044704.0,-0.4549680352210998,0.3255389630794525,9.9650297164917,2.2357640266418457,0.8532100915908813,1.3319658041000366
3282053037.0,-0.4767152667045593,0.2958244681358337,9.679776191711426,2.079030752182007,0.8681176900863647,1.1582245826721191
3282061370.0,-0.4739483594894409,0.1465288251638412,9.862997055053713,1.9661484956741333,0.233857974410057,1.2548925876617432
3282069703.0,-0.4668996632099151,0.1416888535022735,10.108565330505373,1.9972957372665403,-0.005007583182305,1.3007421493530271
3282078036.0,-0.4582474827766418,0.2777099013328552,10.013694763183594,2.079017877578736,0.6556604504585266,1.26356303691864
3282086369.0,-0.4665609300136566,0.2745170295238495,9.72164249420166,2.0171852111816406,0.7733065485954285,1.3069024085998535
3282094702.0,-0.3829213976860046,0.1046881675720214,9.750018119812012,2.003251075744629,0.2281588166952133,1.259848952293396
3282103035.0,-0.3563495874404907,0.1194294989109039,10.058364868164062,2.091031074523926,-0.1104741990566253,1.359590768814087
3282111368.0,-0.408853679895401,0.3025363385677337,10.099652290344238,2.14343786239624,0.5067904591560364,1.2363862991333008
3282119701.0,-0.4866797626018524,0.3494260311126709,9.811232566833496,2.0973706245422363,0.9516457915306092,1.2237201929092407
3282128034.0,-0.5033297538757324,0.1117623746395111,9.65155029296875,1.9734233617782595,0.6460167169570923,1.2372957468032837
3282136367.0,-0.4567935466766357,-0.008153012022376,9.968076705932615,2.008911371231079,-0.0685436874628067,1.1542670726776123
3282144700.0,-0.4623579382896423,0.1914073526859283,10.149194717407228,2.2265429496765137,0.1343210488557815,1.256506323814392
3282153033.0,-0.4167184829711914,0.4243052303791046,9.88934326171875,2.2743136882781982,0.7946560382843018,1.2879095077514648
3282161366.0,-0.3800666928291321,0.3340700566768646,9.653130531311035,2.0855753421783447,0.6099646091461182,1.2834397554397583
3282169699.0,-0.3592509925365448,0.0831988677382469,9.846981048583984,2.003430128097534,0.06840281188488,1.2114635705947876
3282178032.0,-0.3680543303489685,0.0663486421108245,10.128703117370604,2.096127986907959,-0.0257166922092437,1.211796760559082
3282186365.0,-0.4630428850650787,0.2884717285633087,9.997471809387209,2.241463184356689,0.7947201132774353,1.2803404331207275
3282194698.0,-0.4824241995811462,0.3374170064926147,9.700682640075684,2.099355459213257,0.9680516719818116,1.3263691663742063
3282203031.0,-0.4698765873908996,0.1910058557987213,9.757351875305176,2.0239346027374268,0.390975683927536,1.2131927013397217
3282211364.0,-0.4753853976726532,0.1237513497471809,10.07282543182373,2.0203099250793457,-0.0812227427959442,1.220454216003418
3282219697.0,-0.4538343548774719,0.2598341405391693,10.084644317626951,2.149341821670532,0.5539078712463379,1.3669804334640503
3282228030.0,-0.4590990543365478,0.3084420561790466,9.782450675964355,2.0921452045440674,0.8688861727714539,1.2257949113845823
3282236363.0,-0.3813890516757965,0.1382175087928772,9.653996467590332,1.970042109489441,0.4343149960041046,1.2486940622329712
3282244696.0,-0.3102912902832031,0.0805731415748596,9.988201141357422,2.033693552017212,-0.1542617380619049,1.3392915725708008
3282253029.0,-0.3621054291725158,0.2571710348129272,10.116884231567385,2.209816694259644,0.2029159516096115,1.2873458862304688
3282261362.0,-0.4497841596603393,0.3892965018749237,9.86164379119873,2.0975241661071777,0.9581261277198792,1.2750511169433594
3282269695.0,-0.5132241249084473,0.195951446890831,9.658214569091797,2.001829147338867,0.888455331325531,1.2511528730392456
3282278028.0,-0.4933793246746063,-0.0244029648602008,9.889284133911133,1.9937095642089844,0.1345259547233581,1.31003999710083
3282286361.0,-0.4739823639392853,0.0630555599927902,10.136197090148926,2.078211069107056,0.0597836188971996,1.3372423648834229
3282294694.0,-0.4682163894176483,0.3549668192863464,9.998519897460938,2.2150936126708984,0.4492480754852295,1.3116793632507324
3282303027.0,-0.4368646442890167,0.4189576506614685,9.679795265197754,2.065903425216675,0.7873687744140625,1.2992693185806274
3282311360.0,-0.3975684344768524,0.1275590658187866,9.748664855957031,1.8798925876617432,0.3306157290935516,1.2378462553024292
3282319693.0,-0.3403295874595642,0.0415528193116188,10.053812980651855,2.010781764984131,0.0719888135790824,1.299935221672058
3282328026.0,-0.4024662673473358,0.2302131205797195,10.099233627319336,2.2442426681518555,0.5838509202003479,1.2870384454727173
3282336359.0,-0.5082787275314331,0.3491233885288238,9.773916244506836,2.1642236709594727,1.0497225522994995,1.247157096862793
3282344692.0,-0.5008007287979126,0.1958156079053878,9.688484191894531,2.0044548511505127,0.6348616480827332,1.2240915298461914
3282353025.0,-0.4873965680599212,0.1140350326895713,10.016828536987305,2.024587631225586,0.0847190842032432,1.221914291381836
3282361358.0,-0.4983833432197571,0.1886313110589981,10.135002136230469,2.103607654571533,0.196499615907669,1.3002426624298096
3282369691.0,-0.4995662868022918,0.3392236530780792,9.878212928771973,2.0313496589660645,0.7808114886283875,1.2387171983718872
3282378024.0,-0.4448343515396118,0.2452118247747421,9.604114532470703,2.0328612327575684,0.5646274089813232,1.2444037199020386
3282386357.0,-0.3634475469589233,0.051943589001894,9.867206573486328,1.9660717248916624,-0.0626908391714096,1.1688801050186155
3282394690.0,-0.3542793691158294,0.1631254106760025,10.18575382232666,2.079312324523926,-0.0786997377872467,1.1048187017440796
3282403023.0,-0.4160649478435516,0.3655070066452026,10.004380226135254,2.2040281295776367,0.8168635368347168,1.3140101432800293
