SampleTimeFine,Acc_X,Acc_Y,Acc_Z,Gyr_X,Gyr_Y,Gyr_Z
4199080189.0,0.0,0.0,0.0,0.0,0.0,0.0
4199088522.0,-0.4362344741821289,-0.1001769974827766,9.786335945129396,2.6263558864593506,0.2042223066091537,0.1896734237670898
4199096855.0,-0.4333393573760986,0.1015013307332992,9.75843334197998,2.875351428985596,0.9245458245277404,0.1597303599119186
4199105188.0,-0.434891790151596,0.1612675189971923,9.989686965942385,2.892308235168457,1.1867843866348269,0.0564025491476058
4199113521.0,-0.3858911991119385,-0.0338842831552028,10.07480239868164,2.725815773010254,0.5398969054222107,0.0875494554638862
4199121854.0,-0.3050458133220672,-0.0717732831835746,9.786419868469238,2.647999763488769,0.1855495274066925,0.0464642234146595
4199130187.0,-0.3484998047351837,0.1347264051437378,9.682413101196287,2.921457529067993,0.7839748859405518,0.0832206532359123
4199138520.0,-0.5314416289329529,0.1969341337680816,9.864002227783203,2.855602741241455,1.49131178855896,0.1176717802882194
4199146853.0,-0.5608404278755188,-0.0086344797164201,10.093074798583984,2.7073986530303955,1.1324564218521118,0.0543277896940708
4199155186.0,-0.4639838337898254,-0.1370294392108917,9.96408462524414,2.5362703800201416,0.1825526505708694,-0.0475784391164779
4199163519.0,-0.3913058042526245,0.0701798647642135,9.785972595214844,2.9574196338653564,0.3585480749607086,-0.0341309681534767
4199171852.0,-0.4306909143924713,0.3345124423503876,9.829718589782717,3.002013921737671,1.256993055343628,0.0316079668700695
4199180185.0,-0.4307914078235626,0.2231287211179733,10.05820655822754,2.7674388885498047,1.0343540906906128,-0.0037524856161326
4199188518.0,-0.3858192265033722,-0.0736790373921394,9.956625938415527,2.552612066268921,0.3888497054576874,0.1216163858771324
4199196851.0,-0.3777041137218475,-0.0854080319404602,9.730616569519045,2.6457455158233643,0.4213541746139526,0.0803006216883659
4199205184.0,-0.4271800518035888,0.1909117102622985,9.740787506103516,2.9384138584136963,0.9876336455345154,0.0023308955132961
4199213517.0,-0.5099536776542664,0.2867183089256286,10.01719856262207,2.892462015151977,1.321002960205078,0.0342206172645092
4199221850.0,-0.5157318711280823,0.0946794971823692,10.129343032836914,2.619004249572754,0.7057746052742004,0.0075049707666039
4199230183.0,-0.4633799791336059,-0.0679322406649589,9.87351894378662,2.5455682277679443,0.3697927296161651,0.0614229328930377
4199238516.0,-0.4417276680469513,0.0616253912448883,9.742328643798828,2.847893238067627,0.6550585031509399,0.0669043883681297
4199246849.0,-0.5037726759910583,0.215848907828331,9.907818794250488,2.872175693511963,0.9585359692573548,-0.0029584444127976
4199255182.0,-0.4413950443267822,0.0967254042625427,10.086036682128906,2.640597581863404,0.6388959288597107,-0.0227326340973377
4199263515.0,-0.3282131552696228,-0.0513375774025917,9.93810749053955,2.495441198348999,0.1944120526313781,0.0920319482684135
4199271848.0,-0.3450852930545807,0.0571554787456989,9.69761085510254,2.582913875579834,0.5877186059951782,0.0555572807788848
4199280181.0,-0.521878182888031,0.1646102517843246,9.805370330810549,2.760932922363281,1.1704168319702148,0.0864736512303352
4199288514.0,-0.5923750996589661,0.0411079265177249,10.035314559936523,2.6409811973571777,1.2214148044586182,0.0798395723104476
4199296847.0,-0.5164310932159424,-0.171628400683403,10.04863452911377,2.526613473892212,0.4867729246616363,0.1616514325141906
4199305180.0,-0.4254653453826904,-0.0832604691386222,9.844317436218262,2.7605483531951904,0.1483320444822311,0.0873189270496368
4199313513.0,-0.4393297433853149,0.2272103279829025,9.818033218383787,2.844742774963379,0.864147424697876,0.145693764090538
4199321846.0,-0.444747656583786,0.2323939353227615,9.996594429016112,2.6696436405181885,1.1130154132843018,0.1533011943101883
4199330179.0,-0.4275609254837036,-0.0569188669323921,10.023280143737791,2.501076459884644,0.5610798001289368,0.1404428631067276
4199338512.0,-0.3665833175182342,-0.2261033058166504,9.788652420043944,2.445263147354126,0.3131340444087982,0.0635745376348495
4199346845.0,-0.4474649131298065,-0.0032451879233121,9.744706153869627,2.906421661376953,0.8918619751930237,0.1034558936953544
4199355178.0,-0.5492659211158752,0.2232128381729126,9.937702178955078,2.9669225215911865,1.3137797117233276,0.0696451067924499
4199363511.0,-0.5405047535896301,0.1194711923599243,10.148273468017578,2.6514062881469727,1.0310240983963013,0.0430063009262084
4199371844.0,-0.4603870213031769,-0.0992218703031539,9.983294486999512,2.53619384765625,0.2982009351253509,0.1445923596620559
4199380177.0,-0.4205028414726257,-0.0660769119858741,9.741122245788574,2.772023677825928,0.4551905989646911,0.0673910528421402
4199388510.0,-0.4668662548065185,0.1115196347236633,9.796564102172852,2.898378849029541,1.01783287525177,0.0351171195507049
4199396843.0,-0.4113692939281463,0.0760330855846405,10.018692016601562,2.7275829315185547,0.6633061766624451,0.0297893527895212
4199405176.0,-0.3544847071170807,-0.0896914452314376,9.97219467163086,2.5389597415924072,0.2568083107471466,0.1004334092140197
4199413509.0,-0.3350772559642792,-0.0639725774526596,9.752582550048828,2.7052218914031982,0.3918721973896026,0.0803774744272232
4199421842.0,-0.4618952572345733,0.1298827081918716,9.73178482055664,2.834881067276001,0.9302834868431092,0.1387523263692855
4199430175.0,-0.5708824396133423,0.118667684495449,9.913178443908691,2.8834710121154785,1.098671317100525,0.0540716461837291
4199438508.0,-0.5404298901557922,-0.1250916123390197,10.024325370788574,2.638676166534424,0.550911009311676,0.0120899202302098
4199446841.0,-0.4646757245063782,-0.171834111213684,9.867505073547363,2.6505351066589355,0.2225108444690704,0.0003842135192826
4199455174.0,-0.433236688375473,0.1117458567023277,9.768438339233398,3.018740177154541,0.5326480269432068,-0.0069030369631946
4199463507.0,-0.4438459277153015,0.3203785717487335,9.951007843017578,2.899787425994873,1.0914226770401,-0.011078156530857
4199471840.0,-0.4005665779113769,0.1141378730535507,10.079961776733398,2.616314649581909,0.6729883551597595,0.1256634294986724
4199480173.0,-0.3458364903926849,-0.1651242971420288,9.88924789428711,2.439115762710572,0.239493116736412,-0.0434545502066612
4199488506.0,-0.3488315343856811,-0.0326798446476459,9.710237503051758,2.70442795753479,0.5963506698608398,0.0893680602312088
4199496839.0,-0.4707655310630798,0.1963784098625183,9.80568504333496,2.9449195861816406,1.1473640203475952,-0.0833102911710739
4199505172.0,-0.5190632939338684,0.2582848072052002,10.114815711975098,2.8958940505981445,1.117164969444275,-0.002215631539002
4199513505.0,-0.5066297054290771,0.0211540572345256,10.10784149169922,2.538883209228516,0.5375660061836243,0.0965144410729408
4199521838.0,-0.450633555650711,-0.0194428879767656,9.893074989318848,2.445237398147583,0.3759401440620422,0.202813521027565
4199530171.0,-0.5076176524162292,0.1122899651527404,9.726215362548828,2.672999143600464,0.6886130571365356,0.0765097290277481
4199538504.0,-0.4832791984081268,0.1728126108646392,9.895987510681152,2.8918471336364746,0.9642478227615356,0.0168541651219129
4199546837.0,-0.3697511851787567,0.0248282235115766,9.961991310119627,2.5484883785247803,0.5473505854606628,0.0968730449676513
4199555170.0,-0.3572840392589569,-0.0274808555841445,9.833760261535645,2.5224645137786865,0.3563964366912842,0.0689791366457939
4199563503.0,-0.4206683337688446,0.1399872899055481,9.712831497192385,2.7701027393341064,0.8173758387565613,0.1086299791932106
4199571836.0,-0.5387122631072998,0.2129367142915725,9.885443687438965,2.849353313446045,1.1930598020553589,0.0602702908217906
4199580169.0,-0.5526434183120728,0.009460873901844,10.024118423461914,2.658860206604004,0.8594343662261963,0.1325536668300628
4199588502.0,-0.4974085688591003,-0.1309415251016616,9.904289245605469,2.495159387588501,0.2770435512065887,0.0374736227095127
4199596835.0,-0.4400429427623749,0.0256975945085287,9.775915145874023,2.7836012840271,0.3676923215389251,0.1598584502935409
4199605168.0,-0.4559716582298279,0.3018360137939453,9.83842658996582,2.8894906044006348,0.9526190757751464,0.0281500443816185
4199613501.0,-0.4287032186985016,0.2135134786367416,10.028769493103027,2.7762248516082764,0.9766452312469482,-0.0294691789895296
4199621834.0,-0.3723318576812744,-0.0784287229180336,9.949007987976074,2.435427188873291,0.4142590463161468,0.1291725933551788
4199630167.0,-0.3499289751052856,-0.1162551119923591,9.716344833374023,2.458275079727173,0.3856223225593567,-0.0052124969661235
4199638500.0,-0.4379516839981079,0.1312315464019775,9.78516960144043,2.850198268890381,0.8882248401641846,0.0511260107159614
4199646833.0,-0.5188087821006775,0.2027933448553085,10.027118682861328,2.910212755203247,1.2758708000183103,0.0969242751598358
4199655166.0,-0.5009346008300781,0.0142576433718204,10.1156587600708,2.531531572341919,0.8788754940032959,-0.0083118192851543
4199663499.0,-0.4489429891109466,-0.1102261692285537,9.864371299743652,2.484837055206299,0.4301654398441314,0.1033790484070777
4199671832.0,-0.4686439037322998,0.0261404626071453,9.75141429901123,2.6959493160247803,0.7183511853218079,0.0171359218657016
4199680165.0,-0.4931171238422394,0.1218802630901336,9.868352890014648,2.764953851699829,1.0763869285583496,0.084757499396801
4199688498.0,-0.4006719887256622,-0.0414851084351539,9.983770370483398,2.536372900009156,0.7565677165985107,0.0577601008117198
4199696831.0,-0.3200531601905823,-0.1300413906574249,9.856621742248535,2.5554044246673584,0.4768089950084686,0.0466435253620147
4199705164.0,-0.378860741853714,0.0113137643784284,9.714067459106444,2.722075939178467,0.7222445607185364,0.1829112470149994
4199713497.0,-0.477622926235199,0.1437084376811981,9.785988807678224,2.974299192428589,1.2570186853408811,0.1125745624303817
4199721830.0,-0.5396600961685181,0.0119774276390671,10.04592990875244,2.711599826812744,1.0605828762054443,0.0650601536035537
4199730163.0,-0.4909202456474304,-0.1930941939353943,9.97225856781006,2.632810115814209,0.5007070302963257,0.0399069786071777
4199738496.0,-0.4396333992481231,-0.0486150756478309,9.828529357910156,2.841412305831909,0.5785999298095703,0.0803006216883659
4199746829.0,-0.4596691727638244,0.198939099907875,9.83797836303711,3.0240678787231445,0.9740580916404724,-0.0269845984876155
4199755162.0,-0.4464955925941467,0.1855673938989639,9.98155117034912,2.809215545654297,1.0988250970840454,0.0060961879789829
4199763495.0,-0.3682158291339874,-0.0768916383385658,9.99929428100586,2.612191200256348,0.6054437756538391,0.0755363926291465
4199771828.0,-0.3631685972213745,-0.1393063217401504,9.780442237854004,2.732987642288208,0.5040369033813477,0.0856283903121948
4199780161.0,-0.4414182305335998,0.0756663307547569,9.752412796020508,2.931011438369751,0.8248040676116943,0.0806848481297493
4199788494.0,-0.5350494384765625,0.2301747798919677,9.96345329284668,2.920304536819458,1.1531271934509275,0.0609362609684467
4199796827.0,-0.5027787089347839,0.0725028216838836,10.146770477294922,2.7701027393341064,0.8679383993148804,0.101355530321598
4199805160.0,-0.4910992383956909,-0.050025574862957,9.940837860107422,2.6260483264923096,0.434366226196289,0.1079896241426467
4199813493.0,-0.5155953764915466,0.0492624193429946,9.78476333618164,2.723151683807373,0.7328488826751709,0.0879080593585968
4199821826.0,-0.5372810363769531,0.1610888689756393,9.8656005859375,2.907907247543335,0.9997491836547852,0.0707977414131164
4199830159.0,-0.4673095047473907,0.0551801919937133,10.013266563415527,2.7524802684783936,0.7693491578102112,0.0596811734139919
4199838492.0,-0.3521026372909546,-0.0499821864068508,9.917673110961914,2.62125825881958,0.3772976696491241,-0.0311084873974323
4199846825.0,-0.3737944364547729,0.0531209409236907,9.73614501953125,2.640392303466797,0.5500913262367249,0.0324788466095924
4199855158.0,-0.475361704826355,0.2089065760374069,9.779318809509276,2.872406005859375,1.1670101881027222,0.0872164741158485
4199863491.0,-0.5308335423469543,0.089271605014801,9.97254753112793,2.712035179138184,1.1894482374191284,0.0324532352387905
4199871824.0,-0.5101305246353149,-0.1257704943418502,9.955924034118652,2.568493366241455,0.5650500059127808,-0.0245768595486879
4199880157.0,-0.4633790850639343,-0.0614459477365016,9.872675895690918,2.7302470207214355,0.3688962161540985,0.0803262442350387
4199888490.0,-0.4831027090549469,0.2326679080724716,9.813457489013672,2.970508337020874,0.8025708198547363,0.0977951437234878
4199896823.0,-0.4944014549255371,0.2827704846858978,9.98664093017578,2.894331455230713,1.0488004684448242,0.0193131323903799
4199905156.0,-0.4086237847805023,-0.0246359147131443,9.99767780303955,2.6356279850006104,0.5363364815711975,0.0518175959587097
4199913489.0,-0.3661468923091888,-0.1577433347702026,9.7680025100708,2.4723117351531982,0.4029887914657593,0.2015840411186218
4199921822.0,-0.4325844943523407,0.0558545216917991,9.684494018554688,2.70066237449646,0.8070021271705627,0.0805055424571037
4199930155.0,-0.5183889269828796,0.2556892931461334,9.897122383117676,2.872098445892334,1.3383692502975464,0.0175713654607534
4199938488.0,-0.4913183152675628,0.1164744645357132,10.12741470336914,2.727967500686645,0.9275170564651488,0.1495359092950821
4199946821.0,-0.4595938920974731,-0.0593892633914947,9.989906311035156,2.538370370864868,0.4326499998569488,0.1239985004067421
4199955154.0,-0.4648024439811706,0.0078785382211208,9.797852516174316,2.6467702388763428,0.6118215918540955,0.0770220085978508
4199963487.0,-0.4973887205123901,0.1557895392179489,9.825912475585938,2.910724639892578,1.0819194316864014,0.0505881123244762
4199971820.0,-0.4551881551742553,0.0823472589254379,9.998802185058594,2.769667387008667,1.0062296390533447,0.1299666315317154
4199980153.0,-0.3316563963890075,-0.0595786347985267,9.96760368347168,2.588907480239868,0.3473034203052521,0.1056331023573875
4199988486.0,-0.3590340614318847,0.0042272438295185,9.737662315368652,2.6219499111175537,0.4787301123142242,0.0311981402337551
4199996819.0,-0.4520672559738159,0.1809454262256622,9.795201301574709,2.7626235485076904,1.1887054443359375,0.1101412177085876
4200005152.0,-0.5440067648887634,0.0801039040088653,9.975334167480469,2.728069305419922,1.3587325811386108,0.1573482304811477
4200013485.0,-0.5199980139732361,-0.149076834321022,10.017202377319336,2.6799914836883545,0.6497562527656555,0.1092190816998481
4200021818.0,-0.4757593274116516,-0.1434212625026703,9.84959888458252,2.7010979652404785,0.3729433119297027,0.0102969231083989
4200030151.0,-0.4669056534767151,0.148973748087883,9.802376747131348,2.932727336883545,0.8666576743125916,0.1590644121170044
4200038484.0,-0.44661346077919,0.2766668498516083,9.943251609802246,2.898609161376953,1.0780006647109983,0.1557601541280746
4200046817.0,-0.3915113806724548,0.032826866954565,10.049674987792969,2.726072072982788,0.7508300542831421,0.0065572438761591
4200055150.0,-0.3573218286037445,-0.201135516166687,9.7965726852417,2.5267159938812256,0.2896713614463806,0.0560439489781856
4200063483.0,-0.4283704757690429,-0.0222769454121589,9.668871879577637,2.8147997856140137,0.7608965039253235,-0.032850258052349
4200071816.0,-0.5019037127494812,0.2148850560188293,9.873318672180176,2.9092392921447754,1.2284331321716309,-0.0226045623421669
4200080149.0,-0.503572940826416,0.1395154446363449,10.114999771118164,2.8192055225372314,1.1686495542526243,0.1575275659561157
4200088482.0,-0.4837385714054107,-0.0623322911560535,10.018013954162598,2.701251745223999,0.6582602262496948,0.1086299642920494
4200096815.0,-0.4757943153381347,-0.022553913295269,9.77818202972412,2.634014129638672,0.546505331993103,0.147819772362709
4200105148.0,-0.5172275304794312,0.1430397778749466,9.80597686767578,2.834829807281494,0.7668390870094299,0.0608594268560409
4200113481.0,-0.4707870483398437,0.094851478934288,9.99621295928955,2.7795286178588867,1.0142468214035034,0.1512776613235473
4200121814.0,-0.3732818961143493,-0.0578220784664154,10.023427963256836,2.6603457927703857,0.476988285779953,0.0283805727958679
4200130147.0,-0.3259551227092743,-0.0366495922207832,9.790685653686523,2.5862693786621094,0.5898189544677734,0.0692608952522277
4200138480.0,-0.4290875494480133,0.1764530539512634,9.731197357177734,2.8936915397644043,0.9359954595565796,0.1235118433833122
4200146813.0,-0.5439763069152832,0.1744911223649978,9.886950492858888,2.9152586460113525,1.244365096092224,0.202249988913536
4200155146.0,-0.5777737498283386,-0.0541382730007171,10.063015937805176,2.629403591156006,0.7907626628875732,0.1245107874274253
4200163479.0,-0.4990672469139099,-0.1667142659425735,9.931187629699709,2.7753024101257324,0.3693316578865051,0.0661359578371048
4200171812.0,-0.4788365960121155,0.1200107932090759,9.818976402282717,2.9279372692108154,0.6343876719474792,-0.0003970206016674
4200180145.0,-0.4783105850219726,0.3171770870685577,9.873090744018556,2.9227635860443115,1.0534623861312866,0.0974109396338462
4200188478.0,-0.4557246565818786,0.1382096260786056,10.03409194946289,2.72571325302124,0.8248807191848755,0.0658541992306709
4200196811.0,-0.3670291006565094,-0.1160098239779472,9.890209197998049,2.5331711769104004,0.4352626800537109,0.0050716181285679
4200205144.0,-0.353525161743164,-0.0690363422036171,9.73410415649414,2.672743082046509,0.5258346796035767,0.1943095922470092
4200213477.0,-0.4743174910545349,0.2140017002820968,9.768917083740234,2.907087564468384,0.9317433834075928,0.0552755184471607
4200221810.0,-0.507848858833313,0.2577993273735046,10.016260147094728,2.818743705749512,1.1128615140914917,0.1047365888953208
4200230143.0,-0.4842257499694824,0.0181081164628267,10.07091236114502,2.606043577194214,0.5942502617835999,0.0553011372685432
4200238476.0,-0.468513548374176,-0.065854512155056,9.85741138458252,2.551152229309082,0.3561659753322601,0.0962582975625991
4200246809.0,-0.4974461495876312,0.0893438756465911,9.749972343444824,2.819743156433105,0.7591803669929504,0.101176232099533
4200255142.0,-0.527794599533081,0.1900714039802551,9.909971237182615,2.8327553272247314,1.1448026895523071,0.0565050095319747
4200263475.0,-0.4061123728752136,0.0416852496564388,10.05894374847412,2.640955686569214,0.7048524618148804,0.0289696976542472
4200271808.0,-0.3328319489955902,-0.0639482662081718,9.899293899536133,2.532709836959839,0.3504283428192138,0.085833303630352
4200280141.0,-0.3484659492969513,0.0454929172992706,9.68785572052002,2.65742564201355,0.6499868631362915,0.0877031460404396
4200288474.0,-0.5026805996894836,0.207581490278244,9.723491668701172,2.915591239929199,1.1323540210723877,-0.0342590399086475
4200296807.0,-0.5403726696968079,0.0949682220816612,10.026971817016602,2.6823995113372803,1.0897319316864014,0.0906744003295898
4200305140.0,-0.4817186892032623,-0.1592430919408798,10.04304313659668,2.622129440307617,0.5548812747001648,0.014446428976953
4200313473.0,-0.4334052205085754,-0.0949335545301437,9.848638534545898,2.718848466873169,0.4580337703227997,0.1094752326607704
4200321806.0,-0.4586879312992096,0.2240969240665435,9.813583374023438,3.029780149459839,0.9077429175376892,0.1066832914948463
4200330139.0,-0.4751959145069122,0.3074347376823425,9.933379173278809,2.9453554153442383,1.068036675453186,0.0683900117874145
4200338472.0,-0.4082067608833313,-0.0130723696202039,10.019208908081056,2.518878221511841,0.7053903937339783,0.0493074022233486
4200346805.0,-0.3755387365818023,-0.2294086962938308,9.821382522583008,2.474155902862549,0.3655663728713989,0.0830669701099395
4200355138.0,-0.4207642376422882,-0.0027816670481115,9.844396591186523,2.774482727050781,0.5651524662971497,-0.0241926461458206
4200363471.0,-0.5295419692993164,0.2434281110763549,9.676006317138672,2.884188413619995,1.1054848432540894,0.0304553266614675
4200371804.0,-0.5212497711181641,0.199137657880783,10.107881546020508,2.823124408721924,1.0808439254760742,-0.0553651750087738
4200380137.0,-0.4769805371761322,-0.1082311570644378,9.993977546691896,2.5536880493164062,0.6703757643699646,0.1258683502674102
4200388470.0,-0.4545452892780304,-0.1345287263393402,9.822651863098145,2.6304283142089844,0.6894071698188782,0.1062990799546241
4200396803.0,-0.5272347927093506,0.1066097989678382,9.78046703338623,2.968459367752075,0.8609713315963745,0.0887533277273178
4200405136.0,-0.5152840614318848,0.1977006196975708,9.910090446472168,2.980958938598633,0.8631742000579834,0.1738950461149215
4200413469.0,-0.4248887002468109,0.0306215398013591,10.029366493225098,2.616647958755493,0.6958875060081482,0.1375228315591812
4200421802.0,-0.3406387269496918,-0.1380727589130401,9.84476375579834,2.477536678314209,0.4608000516891479,-0.0528549738228321
4200430135.0,-0.4471725523471832,0.0581058785319328,9.720087051391602,2.851556301116944,0.7651740908622742,0.0181092638522386
4200438468.0,-0.5666978359222412,0.2045313715934753,9.814407348632812,2.975477695465088,1.1704680919647217,0.1821684390306472
4200446801.0,-0.5644083023071289,0.0609334036707878,10.028556823730469,2.710037469863892,1.022187352180481,0.1152384430170059
4200455134.0,-0.500754177570343,-0.18035289645195,10.044099807739258,2.600178003311157,0.5221462249755859,0.2530686259269714
4200463467.0,-0.4422943592071533,-0.083310455083847,9.81602382659912,2.690877676010132,0.5327247977256775,-0.0612564384937286
4200471800.0,-0.4684202373027801,0.2415300458669662,9.812610626220703,2.996532440185547,0.889710545539856,0.0355525575578212
4200480133.0,-0.470722496509552,0.2938107848167419,9.920226097106934,2.8737380504608154,1.0349175930023191,-0.0126150120049715
4200488466.0,-0.4042996764183044,-0.01270292699337,10.026443481445312,2.513986110687256,0.5789073705673218,0.0803006291389465
4200496799.0,-0.3662692904472351,-0.2067382186651229,9.848899841308594,2.5896503925323486,0.5326992869377136,0.0995881408452987
4200505132.0,-0.4240007698535919,0.0335475914180278,9.780860900878906,2.83370304107666,0.6777271032333374,0.133398950099945
4200513465.0,-0.5405694246292114,0.2936148941516876,9.84327220916748,3.020148992538452,1.255789041519165,0.0814788788557052
4200521798.0,-0.5442280769348145,0.2233509570360183,10.057905197143556,2.705887794494629,1.1038453578948977,0.090418241918087
4200530131.0,-0.4807332456111908,-0.0875440016388893,10.045567512512209,2.485349416732788,0.4627468287944793,0.0477705523371696
4200538464.0,-0.4275162816047668,-0.1522292196750641,9.793729782104492,2.619209289550781,0.6743971705436707,0.1754062920808792
4200546797.0,-0.4538317620754242,0.1182429417967796,9.779637336730955,2.941077470779419,0.9534643292427064,0.021131744608283
4200555130.0,-0.4976193606853485,0.2445308268070221,9.872957229614258,2.862877368927002,0.9183727502822876,0.1104741916060447
4200563463.0,-0.3891962468624115,0.0203623995184898,10.050333976745604,2.6101675033569336,0.7034437656402588,0.0439284145832061
4200571796.0,-0.3436623513698578,-0.1080531477928161,9.886474609375,2.623051166534424,0.4175632297992706,0.053175151348114
4200580129.0,-0.4068459868431091,0.0288213714957237,9.741375923156738,2.8040928840637207,0.6366674304008484,0.0868578851222992
4200588462.0,-0.5693013072013855,0.199749618768692,9.817039489746094,2.770896673202514,0.8709608316421509,0.0792760625481605
4200596795.0,-0.5406020283699036,0.1089082732796669,10.024687767028809,2.9092392921447754,0.953131377696991,0.0854234769940376
4200605128.0,-0.425342708826065,-0.1166024655103683,9.997358322143556,2.5186479091644287,0.6471436619758606,0.057632029056549
4200613461.0,-0.4437598884105682,-0.0992486476898193,9.864846229553224,2.7582433223724365,0.4951231479644775,0.0255630053579807
4200621794.0,-0.4589341282844543,0.2121601104736328,9.792587280273438,2.899633884429932,0.915170967578888,0.0016649252502247
4200630127.0,-0.4932391047477722,0.3180262744426727,9.91804313659668,2.8613150119781494,0.915350377559662,0.044722456485033
4200638460.0,-0.4110364913940429,0.030134854838252,10.018335342407228,2.5034074783325195,0.761024534702301,0.049537930637598
4200646793.0,-0.3782275021076202,-0.1902072429656982,9.904739379882812,2.4448018074035645,0.4912554323673248,0.081863097846508
4200655126.0,-0.4230929613113403,-0.0221244283020496,9.747498512268066,2.8595473766326904,0.7451949119567871,0.030301634222269
4200663459.0,-0.5336616039276123,0.2895670533180237,9.82411003112793,2.956805229187012,1.165498971939087,0.1208223551511764
4200671792.0,-0.579541027545929,0.2368669211864471,10.017404556274414,2.7839343547821045,1.0036170482635498,0.0251275654882192
4200680125.0,-0.4909568130970001,-0.0466133989393711,10.075270652770996,2.524385452270508,0.5811101794242859,0.0180836506187915
4200688458.0,-0.4693625569343567,-0.1283318400382995,9.852153778076172,2.600869417190552,0.4567530453205108,0.102354496717453
4200696791.0,-0.4922114312648773,0.0681135803461074,9.759342193603516,2.849353313446045,0.7878938913345337,0.1578605324029922
4200705124.0,-0.5050692558288574,0.2249597311019897,9.829158782958984,2.8913865089416504,0.9282599687576294,0.1004078015685081
4200713457.0,-0.4201178252696991,0.0878836810588836,10.001058578491213,2.5737180709838867,0.7445032596588135,0.0418280437588691
4200721790.0,-0.3896230161190033,-0.1212889179587364,9.932825088500977,2.459350824356079,0.4275528490543365,0.161420926451683
4200730123.0,-0.4054283201694488,-0.0002600917359814,9.77500343322754,2.759779691696167,0.811177134513855,0.1673633903264999
4200738456.0,-0.5296972990036011,0.2260385453701019,9.813883781433104,2.842924118041992,0.9195254445075988,0.152404710650444
4200746789.0,-0.556067705154419,0.1308639198541641,9.958980560302734,2.71318793296814,0.9723931550979614,0.0001536854251753
4200755122.0,-0.4543453752994537,-0.0833200067281723,10.041934967041016,2.488909721374512,0.6502941846847534,0.0289953146129846
4200763455.0,-0.4468057155609131,-0.1833665817975998,9.835684776306152,2.659961462020874,0.3897461891174316,0.0704903751611709
4200771788.0,-0.4354593157768249,0.1461659371852874,9.859759330749512,2.8841371536254883,0.5785230994224548,0.1189012676477432
4200780121.0,-0.4786500632762909,0.3184138536453247,9.765447616577148,2.919177532196045,1.0357885360717771,0.0747423395514488
4200788454.0,-0.4605835080146789,0.1224128231406211,10.020316123962402,2.5946197509765625,0.7797998189926147,0.1480246782302856
4200796787.0,-0.3861872255802154,-0.1510509401559829,9.949170112609863,2.457096815109253,0.5654855370521545,0.021823326125741
4200805120.0,-0.4214764535427093,-0.0823073908686637,9.780072212219238,2.71216344833374,0.6897657513618469,0.1258683502674102
4200813453.0,-0.5110768675804138,0.2289857566356659,9.806317329406738,3.022197723388672,0.9073586463928224,0.1345259547233581
4200821786.0,-0.5299878120422363,0.2563121318817138,9.921303749084473,2.8065009117126465,0.8859964609146118,0.2411580234766006
4200830119.0,-0.4652540683746338,0.0328749790787696,10.062725067138672,2.4930338859558105,0.6392800807952881,0.0228735134005546
4200838452.0,-0.411817193031311,-0.1240649297833442,9.896668434143066,2.658834218978882,0.4200478196144104,0.0714637115597724
4200846785.0,-0.4475043416023254,0.0357793271541595,9.81794548034668,2.798509120941162,0.8685019612312317,0.2067581266164779
4200855118.0,-0.4904322624206543,0.2272541522979736,9.851701736450195,2.8854691982269287,0.7872278690338135,0.1503043323755264
4200863451.0,-0.4642974436283111,0.1088131442666053,9.945477485656738,2.612600803375244,0.7977041602134705,0.0209780577570199
4200871784.0,-0.3734367191791534,-0.083674244582653,9.943890571594238,2.537346124649048,0.5329553484916687,-0.0238596592098474
4200880117.0,-0.3845037221908569,-0.0754154026508331,9.805214881896973,2.661805868148804,0.6022418737411499,0.1565029770135879
4200888450.0,-0.4739734828472137,0.1906794011592865,9.811984062194824,2.9522454738616943,0.9711125493049622,0.1129844039678573
4200896783.0,-0.5392976999282837,0.1926326155662536,9.909334182739258,2.642851114273072,0.8481897711753845,0.1037632673978805
4200905116.0,-0.4951208233833313,-0.0541736893355846,10.000694274902344,2.4999749660491943,0.61476731300354,0.0686717703938484
4200913449.0,-0.4374595582485199,-0.1872801929712295,9.880687713623049,2.634244680404663,0.5340823531150818,-0.0119746541604399
4200921782.0,-0.455804169178009,0.0329091250896453,9.821352005004885,2.934443473815918,0.7175316214561462,-0.0075946203432977
4200930115.0,-0.5115323662757874,0.3104607462882995,9.87305736541748,2.9978904724121094,0.7423005700111389,0.1056331098079681
4200938448.0,-0.4741782248020172,0.1863296180963516,9.974644660949709,2.6222829818725586,0.6904828548431396,0.1524815410375595
4200946781.0,-0.4086790978908539,-0.1127228289842605,9.976190567016602,2.456251382827759,0.4609793424606323,0.0135499294847249
4200955114.0,-0.4101520776748657,-0.1583791673183441,9.79982089996338,2.650663614273072,0.5206349492073059,0.1387267112731933
4200963447.0,-0.4753132164478302,0.1114376485347747,9.79145622253418,2.941999912261963,0.8426571488380432,0.0043544201180338
4200971780.0,-0.5445168018341064,0.2768957614898681,9.907548904418944,2.809625625610352,0.8231134414672852,0.0238468553870916
4200980113.0,-0.4970256686210632,0.1157308518886566,10.013928413391112,2.6199522018432617,0.7452974319458008,0.105940468609333
4200988446.0,-0.4690181612968445,-0.1278834193944931,9.950611114501951,2.4760000705718994,0.5264237523078918,0.1190037354826927
4200996779.0,-0.4549480378627777,-0.0795091614127159,9.841216087341309,2.7677717208862305,0.6101054549217224,0.1413905918598175
4201005112.0,-0.5280550122261047,0.1932979077100753,9.80710220336914,2.926349401473999,0.8878150582313538,0.0644197985529899
4201013445.0,-0.5203832983970642,0.2013590037822723,9.908116340637209,2.805475950241089,0.6817484498023987,0.1935923844575882
4201021778.0,-0.4082808494567871,-0.0307743232697248,10.008859634399414,2.5389084815979004,0.5217363834381104,-0.0255501996725797
4201030111.0,-0.3995765745639801,-0.1432257145643234,9.859910011291504,2.67266583442688,0.5484519600868225,0.1952829211950302
4201038444.0,-0.4450898468494415,0.0869629234075546,9.786455154418944,2.9014270305633545,0.8372781872749329,0.1406989991664886
4201046777.0,-0.5195441246032715,0.2392469197511673,9.856488227844238,2.782627820968628,0.8730099201202393,0.0732823237776756
4201055110.0,-0.4963535368442535,0.0874109417200088,9.98326015472412,2.604942321777344,0.8300805687904358,0.0370894186198711
4201063443.0,-0.4662306606769562,-0.1202839612960815,9.949240684509276,2.560834646224976,0.6368979811668396,0.0556341148912906
4201071776.0,-0.4708927273750305,-0.0922427400946617,9.842047691345217,2.866668462753296,0.559209942817688,0.1350638717412948
4201080109.0,-0.4859398603439331,0.2257507294416427,9.853985786437988,2.9617223739624023,0.8404797315597534,0.1305045187473297
4201088442.0,-0.5099349617958069,0.272846519947052,9.949854850769045,2.740620851516724,0.8427596092224121,0.0830925777554512
4201096775.0,-0.393706202507019,0.0252843424677848,9.98572063446045,2.422901630401612,0.6367442607879639,0.1066576689481735
4201105108.0,-0.3725142776966095,-0.1750250905752182,9.927733421325684,2.607401132583618,0.5235293507575989,0.1026362478733062
4201113441.0,-0.3814277946949005,-0.0023055917117744,9.772083282470703,2.870407819747925,0.6717332601547241,0.1489723771810531
4201121774.0,-0.4726019203662872,0.2573220729827881,9.83647346496582,2.8477907180786133,0.6943506598472595,0.048334065824747
4201130107.0,-0.523665726184845,0.2478595077991485,9.939725875854492,2.608272075653076,0.6945812702178955,0.1458218395709991
4201138440.0,-0.4539569318294525,-0.023663418367505,10.016852378845217,2.4494893550872803,0.7590522766113281,-0.0068774227984249
4201146773.0,-0.4717995822429657,-0.1392536908388137,9.91055393218994,2.533836841583252,0.6337474584579468,0.1677988618612289
4201155106.0,-0.4950185120105743,0.0636719465255737,9.80442237854004,2.833421230316162,0.5651524662971497,0.161190390586853
4201163439.0,-0.5213320255279541,0.250182569026947,9.848602294921877,2.687061309814453,0.6153563857078552,0.0504600442945957
4201171772.0,-0.4545053839683532,0.1021018251776695,9.948927879333496,2.476025581359864,0.6289319396018982,0.0086319977417588
4201180105.0,-0.4132916927337646,-0.0969491228461265,9.969612121582031,2.568185806274414,0.5698398947715759,0.0711307302117347
4201188438.0,-0.3943188190460205,-0.0805922150611877,9.831408500671388,2.699740409851074,0.5916632413864136,0.1695918440818786
4201196771.0,-0.46049764752388,0.1674360930919647,9.78548812866211,2.834829568862915,0.5979642271995544,0.1461804360151291
4201205104.0,-0.5176224112510681,0.2004344761371612,9.834548950195312,2.639470100402832,0.6125388145446777,0.0216184146702289
4201213437.0,-0.4799705445766449,-0.0341428183019161,9.97736930847168,2.54067611694336,0.5314441323280334,0.0905975475907325
4201221770.0,-0.5055676102638245,-0.1625250279903412,9.97677516937256,2.618056535720825,0.7166350483894348,0.0713868737220764
4201230103.0,-0.4820667505264282,-0.0180340819060802,9.877368927001951,2.791337251663208,0.6720919609069824,0.060577668249607
4201238436.0,-0.4958818256855011,0.2674160599708557,9.85213565826416,2.783344984054565,0.6316982507705688,0.0981025248765945
4201246769.0,-0.4692043364048004,0.2268455028533935,9.880484580993652,2.5688514709472656,0.7225775718688965,0.1697967499494552
4201255102.0,-0.3946453034877777,-0.0692048594355583,9.973766326904297,2.5513315200805664,0.7590522170066833,0.0749728679656982
4201263435.0,-0.4079301357269287,-0.1578003764152526,9.9066743850708,2.662778854370117,0.6553657650947571,0.1627272367477417
4201271768.0,-0.4546982645988464,0.0601330734789371,9.78846263885498,2.7651591300964355,0.6950679421424866,0.0767146348953247
4201280101.0,-0.5066981315612793,0.2643599212169647,9.81349754333496,2.760164499282837,0.5624886155128479,0.0674935132265091
4201288434.0,-0.4609337747097015,0.1469588279724121,9.94287395477295,2.534708261489868,0.8206033110618591,0.1026362478733062
4201296767.0,-0.4823635220527649,-0.0975446552038192,10.05054759979248,2.584169149398804,0.7203491926193237,0.1215651631355285
4201305100.0,-0.5237734913825989,-0.1250914186239242,9.909771919250488,2.726712226867676,0.5888713002204895,0.2077570706605911
4201313433.0,-0.5322807431221008,0.1257939040660858,9.844463348388672,2.7685916423797607,0.4505800604820251,0.0268437173217535
4201321766.0,-0.4966567456722259,0.189844474196434,9.82802677154541,2.6682350635528564,0.5799319744110107,-0.0699909031391143
4201330099.0,-0.3782653212547302,0.0468255989253521,9.941864967346191,2.6171858310699463,0.7437093257904053,0.0185447074472904
4201338432.0,-0.3816055655479431,-0.1273067742586136,9.950573921203612,2.668721914291382,0.7268039584159851,0.0864480435848236
4201346765.0,-0.4259460270404815,-0.00267153698951,9.865591049194336,2.853912591934204,0.5967092514038086,0.1334501653909683
4201355098.0,-0.4539610743522644,0.2532140612602234,9.822745323181152,2.778632402420044,0.4498115479946136,0.0627804845571518
4201363431.0,-0.4903978407382965,0.1650408208370208,9.887720108032228,2.650970935821533,0.7008054256439209,-0.0561848282814025
4201371764.0,-0.4523607492446899,-0.1051773875951767,10.041597366333008,2.604506492614746,0.8660428524017334,-0.0413541793823242
4201380097.0,-0.5033395886421204,-0.1523401588201522,9.981781959533691,2.7080647945404053,0.6684803366661072,0.0325300768017768
4201388430.0,-0.5051955580711365,0.1397587656974792,9.854676246643066,2.8964321613311768,0.448556512594223,0.1219493746757507
4201396763.0,-0.4766270816326141,0.3500922918319702,9.85704231262207,2.722229242324829,0.424914538860321,-0.0089521734043955
4201405096.0,-0.415480762720108,0.1402424424886703,9.90863037109375,2.465677499771118,0.7117939591407776,0.1145724728703498
4201413429.0,-0.3631892204284668,-0.1514233499765396,9.944252967834473,2.485426187515259,0.7108206748962402,0.1941046863794326
4201421762.0,-0.448925256729126,-0.1179569587111473,9.821413040161133,2.688547134399414,0.6047521233558655,0.1633932143449783
4201430095.0,-0.4898929893970489,0.1919086128473281,9.809982299804688,2.946943521499634,0.6163042187690735,0.0566586926579475
4201438428.0,-0.4868487119674682,0.3068280518054962,9.940683364868164,2.6893410682678223,0.6280098557472229,0.0835792496800422
4201446761.0,-0.4255088865756988,0.0545028261840343,10.02286148071289,2.6474616527557373,0.7538781762123108,0.0613460913300514
4201455094.0,-0.4632674157619476,-0.1612020581960678,9.951869010925291,2.5397794246673584,0.677906334400177,0.189622163772583
4201463427.0,-0.5070583820343018,0.0245491676032543,9.787641525268556,2.7860348224639893,0.5341336727142334,0.1659034192562103
4201471760.0,-0.5331616401672363,0.2422719597816467,9.844232559204102,2.83523941040039,0.555086076259613,0.0474119447171688
4201480093.0,-0.4568777680397033,0.1331862956285476,9.961434364318848,2.555788516998291,0.6392032504081726,-0.0264723151922225
4201488426.0,-0.3500835001468658,-0.1028580591082573,10.003003120422363,2.538447618484497,0.6228102445602417,0.0889070108532905
4201496759.0,-0.4019522368907928,-0.0968959555029869,9.81177043914795,2.782832860946656,0.6178921461105347,0.1255353540182113
4201505092.0,-0.5015394687652588,0.1622907668352127,9.76239776611328,2.8026843070983887,0.730287492275238,0.1160324960947036
4201513425.0,-0.5483969449996948,0.2240724712610244,9.893681526184082,2.6906983852386475,0.8050554394721985,0.1670304238796234
4201521758.0,-0.4869636297225952,-0.0611806400120258,10.016879081726074,2.510195016860962,0.7359738349914551,0.0529190078377723
4201530091.0,-0.4563901722431183,-0.2319795042276382,9.96425437927246,2.712854623794556,0.7545953392982483,0.1644177734851837
4201538424.0,-0.5218300819396973,0.05386283993721,9.821699142456056,2.9914097785949707,0.7971662878990173,0.1736901253461837
4201546757.0,-0.5474016070365906,0.3511582911014557,9.858016967773438,2.9508626461029053,0.9300273060798644,0.0973084792494773
4201555090.0,-0.4585470855236053,0.213730901479721,9.981834411621094,2.5582730770111084,0.6867944598197937,0.006941458210349
4201563423.0,-0.3273833990097046,-0.1456685960292816,9.961587905883787,2.469289302825928,0.379039466381073,0.0216952580958604
4201571756.0,-0.3664971590042114,-0.1469775140285492,9.745341300964355,2.7011492252349854,0.6331838965415955,0.1298641711473465
4201580089.0,-0.5056026577949524,0.1910884976387024,9.746399879455566,3.040461301803589,0.9315641522407532,0.1049415320158004
4201588422.0,-0.590069055557251,0.3187170326709747,9.949384689331056,2.828272819519043,0.9295406341552734,0.0493842475116252
4201596755.0,-0.4670595228672027,0.062463741749525,10.114774703979492,2.5117831230163574,0.5354911684989929,0.0050972332246601
4201605088.0,-0.4260447919368744,-0.1523990184068679,9.95425510406494,2.46539568901062,0.3469704091548919,0.0792248174548149
4201613421.0,-0.4757791757583618,0.0072125797159969,9.777344703674316,2.7238690853118896,0.7437092661857605,0.1543513983488083
4201621754.0,-0.5374799370765686,0.2239872813224792,9.84119701385498,2.969099521636963,0.9403496980667114,0.0574527233839035
4201630087.0,-0.4436034858226776,0.1369439661502838,10.015694618225098,2.588472366333008,0.7309278249740601,0.1016885191202163
4201638420.0,-0.2823912501335144,-0.1118880659341812,9.96607494354248,2.4531774520874023,0.3727639317512512,0.0126022025942802
4201646753.0,-0.3256877660751343,-0.0370523333549499,9.796619415283203,2.780579090118408,0.6651248335838318,0.1082969903945922
4201655086.0,-0.4989851415157318,0.1938661634922027,9.78868579864502,2.933290958404541,1.1770509481430054,0.1726399362087249
4201663419.0,-0.5870672464370728,0.173108696937561,9.982128143310549,2.75119948387146,1.2668800354003906,0.0808129087090492
4201671752.0,-0.4841654002666473,-0.125659167766571,10.045994758605955,2.5290982723236084,0.478268951177597,0.196102574467659
4201680085.0,-0.4099536836147308,-0.1891084313392639,9.837732315063477,2.582350492477417,0.1340649127960205,0.0586822181940078
4201688418.0,-0.476340115070343,0.1575611531734466,9.75834846496582,3.058032512664795,0.9967779517173768,0.0878568366169929
4201696751.0,-0.5382764935493469,0.3345746397972107,9.97161102294922,2.926042079925537,1.1424461603164673,0.1406221538782119
4201705084.0,-0.4246928691864013,0.10747991502285,10.104568481445312,2.505021095275879,0.5572633743286133,-0.0093107754364609
4201713417.0,-0.2886412739753723,-0.1306389719247818,9.848421096801758,2.370367288589477,0.022950354963541,0.0438515730202198
4201721750.0,-0.3587103486061096,-0.0422679148614406,9.623355865478516,2.715416431427002,0.7207589745521545,0.0711819678544998
4201730083.0,-0.5432021021842957,0.2136876881122589,9.852622032165527,2.957265853881836,1.4534541368484497,0.2009948939085006
4201738416.0,-0.5617196559906006,0.1841760277748108,10.098072052001951,2.782602548599243,1.0694456100463867,0.0810946673154831
4201746749.0,-0.479695975780487,-0.0030475524254143,10.05667781829834,2.412194967269897,0.1592436879873275,0.0861406624317169
4201755082.0,-0.475830614566803,-0.0212776791304349,9.786739349365234,2.5201334953308105,0.1969478577375412,0.0572221986949443
4201763415.0,-0.5097560882568359,0.139049157500267,9.774704933166504,2.788724184036255,1.015860676765442,-0.0879464745521545
4201771748.0,-0.5121675133705139,0.1584604233503341,10.023553848266602,2.8254551887512207,1.0365313291549685,0.0379346832633018
4201780081.0,-0.4112746715545654,-0.0413840226829052,10.005772590637209,2.52681851387024,0.1347052603960037,0.0364746674895286
4201788414.0,-0.3145771026611328,-0.0537592992186546,9.765484809875488,2.419520616531372,-0.0076714637689292,0.0907512381672859
4201796747.0,-0.3957245945930481,0.1261355876922607,9.72366428375244,2.7726895809173584,0.8319503664970398,0.1267392486333847
4201805080.0,-0.5307654142379761,0.2021425366401672,9.946486473083496,2.84784197807312,1.344414472579956,0.0316335819661617
4201813413.0,-0.5205825567245483,-0.0342196114361286,10.077980041503906,2.601048707962036,0.7768797874450684,0.1007151827216148
4201821746.0,-0.4893143475055694,-0.1446903496980667,9.892162322998049,2.3957507610321045,0.0432368293404579,0.0780465751886367
4201830079.0,-0.4622901082038879,0.0644304156303405,9.788862228393556,2.733192682266236,0.4136699140071869,0.1136247590184211
4201838412.0,-0.4717191457748413,0.2599953114986419,9.912117004394531,2.909930944442749,1.0764126777648926,0.1155202016234397
4201846745.0,-0.4527188241481781,0.109948381781578,10.058391571044922,2.655017852783203,0.8884041905403137,0.1022520288825035
4201855078.0,-0.3863288760185241,-0.1023360639810562,9.929677963256836,2.3952383995056152,0.3130827844142914,0.1773017346858978
4201863411.0,-0.3800690770149231,-0.0022990047000348,9.664828300476074,2.6174418926239014,0.2818078100681305,0.197152778506279
4201871744.0,-0.429781436920166,0.1833852976560592,9.787542343139648,2.8248660564422607,1.0102510452270508,0.1218981370329856
4201880077.0,-0.4947266280651092,0.1377948075532913,10.011627197265623,2.8240973949432373,1.186118245124817,0.0033042361028492
4201888410.0,-0.4876748025417328,-0.0548080429434776,10.025153160095217,2.66014051437378,0.5690714716911316,0.0944653004407882
4201896743.0,-0.4927037060260772,7.38808885216e-05,9.821008682250977,2.5591182708740234,0.334316998720169,0.0712331905961036
4201905076.0,-0.4924973249435425,0.1626269966363906,9.784488677978516,2.70796275138855,0.8394297957420349,0.0969498828053474
4201913409.0,-0.5073593854904175,0.1115098670125007,9.96151065826416,2.6894688606262207,1.0205222368240356,0.1302739977836609
4201921742.0,-0.4142148494720459,-0.0769249573349952,10.030864715576172,2.5680320262908936,0.5936355590820312,0.0470533519983291
4201930075.0,-0.3588471114635467,-0.0156085500493645,9.809630393981934,2.482992887496948,0.1259708255529403,0.0509211011230945
4201938408.0,-0.3819290697574615,0.1566170752048492,9.709696769714355,2.603097915649414,0.7150213718414307,0.0879592821002006
4201946741.0,-0.4646355211734772,0.140528455376625,9.831098556518556,2.683347463607788,1.2467985153198242,0.0828108116984367
4201955074.0,-0.4917219579219818,-0.1072073504328727,10.032057762145996,2.656836748123169,0.9930895566940308,0.038651879876852
4201963407.0,-0.5069148540496826,-0.1337450444698333,9.925562858581545,2.716363906860352,0.4528083503246307,0.0811715126037597
4201971740.0,-0.525252640247345,0.1260213255882263,9.791925430297852,2.8497121334075928,0.4895136952400207,0.1054538115859031
4201980073.0,-0.5000813603401184,0.2458900362253189,9.865961074829102,2.9103918075561523,1.0812537670135498,0.0477961637079715
4201988406.0,-0.4260724186897278,0.0135177364572882,10.006757736206056,2.672205209732056,0.7522132396697998,0.1102692782878875
4201996739.0,-0.3900016546249389,-0.1378000676631927,9.860963821411133,2.567033052444458,0.4311132133007049,0.1358579099178314
4202005072.0,-0.4911816418170929,0.0218476336449384,9.656962394714355,2.7057595252990723,0.6198388934135437,0.1057868003845214
4202013405.0,-0.5272995829582214,0.1815926432609558,9.808663368225098,2.926964521408081,0.936558961868286,0.1500738114118576
4202021738.0,-0.4776912629604339,0.0710727125406265,10.08616542816162,2.8316023349761963,1.153639554977417,0.0937224924564361
4202030071.0,-0.4408788383007049,-0.0248096641153097,10.046661376953123,2.602790355682373,0.4601084887981415,0.1058380156755447
4202038404.0,-0.5254587531089783,0.0499035269021987,9.79736042022705,2.7210514545440674,0.6349512934684753,0.1230507791042327
4202046737.0,-0.5494508147239685,0.1448268592357635,9.816048622131348,2.827094554901123,1.129075527191162,0.0999467521905899
4202055070.0,-0.4525142908096313,0.0562040135264396,9.995455741882324,2.7926173210144043,0.9649906754493712,0.0416231304407119
4202063403.0,-0.3400156497955322,-0.0665409117937088,9.932721138000488,2.554661273956299,0.2750968635082245,0.0555060468614101
4202071736.0,-0.3671295046806335,0.0697389841079711,9.775662422180176,2.694310188293457,0.5757567286491394,0.0975902378559112
4202080069.0,-0.4623158872127533,0.1945819854736328,9.80767822265625,2.742183208465576,1.2289196252822876,0.0314286649227142
4202088402.0,-0.5190698504447937,0.1156143993139267,10.023900032043455,2.8339078426361084,1.1463395357131958,0.1551710218191146
4202096735.0,-0.5043708086013794,-0.1389053612947464,9.99781608581543,2.524564504623413,0.4386181235313415,0.0719247683882713
4202105068.0,-0.4514968991279602,-0.0492871552705764,9.810508728027344,2.6952321529388428,0.3866981267929077,0.09400425106287
4202113401.0,-0.4564000368118286,0.1997235715389251,9.85567855834961,2.9036552906036377,0.8648390173912048,0.1446948200464248
4202121734.0,-0.457732081413269,0.2661481499671936,10.065596580505373,2.8820366859436035,0.9273632764816284,0.1340905278921127
4202130067.0,-0.4023490250110626,0.022411523386836,10.007146835327148,2.59938383102417,0.5179197788238525,0.0735384672880172
4202138400.0,-0.3406309187412262,-0.0656635835766792,9.772367477416992,2.4413955211639404,0.3445883393287658,0.0386775024235248
4202146733.0,-0.4196285009384155,0.1148992627859115,9.727954864501951,2.847354888916016,0.8331541419029236,0.161446526646614
4202155066.0,-0.5090734958648682,0.2187729924917221,9.943733215332031,2.851376533508301,1.2949275970458984,0.1415442675352096
4202163399.0,-0.5038398504257202,0.0930486470460891,10.118497848510742,2.712931632995605,0.9646576046943665,0.1743817031383514
4202171732.0,-0.4658237397670746,-0.0015721042873337,9.958888053894045,2.5599379539489746,0.5449427962303162,0.1305045187473297
4202180065.0,-0.5131111145019531,0.0907370299100875,9.75851345062256,2.6731526851654053,0.6552889943122864,0.0784051716327667
4202188398.0,-0.5070082545280457,0.0863507539033889,9.810630798339844,2.761726856231689,1.0809719562530518,0.0535593703389167
4202196731.0,-0.4158304929733276,-0.0531367063522338,9.95505142211914,2.574102640151977,0.7733449935913086,0.1152896881103515
4202205064.0,-0.3455291092395782,-0.0982723161578178,9.825875282287598,2.5902395248413086,0.3584200143814087,0.1355505287647247
4202213397.0,-0.4147474765777588,0.0353256911039352,9.646785736083984,2.7164406776428223,0.5374378561973572,0.151328906416893
4202221730.0,-0.4637427031993866,0.1165580302476883,9.723024368286133,2.9365952014923096,1.1346337795257568,0.0874470025300979
4202230063.0,-0.4914873838424682,-0.0065811015665531,9.995633125305176,2.8133137226104736,0.9953435063362122,0.2473566681146621
4202238396.0,-0.4983463585376739,-0.1456645727157592,9.871431350708008,2.78721284866333,0.5117468237876892,0.058144312351942
4202246729.0,-0.556771993637085,0.0835203528404235,9.765893936157228,2.9241979122161865,0.6002951264381409,0.0746911019086837
4202255062.0,-0.5176869630813599,0.2614865601062774,9.911547660827637,2.900146245956421,1.016987681388855,0.0745630487799644
4202263395.0,-0.3994677364826202,0.1672095507383346,10.093146324157717,2.7552976608276367,0.7724741101264954,0.0873701572418212
4202271728.0,-0.3555266261100769,-0.0229696743190288,9.923664093017578,2.5417518615722656,0.3519651889801025,0.2042479068040847
4202280061.0,-0.4523375034332275,0.019014174118638,9.722722053527832,2.6055572032928467,0.5323919057846069,0.1155970469117164
4202288394.0,-0.4963869154453277,0.1167187765240669,9.827995300292969,2.789902925491333,0.9521068334579468,0.0883947312831878
4202296727.0,-0.5200815200805664,0.1606514155864715,10.071769714355469,2.6397006511688232,0.9233164191246032,0.1474099308252334
4202305060.0,-0.5171114206314087,0.0020466072019189,10.032461166381836,2.329307079315185,0.6457348465919495,-0.0073640919290483
4202313393.0,-0.5209049582481384,-0.0016723880544304,9.94143009185791,2.50325345993042,0.4327012598514557,0.2308354824781417
4202321726.0,-0.546683669090271,0.1289995908737182,9.898978233337402,2.64792275428772,0.7655582427978516,0.1428505778312683
4202330059.0,-0.5316852927207947,0.0769238322973251,10.055330276489258,2.683936595916748,0.6365649700164795,0.1275845021009445
4202338392.0,-0.3789683878421783,-0.0900687351822853,9.99984073638916,2.3600189685821533,0.2502766847610473,0.1098594665527343
4202346725.0,-0.3472875356674194,-0.0471872240304946,9.863775253295898,2.485118865966797,0.11349668353796,0.0498965308070182
4202355058.0,-0.4272694885730743,0.1357153356075287,9.81898307800293,2.722255229949951,0.6462984085083008,0.1301203072071075
4202363391.0,-0.5226500034332275,0.127754271030426,9.93303680419922,2.6664421558380127,1.0558956861495972,0.1127794831991195
4202371724.0,-0.5186329483985901,-0.1337243765592575,10.0643310546875,2.610551595687866,0.628547728061676,-0.0139981806278228
4202380057.0,-0.4775947630405426,-0.1351874619722366,9.89041233062744,2.6670565605163574,0.1108327880501747,0.1064271405339241
4202388390.0,-0.5331900715827942,0.118042767047882,9.7538480758667,2.7405951023101807,0.5506292581558228,-0.0195308551192283
4202396723.0,-0.4894279241561889,0.2365350425243377,9.99143123626709,2.969432592391968,0.8922463655471802,0.0047898618504405
4202405056.0,-0.3898360729217529,0.0488776788115501,10.098528861999512,2.6197471618652344,0.5183552503585815,0.1532499641180038
4202413389.0,-0.3538322746753692,-0.0965754017233848,9.831583976745604,2.543006658554077,0.0028687943704426,0.1337831616401672
4202421722.0,-0.4493316411972046,0.0262602511793375,9.628195762634276,2.638906478881836,0.5499119758605957,0.1399817913770675
4202430055.0,-0.4802632927894592,0.1484599709510803,9.839118957519531,2.8705105781555176,1.0496970415115356,0.1704114973545074
4202438388.0,-0.4570853114128113,0.0621059127151966,10.04538917541504,2.6690800189971924,0.7286737561225891,0.1281736195087433
4202446721.0,-0.4878504872322082,-0.0470567680895328,9.87179183959961,2.5143189430236816,0.1537366509437561,0.0497940704226493
4202455054.0,-0.5046483874320984,0.0503838807344436,9.772217750549316,2.6156489849090576,0.3650029003620147,0.154095247387886
4202463387.0,-0.5056661367416382,0.1109534204006195,9.863868713378906,2.8428986072540283,0.765814483165741,0.1397512704133987
4202471720.0,-0.466403067111969,0.0411856807768344,9.989044189453123,2.6460273265838623,0.5959663987159729,0.0955410972237587
4202480053.0,-0.3534144759178161,-0.0553476884961128,9.850593566894531,2.4819939136505127,0.1636749804019928,0.1417235732078552
4202488386.0,-0.3432129323482513,0.034065656363964,9.723931312561035,2.56623911857605,0.139213353395462,0.0418280437588691
4202496719.0,-0.4237455129623413,0.136546716094017,9.688956260681152,2.7430543899536133,0.6726555228233337,0.1409039050340652
4202505052.0,-0.4970698058605194,0.0804961174726486,9.874207496643066,2.657963752746582,0.8847669959068298,0.1097313910722732
4202513385.0,-0.4959926307201385,-0.102667324244976,10.012859344482422,2.5443389415740967,0.4795241057872772,0.1513801366090774
4202521718.0,-0.4879432916641235,-0.0752964839339256,9.792043685913086,2.6664931774139404,0.0841171592473983,0.129198208451271
4202530051.0,-0.5431280136108398,0.1421509236097335,9.795018196105955,2.7356514930725098,0.510286808013916,0.127507671713829
4202538384.0,-0.450867235660553,0.1620493531227111,10.042262077331545,2.7247653007507324,0.5418947339057922,0.0700549334287643
4202546717.0,-0.3441331684589386,-0.0495202057063579,10.058319091796877,2.4520249366760254,0.09782075881958,0.1924141347408294
4202555050.0,-0.38308185338974,-0.1629839092493057,9.738173484802246,2.455303907394409,-0.2813595831394195,0.1359859704971313
4202563383.0,-0.4677071273326874,0.0449307858943939,9.677372932434082,2.7860348224639893,0.320869505405426,0.066161572933197
4202571716.0,-0.4860433638095855,0.0856662392616272,9.941637992858888,2.9123640060424805,0.7750611901283264,0.0766890197992324
4202580049.0,-0.4533905982971191,-0.0664749518036842,10.167628288269045,2.664546489715576,0.159499853849411,0.1830905526876449
4202588382.0,-0.4326099455356598,-0.0602317452430725,9.850101470947266,2.484913825988769,0.0411876961588859,0.206040933728218
4202596715.0,-0.5165321230888367,0.0899780765175819,9.891155242919922,2.8394150733947754,0.2105746418237686,0.1837821453809738
4202605048.0,-0.4927429258823395,0.044159535318613,9.991988182067873,2.846971035003662,0.4770139157772064,0.0987684950232505
4202613381.0,-0.3829496800899505,-0.0855586230754852,10.112690925598145,2.6551971435546875,-0.0494226664304733,0.2016608715057373
4202621714.0,-0.3498344421386719,-0.0584696047008037,9.86911678314209,2.511065721511841,-0.3270041048526764,0.1996885687112808
4202630047.0,-0.4022549092769623,0.1233144178986549,9.767980575561523,2.820409059524536,0.1031997576355934,0.1743561029434204
4202638380.0,-0.487830638885498,0.1343972235918045,9.890424728393556,2.8812174797058105,0.6882033348083496,0.2307842820882797
4202646713.0,-0.5335685014724731,-0.0199565142393112,10.1116361618042,2.623307466506958,0.649039089679718,0.1717434525489807
4202655046.0,-0.4936552941799164,-0.0846447050571441,10.089460372924805,2.526690721511841,-0.1441441178321838,0.2215887308120727
4202663379.0,-0.52431321144104,0.1358144432306289,9.86821746826172,2.745128631591797,0.1408014446496963,0.1327585726976394
4202671712.0,-0.4738685488700866,0.339061439037323,9.959395408630373,2.919971704483032,0.4884122610092163,0.116442322731018
4202680045.0,-0.372184544801712,0.2066971957683563,10.157754898071287,2.603200435638428,0.370509922504425,0.0498196892440319
4202688378.0,-0.327193945646286,0.0157463923096656,10.01079273223877,2.2996459007263184,-0.2223443686962127,0.1662363708019256
4202696711.0,-0.4446617364883423,0.0980254560708999,9.641308784484863,2.492009162902832,-0.0126662394031882,0.160601258277893
4202705044.0,-0.5155718922615051,0.2502118647098541,9.79687786102295,2.823739051818848,0.6072110533714294,0.2076033949851989
4202713377.0,-0.5292279720306396,0.1429403871297836,9.94981288909912,2.6353206634521484,0.6855394244194031,0.1166984513401985
4202721710.0,-0.4696280360221863,0.1018749326467514,10.115497589111328,2.5022547245025635,0.2417471259832382,0.0327093787491321
4202730043.0,-0.5699591040611267,0.075715571641922,9.696670532226562,2.4843246936798096,0.1104741990566253,0.0623194389045238
4202738376.0,-0.4860236048698425,0.1952485144138336,9.94001293182373,2.83928656578064,0.5813919305801392,0.0648808628320694
4202746709.0,-0.4564663767814636,0.1069832071661949,9.851543426513672,2.636012315750122,0.616150438785553,0.18695829808712
4202755042.0,-0.4054462015628814,0.0219471380114555,9.937226295471191,2.589087009429932,0.3382103741168976,0.0516895316541194
4202763375.0,-0.3316852152347564,0.0704602375626564,9.750425338745115,2.683347225189209,0.235446035861969,0.0376273095607757
4202771708.0,-0.4148712158203125,0.2025820910930633,9.745403289794922,2.778248310089112,0.7933753728866577,0.0910329967737197
4202780041.0,-0.5081912279129028,0.1407264322042465,9.869686126708984,2.727762460708618,0.9926541447639464,0.0982305854558944
4202788374.0,-0.5378738641738892,-0.023256067186594,9.993825912475586,2.6387531757354736,0.8197580575942993,0.195718377828598
4202796707.0,-0.4865507483482361,-0.0058740032836794,9.917682647705078,2.654505491256714,0.3274011611938476,-0.0164315309375524
4202805040.0,-0.5065122842788696,0.2108765393495559,9.794546127319336,2.833831310272217,0.4357750117778778,0.0143952006474137
4202813373.0,-0.4431792497634887,0.2627992033958435,9.973599433898926,2.705196619033813,0.7697589993476868,0.0565562359988689
4202821706.0,-0.3270268440246582,0.1054608225822448,10.085498809814451,2.530097246170044,0.4922543466091156,-0.0395355708897113
4202830039.0,-0.3240739107131958,-0.0253643412142992,9.797943115234377,2.413040399551392,0.198612779378891,0.1102180629968643
4202838372.0,-0.3723699152469635,0.0797083228826522,9.612404823303224,2.638727188110352,0.4987092018127441,0.0732823312282562
4202846705.0,-0.4442689418792724,0.1529044359922409,9.898072242736816,2.678403615951538,1.2014868259429932,0.0889582335948944
4202855038.0,-0.4587640762329101,0.0584783069789409,10.089360237121582,2.4693660736083984,0.8857147097587585,0.0733847841620445
4202863371.0,-0.4558363854885101,-0.0097824446856975,9.909016609191896,2.455355167388916,0.3931016623973846,0.1322462856769561
4202871704.0,-0.4489330947399139,0.057385180145502,9.805724143981934,2.586320400238037,0.5489130020141602,0.1574762910604477
4202880037.0,-0.4665396213531494,0.0593085698783397,9.861650466918944,2.54974365234375,0.867759108543396,0.1324512213468551
4202888370.0,-0.3845058083534241,-0.0523330681025981,9.964978218078612,2.47820258140564,0.5494765639305115,0.0986916422843933
4202896703.0,-0.2569352388381958,-0.1153805404901504,9.912148475646973,2.3689069747924805,0.1849091649055481,0.1891611367464065
4202905036.0,-0.3261548280715942,-0.0074407132342457,9.706464767456056,2.6246650218963623,0.4463024735450744,0.136549487709999
4202913369.0,-0.4511427283287048,0.0803776383399963,9.748193740844728,2.815208911895752,1.1746944189071655,0.0909305214881897
4202921702.0,-0.4688777923583984,-0.0374789610505104,10.00295352935791,2.765389919281006,1.131278395652771,0.0462849289178848
4202930035.0,-0.468529462814331,-0.1928893327713012,10.010286331176758,2.618363857269287,0.4364153742790222,0.0211829710751771
4202938368.0,-0.4789437055587768,-0.1159982979297638,9.76144027709961,2.7960243225097656,0.4520400762557983,-0.006903036031872
4202946701.0,-0.4673724174499511,0.1117520630359649,9.81494140625,2.99310040473938,0.8413252234458923,0.0540460385382175
4202955034.0,-0.4207713007926941,0.1110051795840263,10.054054260253906,2.766542434692383,0.7933497428894043,0.2040686309337616
4202963367.0,-0.3758376240730285,-0.1034261286258697,9.999018669128418,2.644669532775879,0.3195375800132751,0.0194668192416429
4202971700.0,-0.3011130094528198,-0.1589795649051666,9.698728561401367,2.7525057792663574,0.3877739012241363,0.0965144336223602
4202980033.0,-0.3887393474578857,0.0300969947129488,9.69546890258789,3.0113630294799805,1.0261317491531372,0.0867810249328613
4202988366.0,-0.5350096821784973,0.0908025875687599,9.93855094909668,2.909879684448242,1.15056574344635,0.028098814189434
4202996699.0,-0.5400402545928955,-0.0175380930304527,10.057198524475098,2.637472152709961,0.8723184466362,0.0820936262607574
4203005032.0,-0.4726101458072662,-0.0867634490132331,9.9021635055542,2.663701057434082,0.3698951601982116,0.0834255665540695
4203013365.0,-0.4862547218799591,0.0289973150938749,9.780573844909668,2.943434238433838,0.506470263004303,0.0263826623558998
4203021698.0,-0.5460189580917358,0.128239631652832,9.843512535095217,2.880192756652832,1.001798391342163,0.1599096804857254
4203030031.0,-0.431923359632492,-0.0123356655240058,10.029756546020508,2.894408702850342,0.7113074064254761,0.1407758444547653
4203038364.0,-0.3225244283676147,-0.0924107506871223,9.922439575195312,2.598205804824829,-0.0906103625893592,0.0049947760999202
4203046697.0,-0.3518668413162231,0.0361995510756969,9.651809692382812,2.979422092437744,0.3636964857578277,0.0817350149154663
4203055030.0,-0.4456061124801636,0.1768970340490341,9.76838493347168,3.0954294204711914,1.3477699756622314,0.1646483093500137
4203063363.0,-0.5283323526382446,0.0887503027915954,10.134039878845217,2.8373913764953613,1.0400404930114746,-0.0143055515363812
4203071696.0,-0.5434485077857971,-0.1324590891599655,10.055940628051758,2.6909544467926025,0.3515297472476959,0.1194135621190071
4203080029.0,-0.4736117124557495,-0.0132245952263474,9.792394638061523,2.8647215366363525,0.2671820521354675,0.1463085114955902
4203088362.0,-0.4567292332649231,0.2829239964485168,9.88868522644043,3.17975115776062,0.91942298412323,0.0750753208994865
4203096695.0,-0.4330269992351532,0.2288955748081207,10.06293773651123,2.889516115188598,0.7493188381195068,0.1724606454372406
4203105028.0,-0.3278554379940033,-0.0596075281500816,9.95190715789795,2.636319398880005,0.1548380553722381,0.0575807951390743
4203113361.0,-0.2997119128704071,0.0013496774481609,9.75264835357666,2.801095962524414,0.2705888152122497,0.0436210446059703
4203121694.0,-0.4573102295398712,0.1457692980766296,9.671978950500488,2.947404146194458,0.944678544998169,0.0896498188376426
4203130027.0,-0.5174968838691711,0.1993670910596847,9.982219696044922,2.870433807373047,1.2923662662506104,0.1626760065555572
4203138360.0,-0.4792718291282654,0.0998336374759674,10.177197456359863,2.5844507217407227,0.5711462497711182,0.1012786850333213
4203146693.0,-0.4614388942718506,0.0354041270911693,9.879597663879396,2.7161848545074463,0.173946276307106,0.0794553533196449
4203155026.0,-0.4752459228038788,0.1414149105548858,9.74014377593994,2.800506830215454,0.8320528268814087,0.0883435010910034
4203163359.0,-0.50298672914505,0.229827806353569,9.98708152770996,2.8659253120422363,1.0774884223937988,0.1461804509162902
4203171692.0,-0.4492600262165069,0.0630051493644714,10.133161544799805,2.5714645385742188,0.4416918456554413,0.0796602740883827
4203180025.0,-0.2979060113430023,0.0163053199648857,9.77896213531494,2.57051682472229,0.1020983457565307,0.0992807820439338
4203188358.0,-0.321927011013031,0.221739575266838,9.739919662475586,2.733781814575196,0.6083637475967407,0.1669279783964157
4203196691.0,-0.495934396982193,0.2416467368602752,9.88471221923828,2.7262511253356934,1.251870036125183,0.1280199438333511
4203205024.0,-0.5445842742919922,0.0229969099164009,10.114786148071287,2.557171583175659,1.1053566932678225,0.1238960549235344
4203213357.0,-0.4962469339370727,-0.0912961885333061,10.007665634155272,2.47784423828125,0.2324491590261459,0.1264062523841858
4203221690.0,-0.4745604693889618,0.0624313317239284,9.800664901733398,2.687650680541992,0.3106238543987274,0.1301971673965454
4203230023.0,-0.491755723953247,0.2542059421539306,9.839162826538086,2.741952419281006,1.0430883169174194,-0.008772874251008
4203238356.0,-0.4649249613285064,0.1736095547676086,10.07163429260254,2.473284959793091,0.7757015228271484,-0.0041623134166002
4203246689.0,-0.3755375146865845,-0.0861233919858932,9.937490463256836,2.367267847061157,0.1361908912658691,0.1224872767925262
4203255022.0,-0.3352276980876922,-0.0925561189651489,9.593533515930176,2.472849607467652,0.171026274561882,0.0836560875177383
4203263355.0,-0.4399761259555816,0.1160212904214859,9.68899154663086,2.7798619270324707,0.9681156277656556,0.1199258342385292
4203271688.0,-0.5306852459907532,0.1481703966856002,10.058515548706056,2.6794028282165527,1.205252170562744,0.1524815410375595
4203280021.0,-0.5253134369850159,-0.0111793503165245,10.082637786865234,2.4526400566101074,0.4922288060188293,0.1847298741340637
4203288354.0,-0.4651781320571899,-0.0479253903031349,9.825325012207031,2.59695053100586,0.254093199968338,0.0911610648036003
4203296687.0,-0.4703320264816284,0.0850887447595596,9.729240417480469,2.7008161544799805,0.7435043454170227,0.1576299965381622
4203305020.0,-0.5233356356620789,0.0933737531304359,9.894072532653809,2.8099071979522705,1.0769761800765991,0.0655468329787254
4203313353.0,-0.4113740921020508,-0.0434205941855907,10.04408359527588,2.4826853275299072,0.3615193665027618,0.1674146652221679
4203321686.0,-0.2906058430671692,-0.0528039261698722,9.814703941345217,2.60225248336792,0.0356294028460979,0.1408014595508575
4203330019.0,-0.3632268011569977,0.0924702659249305,9.628923416137695,2.7928736209869385,0.7934265732765198,0.1223592013120651
4203338352.0,-0.510750949382782,0.1568212956190109,9.866084098815918,2.761240005493164,1.3647775650024414,0.0947982817888259
4203346685.0,-0.5333099961280823,-0.0380575619637966,10.1611328125,2.556684970855713,0.7329001426696777,0.1544282287359237
4203355018.0,-0.4902013540267944,-0.197260245680809,9.888754844665527,2.483376979827881,-0.0630238205194473,0.0864736512303352
4203363351.0,-0.424109935760498,-0.00334346992895,9.708924293518066,2.7903380393981934,0.3791162967681885,0.1674914807081222
4203371684.0,-0.4391529858112335,0.2096520811319351,9.894665718078612,2.8635175228118896,0.9442431330680848,0.0542253330349922
4203380017.0,-0.4424330592155456,0.0972566381096839,10.10204792022705,2.6306073665618896,0.834050714969635,0.1295311897993087
4203388350.0,-0.3114559650421142,-0.1278041154146194,9.89890480041504,2.396493434906006,-0.0121027259156107,0.125228002667427
4203396683.0,-0.3354280292987823,-0.1279144436120987,9.61662483215332,2.627687454223633,0.348097413778305,0.1192854940891265
4203405016.0,-0.4704028367996216,0.1312760114669799,9.776329040527344,2.855602979660034,1.0472378730773926,0.11385527998209
4203413349.0,-0.5367890000343323,0.109669916331768,10.087834358215332,2.79164457321167,1.1933928728103638,0.0546351671218872
4203421682.0,-0.4888243675231933,-0.0216814018785953,10.158754348754885,2.609271287918091,0.3683583438396454,0.0630110204219818
4203430015.0,-0.4352348744869232,-0.0032240450382232,9.833829879760742,2.580608367919922,0.2483043819665908,-0.0161497741937637
4203438348.0,-0.4451314508914947,0.1139692366123199,9.758054733276367,2.7753281593322754,0.7843591570854187,0.1716666221618652
4203446681.0,-0.4657815396785736,0.1505252867937088,9.996604919433594,2.7259438037872314,1.0811768770217896,0.1453607976436615
4203455014.0,-0.4255808591842651,0.0125064682215452,10.098258018493652,2.519083499908448,0.3481487035751343,0.0314286686480045
4203463347.0,-0.2994634211063385,-0.0940812230110168,9.851824760437012,2.610372304916382,0.0167773235589265,-0.051676720380783
4203471680.0,-0.3184846341609955,0.1328384429216385,9.66926097869873,2.745641231536865,0.7586168050765991,0.1152128353714943
4203480013.0,-0.5217176079750061,0.2248416095972061,9.900469779968262,2.8264284133911133,1.2129108905792236,-0.013870108872652
4203488346.0,-0.5678210258483887,-0.044960506260395,10.115622520446776,2.6017401218414307,0.903542160987854,-0.0757797062397003
4203496679.0,-0.4974568784236908,-0.1367699652910232,9.960944175720217,2.5118088722229004,0.1968710124492645,0.033657107502222
4203505012.0,-0.4518219232559204,0.0488873943686485,9.794393539428713,2.7486891746521,0.3674362301826477,0.0798908025026321
4203513345.0,-0.4669434130191803,0.2372207194566726,9.872601509094238,2.8489177227020264,0.9900413751602172,0.0791992098093032
4203521678.0,-0.4143700301647186,0.1684446185827255,10.06340503692627,2.599281549453736,0.8462175726890564,0.1713592261075973
4203530011.0,-0.3684883713722229,-0.0733337253332138,10.013100624084473,2.506941795349121,0.1796069890260696,0.1098338291049003
4203538344.0,-0.3596606254577636,-0.099340833723545,9.638888359069824,2.5882418155670166,0.2343958765268325,0.0270742457360029
4203546677.0,-0.4094544053077698,0.1828835159540176,9.720399856567385,2.84953236579895,1.1005924940109253,0.1711286902427673
4203555010.0,-0.5107142329216003,0.2268533408641815,10.022205352783203,2.8333702087402344,1.1861696243286133,0.059578713029623
4203563343.0,-0.5278045535087585,-0.0086382497102022,10.115653038024902,2.469110012054444,0.3828047513961792,0.1029948368668556
4203571676.0,-0.4662121832370758,-0.0254398826509714,9.794403076171877,2.5495643615722656,0.1578861325979232,0.0527653284370899
4203580009.0,-0.5067061185836792,0.1503472924232483,9.767462730407717,2.75532341003418,0.7448363304138184,0.1647763848304748
4203588342.0,-0.5224055051803589,0.1230272352695465,9.939861297607422,2.667697191238404,1.012095332145691,0.0839122384786605
4203596675.0,-0.376448392868042,-0.0194690320640802,10.031412124633787,2.5793025493621826,0.4561639428138733,0.0706953033804893
4203605008.0,-0.3135208189487457,0.0074289296753704,9.805830955505373,2.454842567443848,0.0927747562527656,0.0336058735847473
4203613341.0,-0.3562358617782593,0.1269093751907348,9.625100135803224,2.72696852684021,0.6470668911933899,0.0313518308103084
4203621674.0,-0.4556840658187866,0.1551088541746139,9.8058500289917,2.772689819335937,1.3659048080444336,0.1904162317514419
4203630007.0,-0.4968846142292022,-0.0017355068121105,10.07521915435791,2.5319416522979736,0.9000841379165649,0.1514825969934463
4203638340.0,-0.5066277384757996,-0.1645114421844482,9.956721305847168,2.4681363105773926,0.202864721417427,-0.0072104069404304
4203646673.0,-0.4780824482440948,0.0127751305699348,9.72666358947754,2.7688989639282227,0.4994775950908661,0.10327660292387
4203655006.0,-0.457981526851654,0.2672598361968994,9.888333320617676,2.8845982551574707,0.9965986609458924,0.079404130578041
4203663339.0,-0.4486923217773437,0.1093840152025222,10.104595184326172,2.581915140151977,0.7383816242218018,0.0434929691255092
4203671672.0,-0.3308846950531006,-0.1274916380643844,9.861634254455566,2.4269490242004395,0.2118809670209884,0.0132169444113969
4203680005.0,-0.3042953312397003,-0.0511050187051296,9.68233871459961,2.7738425731658936,0.4693809151649475,0.1332964897155761
4203688338.0,-0.4442394077777862,0.1289954930543899,9.772809028625488,2.891795873641968,0.9840220808982848,0.1294799447059631
4203696671.0,-0.4733012616634369,0.1209400072693824,10.060649871826172,2.7755842208862305,1.2394473552703855,0.2017889618873596
4203705004.0,-0.4364835321903229,-0.0345107056200504,10.129753112792969,2.531070709228516,0.5990913510322571,0.0639843568205833
4203713337.0,-0.4660817682743072,-0.0460109077394008,9.885391235351562,2.621027708053589,0.2868794202804565,0.1416467130184173
4203721670.0,-0.4724761843681335,0.0583361312747001,9.770654678344728,2.8179500102996826,0.7741389870643616,0.0926466807723045
4203730003.0,-0.4923374056816101,0.1475646197795868,9.945231437683104,2.739595890045166,1.099542260169983,0.1676195412874221
4203738336.0,-0.4396228194236755,-0.0435967482626438,10.11501121520996,2.485093355178833,0.3737629354000091,0.1266880184412002
4203746669.0,-0.2985491454601288,-0.1039608865976333,9.852330207824709,2.6601152420043945,0.2210252434015274,0.0234882533550262
4203755002.0,-0.3408859074115753,0.1147660464048385,9.685955047607422,2.784369707107544,0.8347423672676086,0.0908793061971664
4203763335.0,-0.5058503746986389,0.1804990917444229,9.914027214050291,2.867872476577759,1.4621632099151611,0.0434417463839054
4203771668.0,-0.5492017269134521,-0.050819668918848,10.10060691833496,2.606606960296631,1.0500811338424685,0.0974365547299385
4203780001.0,-0.4703310430049896,-0.1792637258768081,9.975313186645508,2.557069063186645,0.2109588235616684,0.0785332396626472
4203788334.0,-0.4502895772457123,0.0156492330133914,9.784987449645996,2.888927459716797,0.3922564387321472,0.1706676632165908
4203796667.0,-0.5020673274993896,0.2255578935146331,9.846726417541504,2.920150756835937,1.000927448272705,0.0641124248504638
4203805000.0,-0.452389508485794,0.1485829502344131,10.068244934082031,2.6413400173187256,0.8309770226478577,0.1675170958042144
4203813333.0,-0.3864809274673462,-0.1140768676996231,9.966507911682127,2.51150131225586,0.1519948840141296,0.0989990159869194
4203821666.0,-0.3696122467517853,-0.1212448626756668,9.630963325500488,2.6981778144836426,0.2729965150356293,-0.0084655042737722
4203829999.0,-0.4097005128860473,0.1358740031719207,9.678162574768066,2.9299099445343018,1.1117347478866575,0.1569640338420868
4203838332.0,-0.5131781697273254,0.1968474984169006,10.087516784667969,2.779170274734497,1.0964685678482056,0.0904950946569442
4203846665.0,-0.5188291072845459,0.0035813460126519,10.152552604675291,2.6561195850372314,0.4985299110412597,0.0839122384786605
4203854998.0,-0.4078443646430969,-0.0304508227854967,9.81619358062744,2.568160057067871,0.0878568366169929,0.0607057400047779
4203863331.0,-0.4486591219902038,0.1543915271759033,9.757645606994627,2.7992517948150635,0.6466057896614075,0.1248437836766243
4203871664.0,-0.4843443632125854,0.2019985914230346,9.970179557800291,2.7310667037963867,1.1268726587295532,-0.0204529669135808
4203879997.0,-0.4254002869129181,-0.0103901969268918,10.094865798950195,2.627995014190674,0.5340824127197266,0.1006127148866653
4203888330.0,-0.2869755625724792,-0.0590220764279365,9.872644424438477,2.464832305908203,-0.0485773980617523,0.0224380698055028
4203896663.0,-0.3480115830898285,0.1192901507019996,9.66990852355957,2.8171560764312744,0.5944295525550842,0.0965400636196136
4203904996.0,-0.4651577472686767,0.2011223286390304,9.832619667053224,2.784523725509644,1.295209288597107,0.1271746754646301
4203913329.0,-0.5350322723388672,0.0206951964646577,10.09873104095459,2.5253846645355225,0.9421941041946412,0.0843220576643943
4203921662.0,-0.5281552076339722,-0.1505528837442398,10.021864891052246,2.5548408031463623,0.2338323593139648,0.0921600237488746
4203929995.0,-0.4379216134548187,0.0125396745279431,9.74309539794922,2.709345579147339,0.1910821944475174,0.0895985960960388
4203938328.0,-0.4227281808853149,0.2694453001022339,9.829651832580566,2.852170705795288,0.91883385181427,-0.0178915448486804
4203946661.0,-0.4309504330158233,0.1724486947059631,10.04904842376709,2.728376865386963,1.0354299545288086,0.0553779751062393
4203954994.0,-0.348429799079895,-0.0876757130026817,9.913609504699709,2.4696478843688965,0.4206113815307617,0.0081453276798129
4203963327.0,-0.351004034280777,-0.0836246982216835,9.715322494506836,2.6517651081085205,0.1898527145385742,0.0180836506187915
4203971660.0,-0.4417988955974579,0.1434388756752014,9.725346565246582,2.8629796504974365,0.9261082410812378,0.1395463496446609
4203979993.0,-0.5071945786476135,0.2046433836221695,10.001423835754396,2.835777521133423,1.2443652153015137,0.1337063163518905
4203988326.0,-0.4985473453998565,0.0049561038613319,10.134628295898438,2.623230695724488,0.4938168227672577,0.0982818230986595
4203996659.0,-0.4749233722686767,-0.055663738399744,9.85585117340088,2.610295295715332,0.1261244863271713,0.0599629171192646
4204004992.0,-0.4486428201198578,0.0946346148848533,9.673256874084473,2.855141878128052,0.6987563371658325,0.1309911906719207
4204013325.0,-0.465442955493927,0.1307142525911331,9.934303283691406,2.8003532886505127,1.1970813274383545,0.1918762475252151
4204021658.0,-0.4219758510589599,-0.0316472500562667,10.058255195617676,2.6405203342437744,0.5598503351211548,0.1742792576551437
4204029991.0,-0.3063723146915436,-0.0906361266970634,9.828311920166016,2.489934206008911,0.1237679943442344,0.0394203104078769
4204038324.0,-0.3175815045833587,0.0784700587391853,9.635366439819336,2.755220651626587,0.5950955152511597,0.0164699517190456
4204046657.0,-0.4704132974147796,0.1343644112348556,9.782027244567873,2.7802717685699463,1.3851410150527954,0.2033258080482483
4204054990.0,-0.5478343963623047,-0.0386463887989521,10.045191764831545,2.595541715621948,1.0823808908462524,0.075613223016262
4204063323.0,-0.4977563023567199,-0.2059306204319,9.987031936645508,2.626713991165161,0.2357277870178222,0.1602682620286941
4204071656.0,-0.4466729760169983,-0.0576835796236991,9.730408668518066,2.9227893352508545,0.3011977970600128,0.0171871501952409
4204079989.0,-0.4554852545261383,0.2457487732172012,9.802529335021973,3.131647825241089,0.9609180688858032,0.1647763699293136
4204088322.0,-0.4357095658779144,0.1916594058275222,10.04612159729004,2.8240463733673096,1.031305909156799,0.0534056834876537
4204096655.0,-0.3588142991065979,-0.0867876410484314,10.014860153198242,2.560552835464477,0.2876991033554077,0.1897246539592743
4204104988.0,-0.3183758556842804,-0.0787839516997337,9.688468933105469,2.686856508255005,0.2539907693862915,0.1249206289649009
4204113321.0,-0.4008727669715881,0.1856740415096283,9.72451400756836,3.024528741836548,0.984175741672516,0.1546587496995926
4204121654.0,-0.5136592984199524,0.2458989322185516,10.106486320495604,2.818385601043701,1.3027911186218262,0.1229739412665367
4204129987.0,-0.4994087219238281,0.0718498453497886,10.211621284484863,2.542212963104248,0.5509878396987915,0.0374992415308952
4204138320.0,-0.4545854032039642,-0.0160475447773933,9.93331241607666,2.465959310531616,0.2497131824493408,0.1076310202479362
4204146653.0,-0.4748660326004028,0.1382991969585418,9.799964904785156,2.7343194484710693,0.8374061584472656,0.0524579510092735
4204154986.0,-0.5303713083267212,0.1636755764484405,9.954204559326172,2.638983726501465,1.0916531085968018,0.0135243171826004
4204163319.0,-0.4213351607322693,-0.0137291168794035,10.11598300933838,2.431021213531494,0.5063421726226807,0.0613717101514339
4204171652.0,-0.3289086520671844,-0.098356232047081,9.881357192993164,2.5686466693878174,0.1749196052551269,-0.0131529094651341
4204179985.0,-0.3231773972511291,0.0713987126946449,9.668828010559082,2.689110517501831,0.5383599996566772,-0.0532648079097271
4204188318.0,-0.4528009295463562,0.1838701069355011,9.844698905944824,2.6428256034851074,1.3001528978347778,0.1022264063358306
4204196651.0,-0.5325472950935364,-0.0157065223902463,10.13012981414795,2.5651888847351074,1.0411931276321411,0.180068090558052
4204204984.0,-0.4847210347652435,-0.2122272998094558,9.931053161621094,2.533273696899414,0.2981497049331665,0.0861662924289703
4204213317.0,-0.4370008111000061,-0.0162402167916297,9.716826438903809,2.910827159881592,0.3369552493095398,0.0147537989541888
4204221650.0,-0.4768981635570526,0.2399987429380417,9.819684982299805,3.0206100940704346,0.9221892952919006,0.1248437762260437
4204229983.0,-0.4695556759834289,0.1915515065193176,10.02989101409912,2.7472035884857178,0.9272608160972596,0.1494334489107132
4204238316.0,-0.3595022559165954,-0.0955831110477447,9.946523666381836,2.610321283340454,0.2657989263534546,0.1064271554350853
4204246649.0,-0.3354402780532837,-0.0882144421339035,9.678400039672852,2.750046491622925,0.233986034989357,0.0840915292501449
4204254982.0,-0.3938753008842468,0.1428345590829849,9.651199340820312,2.946917772293091,0.9650932550430298,0.1366007179021835
4204263315.0,-0.4733932614326477,0.2460769116878509,10.02627944946289,2.943254470825196,1.189320087432861,0.0216184128075838
4204271648.0,-0.4840581119060516,0.04738250374794,10.113862037658691,2.658552646636963,0.54209965467453,0.1262269467115402
4204279981.0,-0.4465247094631195,-0.0357324741780757,9.821661949157717,2.514575242996216,0.194283977150917,0.1211041137576103
4204288314.0,-0.445326566696167,0.1504085958003997,9.758971214294434,2.8004813194274902,0.8275960087776184,0.1927215307950973
4204296647.0,-0.5192639231681824,0.1592722535133361,9.941165924072266,2.6662368774414062,1.1666516065597534,0.2295547872781753
4204304980.0,-0.4362179040908813,-0.009689712896943,10.070178985595703,2.4690332412719727,0.6236554384231567,0.1718459278345108
4204313313.0,-0.2998500466346741,-0.0655520483851432,9.83792209625244,2.5652401447296143,0.0861406773328781,0.0580674745142459
4204321646.0,-0.3154208958148956,0.1025494411587715,9.684587478637695,2.717414379119873,0.6860260367393494,0.122103065252304
4204329979.0,-0.4576886296272278,0.1424549520015716,9.82167911529541,2.70839786529541,1.4231268167495728,0.0569404326379299
4204338312.0,-0.5195814967155457,-0.0138815902173519,10.08125114440918,2.65714430809021,0.9357905983924866,0.1779933273792266
4204346645.0,-0.5027692317962646,-0.224080204963684,9.988612174987791,2.575434446334839,0.1441825181245803,0.0116288634017109
4204354978.0,-0.4404909908771515,-0.0841852501034736,9.70711898803711,2.74103045463562,0.4092898368835449,0.0125253610312938
4204363311.0,-0.4524477422237396,0.2288699299097061,9.860635757446287,3.002859354019165,1.0981334447860718,0.0412645302712917
4204371644.0,-0.4453068673610687,0.1513396948575973,10.0279541015625,2.7547085285186768,0.9742373824119568,0.0668531507253646
4204379977.0,-0.3802190124988556,-0.142112985253334,10.009196281433104,2.555532455444336,0.3164638876914978,-0.0159192476421594
4204388310.0,-0.3351339697837829,-0.1166864782571792,9.683039665222168,2.758038282394409,0.2248417437076568,-0.036846075206995
4204396643.0,-0.4205935001373291,0.12406986951828,9.782023429870604,2.877580404281616,1.0626578330993652,0.1805291473865509
4204404976.0,-0.5125332474708557,0.1343114376068115,10.036910057067873,2.8251988887786865,1.286731243133545,0.0389592535793781
4204413309.0,-0.4770492017269134,-0.0083944182842969,10.172652244567873,2.680222511291504,0.5620018839836121,0.0740251392126083
4204421642.0,-0.4375111758708954,-0.0481463856995105,9.881463050842283,2.6753809452056885,0.1654423326253891,0.0678008720278739
4204429975.0,-0.4660839140415191,0.0611905083060264,9.763586044311523,2.86477279663086,0.7967819571495056,0.0913659706711769
4204438308.0,-0.4728551506996155,0.1145393550395965,9.957229614257812,2.9452273845672607,1.1392443180084229,0.0294819846749305
4204446641.0,-0.4406293034553528,-0.032845415174961,10.125471115112305,2.681246757507324,0.5006045699119568,0.1270722150802612
4204454974.0,-0.3285439908504486,-0.1076991260051727,9.861746788024902,2.647538661956787,0.0852953940629959,0.0974365472793579
4204463307.0,-0.3188377618789673,0.0932599604129791,9.698883056640623,2.7838833332061768,0.6165859699249268,0.1331940293312072
4204471640.0,-0.478942722082138,0.1826889365911483,9.905329704284668,2.918844699859619,1.2766646146774292,0.2526588141918182
4204479973.0,-0.5734922885894775,-0.0486730635166168,10.058636665344238,2.6001009941101074,1.1920608282089231,0.1368056237697601
4204488306.0,-0.5013172626495361,-0.16436468064785,9.960442543029783,2.696846008300781,0.3008904159069061,0.1213602423667907
4204496639.0,-0.4454614222049713,0.0284198764711618,9.785284996032717,2.800225257873535,0.3491732180118561,0.0986404120922088
4204504972.0,-0.4650724530220032,0.2508735954761505,9.85646152496338,2.976169347763061,0.925186276435852,0.086243137717247
4204513305.0,-0.4562192857265472,0.1891616284847259,10.061620712280272,2.753735303878784,0.9141720533370972,0.0434417463839054
4204521638.0,-0.3751000165939331,-0.0735274329781532,9.982667922973633,2.6656477451324463,0.0578369498252868,0.071643017232418
4204529971.0,-0.3661229908466339,-0.0669522061944007,9.679779052734377,2.6944894790649414,0.1924909800291061,0.1048902943730354
4204538304.0,-0.4193566143512726,0.1601115465164184,9.732319831848145,2.94625186920166,0.9894523620605468,0.093850553035736
4204546637.0,-0.506872832775116,0.2381156384944915,9.988215446472168,2.8650035858154297,1.1690850257873535,0.1321438252925872
4204554970.0,-0.5419188141822815,0.0706319436430931,10.13449764251709,2.634398460388184,0.6293674111366272,0.0887789502739906
4204563303.0,-0.4652376770973205,0.0474297925829887,9.871644973754885,2.479329824447632,0.301761269569397,0.0328886769711971
4204571636.0,-0.5041409730911255,0.1337862312793731,9.810073852539062,2.727762222290039,0.7134076952934265,0.1326561272144317
4204579969.0,-0.5292595624923706,0.1322760432958603,9.915461540222168,2.6597816944122314,1.1355046033859253,0.1201819851994514
4204588302.0,-0.4184922873973846,0.011778182350099,10.077066421508787,2.5922632217407227,0.5635900497436523,0.1217188537120819
4204596635.0,-0.295041024684906,-0.0048757269978523,9.90684413909912,2.535271406173706,0.125817134976387,0.0708489790558815
4204604968.0,-0.3650246262550354,0.1690343767404556,9.680496215820312,2.575434446334839,0.2819615304470062,0.1091934964060783
4204613301.0,-0.3813258707523346,0.2314020842313766,9.812310218811035,2.679018497467041,1.1546385288238523,0.0956179425120353
4204621634.0,-0.4678608179092407,0.0207705982029438,10.05967140197754,2.4942116737365723,1.0065370798110962,0.0971291735768318
4204629967.0,-0.5378426313400269,-0.145025223493576,9.99968433380127,2.4929308891296387,0.410391241312027,0.0121923759579658
4204638300.0,-0.4686251580715179,0.0660784542560577,9.801887512207031,2.712803602218628,0.3324215412139892,0.0834767892956733
4204646633.0,-0.4621998965740204,0.3039356470108032,9.87863826751709,2.8670525550842285,0.6283171772956848,-0.0215799920260906
4204654966.0,-0.4744514524936676,0.168196901679039,10.041367530822754,2.648639917373657,0.857871949672699,0.1000492051243782
4204663299.0,-0.366413950920105,-0.0803926587104797,10.023462295532228,2.3752591609954834,0.3129547238349914,0.0464898347854614
4204671632.0,-0.3485425412654876,-0.0406891033053398,9.711896896362305,2.436246871948242,0.1587314307689666,0.0738202333450317
4204679965.0,-0.4170998334884643,0.1060307323932647,9.69550323486328,2.695719003677368,0.8232927918434143,0.079993262887001
4204688298.0,-0.4467233121395111,0.1866411119699478,9.98436164855957,2.6748690605163574,1.2400877475738523,0.0709770545363426
4204696631.0,-0.4565334916114807,0.0199202876538038,10.150067329406738,2.4661130905151367,0.5187138915061951,0.0639331340789794
4204704964.0,-0.4642958045005798,-0.0497152805328369,9.91912841796875,2.2611989974975586,0.2242526113986969,0.1500225663185119
4204713297.0,-0.489343911409378,0.1236204877495765,9.777094841003418,2.6118323802948,0.502781867980957,0.1588594913482666
4204721630.0,-0.513394832611084,0.1367579847574234,10.061593055725098,2.551715850830078,0.7111536264419556,0.1859593540430069
4204729963.0,-0.43569415807724,-0.0593274198472499,9.990915298461914,2.3472628593444824,0.1843712478876114,0.181912288069725
4204738296.0,-0.3139785826206207,-0.1057683601975441,9.72480297088623,2.3599419593811035,-0.0342846512794494,0.0554548241198062
4204746629.0,-0.2828299403190613,0.1265024095773697,9.66171932220459,2.7550926208496094,0.5598247051239014,0.1686185002326965
4204754962.0,-0.4806070029735565,0.1341221779584884,9.768560409545898,2.7007648944854736,1.3371142148971558,0.1631626635789871
4204763295.0,-0.4950671195983886,-0.0622217394411563,10.171481132507324,2.5152924060821533,1.0557676553726196,0.0911610648036003
4204771628.0,-0.4470321834087372,-0.2173270881175995,9.981208801269531,2.527740955352783,0.1342185884714126,0.0876519083976745
4204779961.0,-0.4661042094230652,-0.041582316160202,9.684819221496582,2.6994075775146484,0.2717158198356628,0.0906487703323364
4204788294.0,-0.4471418857574463,0.1867936700582504,9.818878173828123,2.8607771396636963,0.9271841049194336,0.1865228712558746
4204796627.0,-0.4333309531211853,0.086673229932785,10.022729873657228,2.7678744792938232,0.9263132810592652,0.094183549284935
4204804960.0,-0.3929395377635956,-0.1729686409235,9.97379207611084,2.4041264057159424,0.1185682937502861,0.0269205626100301
4204813293.0,-0.322293221950531,-0.1232219859957695,9.646575927734377,2.6606016159057617,0.2453331351280212,0.0808129012584686
4204821626.0,-0.4309569299221039,0.0923616886138916,9.729758262634276,2.899454355239868,1.0027716159820557,0.0313262082636356
4204829959.0,-0.4925154149532318,0.1160691827535629,10.021041870117188,2.864900827407837,1.1672149896621704,0.0668531507253646
4204838292.0,-0.4347477257251739,-0.0105760414153337,10.082755088806152,2.5675196647644043,0.5721707940101624,0.094388447701931
4204846625.0,-0.4187244772911072,-0.0746447443962097,9.880149841308594,2.596386909484864,0.2225620746612548,0.1372410804033279
4204854958.0,-0.4446882009506225,0.0497776605188846,9.705885887145996,2.871227979660034,0.6772403717041016,0.0832718834280967
4204863291.0,-0.4733128547668457,0.1011849716305732,9.897123336791992,2.9145925045013428,0.9896315336227416,0.0793785154819488
4204871624.0,-0.3851797580718994,-0.0627171024680137,10.012600898742676,2.6483070850372314,0.4380546510219574,0.1004078015685081
4204879957.0,-0.3002941012382507,-0.1321533024311065,9.830036163330078,2.63857364654541,0.0673398375511169,0.0396764539182186
4204888290.0,-0.3282077610492706,0.098949946463108,9.677929878234863,2.8791425228118896,0.5923804044723511,0.0564025416970253
4204896623.0,-0.4589702188968658,0.1584377735853195,9.834355354309082,2.971712589263916,1.2181105613708496,0.2138020396232605
4204904956.0,-0.5181326270103455,-0.0695186629891395,10.002466201782228,2.765005350112915,0.8548238277435303,0.2031721174716949
4204913289.0,-0.4901869595050812,-0.1398310363292694,9.978755950927734,2.827914237976074,0.3011977970600128,0.1145724728703498
4204921622.0,-0.4545647501945495,0.0434931404888629,9.802498817443848,2.9524505138397217,0.431190013885498,0.1351919174194336
4204929955.0,-0.4681894183158874,0.2459230273962021,9.9199857711792,2.944894313812256,0.9453702569007874,0.0840146988630294
4204938288.0,-0.404253602027893,0.2391215562820434,10.140588760375977,2.8376219272613525,0.9487512707710266,0.1349870264530182
4204946621.0,-0.3324705064296722,-0.042569201439619,10.023058891296388,2.5331711769104004,0.2467931509017944,0.0514333844184875
4204954954.0,-0.3469709157943725,-0.0368185490369796,9.686344146728516,2.7030959129333496,0.3083953857421875,0.1214883252978324
4204963287.0,-0.3975715339183807,0.2000226825475692,9.741480827331545,2.9704573154449463,1.0795631408691406,0.0969498753547668
4204971620.0,-0.4895626306533813,0.1930335313081741,10.111007690429688,2.7896721363067627,1.315675139427185,0.0495379269123077
4204979953.0,-0.5122015476226807,0.0266267172992229,10.113950729370115,2.5278689861297607,0.5060860514640808,0.0435698144137859
4204988286.0,-0.4531608819961548,0.0487615913152694,9.880708694458008,2.5864999294281006,0.2993791997432709,0.0744605809450149
4204996619.0,-0.50322425365448,0.1553487926721573,9.78636074066162,2.8219974040985107,0.8374062180519104,0.1034558936953544
4205004952.0,-0.4891164600849151,0.1147900521755218,9.97886848449707,2.802530288696289,1.0600450038909912,0.1038657277822494
4205013285.0,-0.3877969682216644,0.0153338015079498,10.106571197509766,2.5308401584625244,0.5423814058303833,0.1074517220258712
4205021618.0,-0.3145275712013244,0.0246598068624734,9.86444854736328,2.523514747619629,0.2556813359260559,0.1164935454726219
4205029951.0,-0.3605915904045105,0.204233631491661,9.684198379516602,2.7807838916778564,0.8432719111442566,0.0414438359439373
4205038284.0,-0.4576694369316101,0.2649870216846466,9.96445655822754,2.70125150680542,1.3204394578933716,0.0995113104581832
4205046617.0,-0.5372220277786255,0.0598895400762558,10.105316162109377,2.52756142616272,0.8512634634971619,0.1227690204977989
4205054950.0,-0.5358161926269531,-0.1101794764399528,10.022635459899902,2.5140628814697266,0.3417963981628418,0.0952337384223938
4205063283.0,-0.4763663709163666,0.1821313202381134,9.833505630493164,2.728120803833008,0.4233520627021789,0.0663664788007736
4205071616.0,-0.4584024548530578,0.3411213457584381,9.939056396484377,2.8044002056121826,1.1094294786453247,0.0366795882582664
4205079949.0,-0.444333016872406,0.1661278009414672,10.154138565063477,2.441267251968384,0.7540063261985779,0.1459755450487136
4205088282.0,-0.3296788334846496,-0.0516362562775611,9.899652481079102,2.242013931274414,0.2296828627586364,-0.0541612952947616
4205096615.0,-0.4077727794647217,-0.0002077828394249,9.634479522705078,2.475180625915528,0.2411836385726928,0.0975646302103996
4205104948.0,-0.4388264119625091,0.1832484900951385,9.805001258850098,2.7103705406188965,1.1437782049179075,0.1245108023285865
4205113281.0,-0.4549209177494049,0.1742819547653198,10.091575622558594,2.355510711669922,1.116396427154541,-0.0078251482918858
4205121614.0,-0.441203236579895,0.0528623647987842,10.213565826416016,2.271188497543335,0.3843671977519989,0.1166728362441062
4205129947.0,-0.5118474960327148,0.0599565729498863,9.845892906188965,2.331740617752075,0.141877219080925,0.0681850835680961
4205138280.0,-0.5058119893074036,0.1637293249368667,9.806598663330078,2.4742326736450195,0.8532869815826416,0.0770732313394546
4205146613.0,-0.4508682489395141,0.1184290871024131,9.986865997314451,2.4489002227783203,0.8823592066764832,0.0516382940113544
4205154946.0,-0.3623773753643036,-0.061765294522047,9.989850997924805,2.296674966812134,0.5020902752876282,0.0515358448028564
4205163279.0,-0.2694036066532135,-0.0295351650565862,9.786872863769531,2.253053665161133,0.1993555873632431,0.0862687304615974
4205171612.0,-0.3484579026699066,0.1346265524625778,9.688675880432127,2.513960123062134,0.822498619556427,0.1182096824049949
4205179945.0,-0.4664166271686554,0.0748282000422477,9.924378395080566,2.475538969039917,1.2471827268600464,0.08296450227499
4205188278.0,-0.4631971418857574,-0.1538110226392746,10.05926513671875,2.2424240112304688,0.7594620585441589,0.125586599111557
4205196611.0,-0.465311735868454,-0.1347575932741165,9.86913013458252,2.384403705596924,0.2192066460847854,0.0771500840783119
4205204944.0,-0.4986627995967865,0.1198364496231079,9.80942153930664,2.614880323410034,0.7254976034164429,0.036192912608385
4205213277.0,-0.4255416989326477,0.2004825919866562,10.03774070739746,2.542725086212158,1.0485187768936155,0.0259728357195854
4205221610.0,-0.3813255429267883,0.0353758968412876,10.06230926513672,2.2886831760406494,0.3933834135532379,0.0100407805293798
4205229943.0,-0.3517575562000274,-0.1143748238682746,9.810548782348633,2.216963291168213,0.1154177486896514,0.2862647175788879
4205238276.0,-0.3642620742321014,-0.0124806724488735,9.56911849975586,2.5587596893310547,0.5989888906478882,0.1009969264268875
4205246609.0,-0.4529716968536377,0.0766710266470909,9.819408416748049,2.6941819190979004,1.2240017652511597,0.1827319413423538
4205254942.0,-0.4514065682888031,0.0097457785159349,10.069207191467283,2.414013624191284,1.0921398401260376,0.0667763128876686
4205263275.0,-0.4574666917324066,-0.1151536032557487,10.022143363952637,2.351438045501709,0.5363108515739441,0.1359091252088546
4205271608.0,-0.4741708934307098,-0.0257825180888175,9.731786727905272,2.466625452041626,0.3593677282333374,0.0532007701694965
4205279941.0,-0.4925360679626465,0.004094305448234,9.783041954040527,2.745922565460205,0.9259033203125,0.0486414358019828
4205288274.0,-0.4020562171936035,-0.1348831802606582,9.930706977844238,2.5723865032196045,0.7777249813079834,0.019646119326353
4205296607.0,-0.336558848619461,-0.2241349816322326,9.938032150268556,2.5548152923583984,0.2344726920127868,0.1153921261429786
4205304940.0,-0.3287687301635742,-0.0381713956594467,9.696859359741213,2.64041805267334,0.2579353749752044,0.0170078538358211
4205313273.0,-0.3805647492408752,0.0838159918785095,9.710325241088867,2.8121354579925537,0.8170171976089478,0.1248181611299514
4205321606.0,-0.4292902648448944,-0.0736652761697769,9.91073513031006,2.7558352947235107,1.0360701084136963,0.0747423321008682
4205329939.0,-0.4654938280582428,-0.2563299834728241,9.93073558807373,2.571285009384156,0.6281890869140625,0.1027130782604217
4205338272.0,-0.4831372797489166,-0.1408522576093673,9.78647232055664,2.745666742324829,0.4380033910274505,0.0194412041455507
4205346605.0,-0.4642874300479889,0.1139622032642364,9.818818092346191,2.9854156970977783,0.823523223400116,0.0594506338238716
4205354938.0,-0.4472763240337372,0.1417119055986404,9.993684768676758,2.854501485824585,0.9148123860359192,0.1058124005794525
4205363271.0,-0.3699775040149688,-0.0523618906736373,9.939534187316896,2.653839588165283,0.3597006797790527,0.1380863338708877
4205371604.0,-0.308617502450943,-0.1154933124780654,9.691047668457031,2.78301215171814,0.3118276596069336,0.1975881904363632
4205379937.0,-0.351468950510025,0.029446667060256,9.644794464111328,2.930396318435669,0.9133011102676392,0.1135735064744949
4205388270.0,-0.4341427981853485,0.1011563092470169,9.885433197021484,2.8861865997314453,1.1575586795806885,0.1447204351425171
4205396603.0,-0.4753792583942413,-0.0117584764957427,10.095093727111816,2.8163106441497803,0.8295682668685913,0.1139833480119705
4205404936.0,-0.476280003786087,-0.0471075326204299,9.958520889282228,2.7331414222717285,0.4035010933876037,0.1686185151338577
4205413269.0,-0.4624570906162262,0.1094952374696731,9.812841415405272,2.878246068954468,0.6492183804512024,0.1049927547574043
4205421602.0,-0.5204915404319763,0.1736589074134826,9.896254539489746,2.823918104171753,0.9550780653953552,0.1733059138059616
4205429935.0,-0.4601912200450897,0.0372060686349868,10.07065773010254,2.712547540664673,0.7533403038978577,0.0393434688448905
4205438268.0,-0.343997448682785,-0.0240068193525075,9.941356658935549,2.755425453186035,0.2747126817703247,0.0660591125488281
4205446601.0,-0.3079495429992676,0.1230977028608322,9.788469314575195,2.80186414718628,0.4731205403804779,0.0895217582583427
4205454934.0,-0.4154417216777801,0.2177504599094391,9.823211669921877,2.766721725463867,0.9757999777793884,0.1774554103612899
4205463267.0,-0.4999397099018097,0.1537569761276245,10.066783905029297,2.636524438858032,1.27387273311615,0.122103065252304
4205471600.0,-0.5210604071617126,-0.0504397973418235,10.1394681930542,2.65043306350708,0.6067500710487366,0.1401867121458053
4205479933.0,-0.5107406377792358,0.0343581661581993,9.930214881896973,2.678608655929565,0.3180007636547088,-0.0069798794575035
4205488266.0,-0.4903513193130493,0.3142131865024566,9.950215339660645,2.749073505401612,0.8493680953979492,0.0569916740059852
4205496599.0,-0.4719319343566894,0.331196665763855,10.108515739440918,2.6032261848449707,0.9563074111938475,0.1870607733726501
4205504932.0,-0.4554461538791656,0.0718216449022293,10.130764961242676,2.2992873191833496,0.480523020029068,0.0742556601762771
4205513265.0,-0.3800541162490845,0.0224733352661132,9.868255615234377,2.306126594543457,0.3092406392097473,0.0079404134303331
4205521598.0,-0.4314067661762237,0.2155954837799072,9.863225936889648,2.5743587017059326,0.8235232830047607,0.0375760830938816
4205529931.0,-0.5585582256317139,0.2792443633079529,10.081151962280272,2.4659080505371094,1.081151247024536,0.056966058909893
4205538264.0,-0.5090252757072449,0.1469542533159256,10.231974601745604,2.2288482189178467,0.7800302505493164,-0.0588230900466442
4205546597.0,-0.4594124257564544,0.0649294331669807,10.01417350769043,2.17907977104187,0.2344983220100402,0.0574015043675899
4205554930.0,-0.5011110305786133,0.1739590317010879,9.836203575134276,2.332995653152466,0.6906110048294067,0.0602959021925926
4205563263.0,-0.5484881401062012,0.2615459561347961,10.032681465148926,2.3343021869659424,1.1652172803878784,0.0783539488911628
4205571596.0,-0.470705509185791,0.1228885054588317,10.235518455505373,2.1916821002960205,0.5771142840385437,0.0564537681639194
4205579929.0,-0.3448674082756042,0.0477212630212307,10.002195358276367,1.963945746421814,0.0541997179388999,0.0188776906579732
4205588262.0,-0.3021200299263,0.2725050151348114,9.753210067749023,2.1108689308166504,0.5224791765213013,-0.0035731857642531
4205596595.0,-0.4406972825527191,0.336170881986618,9.960118293762209,2.0819249153137207,1.1939306259155271,0.1330403536558151
4205604928.0,-0.5345323085784912,0.1090999692678451,10.18402862548828,1.8570321798324585,1.0011323690414429,0.0608081929385662
4205613261.0,-0.4846847355365753,-0.0009291456080973,10.039411544799805,1.683111548423767,0.2736625075340271,0.020158402621746
4205621594.0,-0.4585687518119812,0.2180958092212677,9.895914077758787,1.9341816902160645,0.2645694017410278,0.0874469950795173
4205629927.0,-0.459820032119751,0.3513750731945038,9.95129680633545,1.967762351036072,1.016859531402588,0.0463617667555809
4205638260.0,-0.4171013832092285,0.2533562481403351,10.155783653259276,1.7332639694213867,0.8768264651298523,0.0815044865012168
4205646593.0,-0.3492375612258911,0.028518384322524,10.071489334106444,1.6257354021072388,0.1587826311588287,0.0298661962151527
4205654926.0,-0.3292239010334015,0.0553272403776645,9.726057052612305,1.5501222610473633,0.1452583074569702,0.0796602666378021
4205663259.0,-0.3520428836345672,0.210581749677658,9.740200996398926,1.8440710306167605,1.0718789100646973,0.0637794435024261
4205671592.0,-0.4261846244335174,0.1452117562294006,10.137407302856444,1.769636154174805,1.0859923362731934,0.1259964257478714
4205679925.0,-0.4815078377723694,0.0254069101065397,10.144331932067873,1.4637253284454346,0.446660965681076,0.1605500131845474
4205688258.0,-0.4308514893054962,0.0688961818814277,9.835302352905272,1.614004135131836,0.2409787029027938,0.0751265436410904
4205696591.0,-0.4781858325004577,0.1092625558376312,9.789102554321287,1.8250653743743896,0.6939151883125305,0.1144700124859809
4205704924.0,-0.4956958293914795,0.0258394014090299,9.972546577453612,1.7415374517440796,0.962249994277954,0.0947982743382453
4205713257.0,-0.3699664771556854,-0.0681379735469818,10.052518844604492,1.4305806159973145,0.3523750007152557,0.0781746432185173
4205721590.0,-0.2981662452220917,-0.0202783104032278,9.84068775177002,1.665360689163208,0.0299174264073371,0.017007851973176
4205729923.0,-0.3504128754138946,0.0913129746913909,9.60334587097168,1.687568426132202,0.6462728381156921,0.1102180629968643
4205738256.0,-0.409225583076477,0.0346339046955108,9.895797729492188,1.6796021461486816,1.2178798913955688,0.1432091742753982
4205746589.0,-0.4814271330833435,-0.1750329881906509,10.077781677246094,1.5773760080337524,0.6095932722091675,0.1433372646570205
4205754922.0,-0.4956203997135162,-0.2360151708126068,9.81487274169922,1.6454071998596191,0.2759933471679687,0.1663900464773178
4205763255.0,-0.4618056118488312,0.0034495703876018,9.660157203674316,1.975805401802063,0.6490134596824646,0.1654167175292968
4205771588.0,-0.485542356967926,0.0453357398509979,9.859365463256836,1.8999614715576167,0.934176743030548,0.1525839865207672
4205779921.0,-0.4194519221782684,-0.1530230939388275,10.006383895874023,1.7592114210128784,0.6716052889823914,0.14902363717556
4205788254.0,-0.3334704339504242,-0.2613198757171631,9.763439178466797,1.7132080793380735,0.2144167572259903,0.230861097574234
4205796587.0,-0.4057134389877319,-0.1808673292398452,9.542049407958984,2.0973191261291504,0.5173819661140442,0.1798119395971298
4205804920.0,-0.4697530567646026,-0.14694145321846,9.666585922241213,2.1307969093322754,0.9497501850128174,0.108220137655735
4205813253.0,-0.425820916891098,-0.1725636422634124,9.965285301208496,1.844199299812317,0.8842290043830872,0.0784563943743705
4205821586.0,-0.4684406518936157,-0.2425784021615982,9.90296459197998,1.997372269630432,0.3704586923122406,0.1914407908916473
4205829919.0,-0.4787797033786773,-0.2256772518157959,9.597841262817385,2.1798739433288574,0.3397472500801086,0.1101412177085876
4205838252.0,-0.4768211543560028,-0.1548180729150772,9.646754264831545,2.2872743606567383,0.9859943985939026,0.1441056877374649
4205846585.0,-0.4655590355396271,-0.2258332222700119,9.922624588012695,2.281613349914551,0.7036741971969604,0.1256634294986724
4205854918.0,-0.3754823505878448,-0.3600993156433105,9.830828666687012,2.201568841934204,0.3411815464496612,0.1400074064731598
4205863251.0,-0.3017233610153198,-0.2386296242475509,9.555541038513184,2.456815004348755,0.4219688773155212,0.0685436949133873
4205871584.0,-0.3893323838710785,-0.0918365567922592,9.609796524047852,2.663368225097656,0.8951407670974731,0.0682107061147689
4205879917.0,-0.4890687763690948,-0.2407300025224685,9.805794715881348,2.524001359939575,1.069496750831604,0.076023057103157
4205888250.0,-0.4693744778633117,-0.4151950180530548,9.847512245178224,2.4780235290527344,0.5109784007072449,-0.0805183574557304
4205896583.0,-0.4700942933559418,-0.3450084924697876,9.695981979370115,2.683372735977173,0.2523514330387115,0.0076074274256825
4205904916.0,-0.4857176840305328,-0.1393207907676696,9.628580093383787,3.031675338745117,0.8381746411323547,0.0639843642711639
4205913249.0,-0.4229012429714203,-0.0555174648761749,9.87270164489746,2.900325298309326,1.057253122329712,0.0203633159399032
4205921582.0,-0.3547241389751434,-0.2064228951930999,9.952012062072754,2.767361879348755,0.2704607248306274,0.0791992172598838
4205929915.0,-0.295291393995285,-0.3116843700408935,9.642827987670898,2.832498788833618,0.3531946539878845,0.0685436874628067
4205938248.0,-0.323653906583786,-0.1615713983774185,9.567094802856444,3.1877684593200684,0.8568729758262634,0.150278702378273
4205946581.0,-0.4111525118350982,-0.0261560305953025,9.837356567382812,3.115587949752808,1.0935486555099487,0.1013811454176902
4205954914.0,-0.4537839293479919,-0.1005712747573852,10.073819160461426,2.978090286254883,0.6970657706260681,0.0571197383105754
4205963247.0,-0.3969520628452301,-0.1507059335708618,9.93673324584961,2.9301917552948,0.4282956123352051,0.0567611455917358
4205971580.0,-0.4277434647083282,0.0177452992647886,9.743399620056152,3.087488412857056,0.5698911547660828,0.0876006856560707
4205979913.0,-0.4759111106395721,0.0537068843841552,9.913177490234377,3.030343532562256,0.9028505682945251,0.0401631221175193
4205988246.0,-0.3923279345035553,-0.0291150975972414,10.079615592956545,2.823482751846313,0.7573873400688171,0.1259964406490326
4205996579.0,-0.3056672513484955,-0.1074876636266708,9.92327117919922,2.76792573928833,0.2531711161136627,0.0710282772779464
4206004912.0,-0.2682307064533233,0.0371970683336257,9.77005100250244,2.97739839553833,0.5674833655357361,0.164955660700798
4206013245.0,-0.3606844544410705,0.1786398738622665,9.820688247680664,3.0430731773376465,1.1122725009918213,0.2120602428913116
4206021578.0,-0.4775552451610565,0.0651426911354065,10.062612533569336,2.959852933883667,1.0613259077072144,0.1487162411212921
4206029911.0,-0.4946185946464538,-0.1612811088562011,10.063405990600586,2.7559635639190674,0.6521128416061401,0.1289676874876022
4206038244.0,-0.4578565061092376,-0.0303327981382608,9.847707748413086,3.0422284603118896,0.5005021691322327,0.0487695075571537
4206046577.0,-0.4747765064239502,0.161747932434082,9.882795333862305,3.289482831954956,0.8453722596168518,0.0429038442671299
4206054910.0,-0.4585994184017181,0.2111277431249618,10.056995391845703,3.015410184860229,0.9651187658309937,0.161446526646614
4206063243.0,-0.3778998851776123,0.0529824048280715,10.112812042236328,2.8041694164276123,0.304937481880188,0.1168265342712402
4206071576.0,-0.3176592886447906,-0.0258625596761703,9.76709270477295,2.8318841457366943,0.2195395976305008,-0.0412773378193378
4206079909.0,-0.3924422562122345,0.1515281945466995,9.674490928649902,3.0607476234436035,0.9354830980300904,0.0178531222045421
4206088242.0,-0.539923369884491,0.1737516373395919,9.997570991516112,2.944509983062744,1.2310712337493896,0.1713079959154129
4206096575.0,-0.5172595977783203,0.059814516454935,10.166659355163574,2.792182207107544,0.721860408782959,0.1968710273504257
4206104908.0,-0.4801269769668579,0.0418737903237342,9.970736503601074,2.7094998359680176,0.1670816838741302,0.0391897857189178
4206113241.0,-0.4891194701194763,0.1949226707220077,9.74233055114746,2.906088590621948,0.7516239881515503,0.0012294834014028
4206121574.0,-0.5376991629600525,0.2031716704368591,9.951642990112305,2.7683613300323486,1.1307917833328247,0.0989221855998039
4206129907.0,-0.4525282084941864,0.0714213252067565,10.124903678894045,2.6061973571777344,0.5845425128936768,0.0377041548490524
4206138240.0,-0.3250874280929565,0.014204810373485,9.918758392333984,2.619286298751831,0.0447480678558349,-0.0029072158504277
4206146573.0,-0.3337986767292022,0.1684075444936752,9.682533264160156,2.7547340393066406,0.5336213707923889,0.0210549011826515
4206154906.0,-0.4260830283164978,0.2173248678445816,9.836609840393066,2.73647141456604,1.2578893899917605,-0.0092851594090461
4206163239.0,-0.5423648953437805,0.054416500031948,10.084104537963867,2.5568385124206543,1.0469049215316772,0.106171004474163
4206171572.0,-0.5570290684700012,-0.1125210598111152,9.972758293151855,2.3997461795806885,0.3194351196289062,0.1188500449061393
4206179905.0,-0.4975102841854095,-0.0284365024417638,9.770574569702148,2.6925172805786133,0.4839041829109192,0.0110397357493639
4206188238.0,-0.4607089757919311,0.199290320277214,9.830626487731934,2.723228454589844,0.966834843158722,0.00320177921094
4206196571.0,-0.4639656245708465,0.085554301738739,10.055927276611328,2.5544049739837646,0.870858371257782,0.1717690378427505
4206204904.0,-0.3464663028717041,-0.0907790660858154,9.972217559814451,2.3946495056152344,0.4979407489299774,0.0975646302103996
4206213237.0,-0.2888067066669464,-0.0820424556732177,9.688440322875977,2.583759307861328,0.3359307050704956,0.1250743120908737
4206221570.0,-0.3887883722782135,0.02592533826828,9.639521598815918,2.68357801437378,0.9301297068595886,0.1829624772071838
4206229903.0,-0.4689396917819977,0.0231320988386869,9.931364059448242,2.622206211090088,1.1329944133758545,0.0965144485235214
4206238236.0,-0.4925905466079712,-0.0467463098466396,10.089098930358888,2.593313455581665,0.5667406320571899,0.1523278653621673
4206246569.0,-0.4764433205127716,-0.137703001499176,9.853638648986816,2.5611932277679443,0.1731778532266616,0.106119766831398
4206254902.0,-0.4648674428462982,-0.041601974517107,9.723313331604004,2.703966856002808,0.7605635523796082,0.1581166833639145
4206263235.0,-0.4558410346508026,0.0648080110549926,9.94945240020752,2.7681562900543213,0.9527471661567688,0.056633073836565
4206271568.0,-0.3941141963005066,-0.0869256779551506,10.04605197906494,2.674075126647949,0.3531691133975982,0.145924299955368
4206279901.0,-0.2535770833492279,-0.154898315668106,9.784139633178713,2.560373306274414,0.1193623319268226,0.0350402705371379
4206288234.0,-0.2760636806488037,0.0402662903070449,9.700565338134766,2.7305288314819336,0.5586977601051331,0.0304297134280204
4206296567.0,-0.4173651337623596,0.0662005171179771,9.897011756896973,2.738878965377808,1.194033145904541,0.0720784589648246
4206304900.0,-0.4984152317047119,-0.1264017820358276,10.024145126342772,2.5645484924316406,0.8972154855728149,0.161190390586853
4206313233.0,-0.4560017883777618,-0.2165988534688949,9.941455841064451,2.567955255508423,0.2690519094467163,0.0872420892119407
4206321566.0,-0.4347503781318664,-0.0554184243083,9.82595157623291,2.76792573928833,0.4923568665981293,0.0493842475116252
4206329899.0,-0.4520941078662872,0.1160042732954025,9.832833290100098,2.813672542572021,1.0711617469787598,0.1112938597798347
4206338232.0,-0.3929064273834228,0.0544559732079505,10.048694610595703,2.640110731124878,0.9259289503097534,0.0004354419652372
4206346565.0,-0.3533898591995239,-0.1585542112588882,9.955917358398438,2.535271167755127,0.3256849944591522,0.0673910528421402
4206354898.0,-0.3005543351173401,-0.1679296940565109,9.706546783447266,2.6863698959350586,0.4798314571380615,0.0250763352960348
4206363231.0,-0.3900287449359894,0.0792122259736061,9.7498779296875,2.8973031044006348,1.0995168685913086,0.0684668570756912
4206371564.0,-0.5312672257423401,0.0857468023896217,10.053265571594238,2.750046730041504,1.0600450038909912,0.0119362324476242
4206379897.0,-0.5288529396057129,-0.1084254682064056,10.068174362182615,2.576356887817383,0.6490903496742249,0.1199514642357826
4206388230.0,-0.4298403561115265,-0.0985441207885742,9.845190048217772,2.690596103668213,0.240517646074295,0.0733335614204406
4206396563.0,-0.4937849044799804,0.0713229402899742,9.780285835266112,2.7825255393981934,0.8685275316238403,0.0873957723379135
4206404896.0,-0.5247124433517456,0.0746577978134155,9.92409610748291,2.7516090869903564,1.1118626594543457,0.1263550370931625
4206413229.0,-0.4338651597499847,-0.0908396616578102,10.078286170959473,2.666929006576538,0.5012706518173218,0.0271767061203718
4206421562.0,-0.3123353123664856,-0.0900286808609962,9.84348964691162,2.695795774459839,0.126918539404869,0.1305813789367675
4206429895.0,-0.3245778977870941,0.0880131796002388,9.62517547607422,2.8175911903381348,0.7346674203872681,0.0585029125213623
4206438228.0,-0.4573295414447784,0.1295348852872848,9.845746040344238,2.8849825859069824,1.308144450187683,0.1098850667476654
4206446561.0,-0.5679981708526611,-0.0881907045841217,10.076194763183594,2.646078824996948,0.9229578375816344,0.1615746021270752
4206454894.0,-0.5248079895973206,-0.1850009560585022,9.932640075683594,2.58701229095459,0.182988092303276,0.0456189550459384
4206463227.0,-0.4484570324420929,0.0352325662970542,9.754806518554688,2.840311050415039,0.2976886034011841,0.1202075853943824
4206471560.0,-0.4906658828258514,0.2107669860124588,9.886526107788086,2.874454975128174,1.0470330715179443,0.1062990799546241
4206479893.0,-0.4279700517654419,0.1017555072903633,10.094651222229004,2.7079625129699707,0.9801287651062012,0.1156738996505737
4206488226.0,-0.3326843976974487,-0.149100586771965,9.921788215637209,2.489165544509888,0.0958740785717964,0.0068902289494872
4206496559.0,-0.323228508234024,-0.0834543257951736,9.653907775878906,2.721205234527588,0.2398260831832885,0.0888557806611061
4206504892.0,-0.4262449145317077,0.1375093609094619,9.755995750427246,2.865464448928833,1.097032070159912,0.0998186692595481
4206513225.0,-0.4790163338184356,0.1285955309867859,10.109864234924316,2.715083360671997,1.2069939374923706,0.1604731678962707
4206521558.0,-0.4797911047935486,-0.0409776829183101,10.099241256713867,2.553431987762451,0.5037807822227478,0.1235374584794044
4206529891.0,-0.4353384673595428,-0.0321302413940429,9.792309761047363,2.636524677276612,0.3571649193763733,0.0896242186427116
4206538224.0,-0.432133138179779,0.1180357709527015,9.789274215698242,2.794743776321411,1.0237241983413696,0.1325536668300628
4206546557.0,-0.4842923879623413,0.0723254904150962,9.977584838867188,2.7059645652771,1.2089662551879885,0.0484108999371528
4206554890.0,-0.396333783864975,-0.0720645412802696,10.056760787963867,2.4713382720947266,0.4992983043193817,0.0113727198913693
4206563223.0,-0.2667047083377838,-0.0595383271574974,9.793745040893556,2.5350918769836426,0.0286111030727624,0.086089439690113
4206571556.0,-0.3274456262588501,0.1185480058193206,9.694467544555664,2.6702585220336914,0.8576415181159973,0.1043267771601677
4206579889.0,-0.4549594223499298,0.1209200918674469,9.898553848266602,2.6471545696258545,1.40844988822937,0.0884203314781189
4206588222.0,-0.5043079853057861,-0.1297246813774109,10.12739372253418,2.554584503173828,0.7529047727584839,0.1572970151901245
4206596555.0,-0.4804387986660003,-0.2371917068958282,9.899311065673828,2.508760690689087,0.1375996768474578,0.0836048573255539
4206604888.0,-0.4122053682804107,0.0324929282069206,9.74109172821045,2.827914237976074,0.4906663298606872,0.0934407338500022
4206613221.0,-0.4184955954551697,0.2174244821071624,9.920369148254396,2.8517353534698486,1.1258738040924072,0.1274564266204834
4206621554.0,-0.4309787154197693,0.0193287152796983,10.121541023254396,2.6107819080352783,0.9446529746055604,0.1659546196460724
4206629887.0,-0.3367993533611297,-0.1791935116052627,9.849654197692873,2.538217067718506,0.2069117724895477,0.0535337477922439
4206638220.0,-0.3678700029850006,-0.0673416927456855,9.673467636108398,2.7163643836975098,0.5382575392723083,-0.0026254595723003
4206646553.0,-0.4709798991680145,0.0904596969485282,9.814852714538574,2.8292973041534424,1.2170604467391968,0.0757412984967231
4206654886.0,-0.5052990317344666,0.0067618871107697,10.098020553588867,2.629173040390014,1.0992860794067385,0.1459499150514602
4206663219.0,-0.443578690290451,-0.0834939926862716,10.076684951782228,2.629019498825073,0.3825486004352569,0.0588871240615844
4206671552.0,-0.4501597583293915,-0.0563628301024436,9.78550910949707,2.567340612411499,0.4020922780036926,0.1011506170034408
4206679885.0,-0.4604682922363281,0.065217912197113,9.777229309082031,2.7516090869903564,1.1054848432540894,0.1113707050681114
4206688218.0,-0.453567236661911,-0.017627652734518,10.04033374786377,2.66677474975586,0.9137621521949768,0.2232536673545837
4206696551.0,-0.3858819007873535,-0.1715335398912429,10.036698341369627,2.593005657196045,0.2223827838897705,0.1620356440544128
4206704884.0,-0.2986032664775848,-0.105895921587944,9.722328186035156,2.5987436771392822,0.2324747741222381,0.1581422984600067
4206713217.0,-0.3767386674880981,0.1243431195616722,9.723580360412598,2.8630053997039795,0.9942935109138488,0.1993043571710586
4206721550.0,-0.5344066023826599,0.0195913352072238,9.94041633605957,2.74825406074524,1.4033783674240112,0.145309567451477
4206729883.0,-0.5262226462364197,-0.203804150223732,10.077279090881348,2.6203360557556152,0.6612570881843567,0.0296100545674562
4206738216.0,-0.4784469604492187,-0.2018883526325225,9.827963829040527,2.7060415744781494,0.0523298867046833,0.0256398525089025
4206746549.0,-0.4744812846183777,0.0582661516964435,9.733391761779783,2.924684524536133,0.7442471981048584,0.191287100315094
4206754882.0,-0.4571533799171448,0.1752240508794784,9.952993392944336,2.854527235031128,1.0736463069915771,0.1323999911546707
4206763215.0,-0.382358968257904,-0.0171172711998224,10.11961555480957,2.680990695953369,0.4668963253498077,0.0945933759212493
4206771548.0,-0.3306440412998199,-0.1637633442878723,9.779052734375,2.6121652126312256,0.2010973542928695,0.1148286089301109
4206779881.0,-0.3139529824256897,-0.0238605737686157,9.605931282043455,2.9542176723480225,0.8120993375778198,0.1483832746744156
4206788214.0,-0.4339394569396972,0.1141162663698196,9.826408386230469,3.034902572631836,1.2550206184387207,0.1199770793318748
4206796547.0,-0.5386959910392761,0.0241943784058094,10.167301177978516,2.6610116958618164,0.9180141687393188,0.1899807602167129
4206804880.0,-0.4705647230148315,-0.0680790394544601,10.00121021270752,2.6346802711486816,0.2080900520086288,0.0334778055548667
4206813213.0,-0.4294275939464569,0.0103523731231689,9.803868293762209,2.829092502593994,0.4682282507419586,0.1069906651973724
4206821546.0,-0.4450052380561828,0.1061538234353065,9.782483100891112,2.9166159629821777,1.1117346286773682,0.0735640823841095
4206829879.0,-0.4697009027004242,0.0389207825064659,10.046513557434082,2.6396491527557373,0.8507255911827087,0.1875986456871032
4206838212.0,-0.3760648369789123,-0.111161895096302,9.939882278442385,2.7036592960357666,0.2399797737598419,0.03083954192698
4206846545.0,-0.2772951126098633,-0.0515802353620529,9.757696151733398,2.6601665019989014,0.282986044883728,0.0553267449140548
4206854878.0,-0.2959268689155578,0.1394647359848022,9.702263832092283,2.932394504547119,1.0130685567855835,0.044722456485033
4206863211.0,-0.5010628700256348,0.1059863194823265,9.997440338134766,2.8001224994659424,1.3029447793960571,0.1610623002052307
4206871544.0,-0.5457763671875,-0.1308686882257461,10.020029067993164,2.677712202072144,0.7235508561134338,0.057478342205286
4206879877.0,-0.4645019769668579,-0.1507404446601867,9.872820854187012,2.6822972297668457,0.2755067348480224,0.0520481280982494
4206888210.0,-0.4131911695003509,0.0947017595171928,9.725345611572266,2.9822914600372314,0.5903056859970093,0.0934919565916061
4206896543.0,-0.460344523191452,0.2244558632373809,9.937776565551758,2.879936695098877,1.0371460914611816,0.1629321426153183
4206904876.0,-0.4299602508544922,0.0486657917499542,10.091617584228516,2.763135433197021,0.7275978922843933,0.1226153448224067
4206913209.0,-0.3497713804244995,-0.11212719976902,9.88735008239746,2.660217523574829,0.3112641870975494,0.0832462608814239
4206921542.0,-0.3512729704380035,-0.0414745807647705,9.643686294555664,2.7561681270599365,0.5520635843276978,0.1292750388383865
4206929875.0,-0.461927592754364,0.1596530675888061,9.82440948486328,2.890617847442627,1.2508457899093628,0.1097570061683654
4206938208.0,-0.5231185555458069,0.1106011644005775,10.149398803710938,2.7929763793945312,1.0333294868469238,0.0675703585147857
4206946541.0,-0.5027030110359192,-0.0541486330330371,10.107914924621582,2.588907718658448,0.4184853732585907,0.1739975064992904
4206954874.0,-0.4135814607143402,0.0182972270995378,9.760302543640137,2.7409536838531494,0.3350085616111755,0.0043800338171422
4206963207.0,-0.4525061547756195,0.146527886390686,9.79738712310791,2.817028284072876,0.9154528379440308,0.1730753928422927
4206971540.0,-0.5024082660675049,0.0599387139081954,10.00634479522705,2.7375471591949463,0.934176743030548,0.0559158772230148
4206979873.0,-0.393017828464508,-0.0775640457868576,10.051676750183104,2.537627696990967,0.4710201621055603,-0.0417383909225463
4206988206.0,-0.2972990870475769,-0.0665203779935836,9.767301559448242,2.604583501815796,0.1551198065280914,0.0315055102109909
