SampleTimeFine,Acc_X,Acc_Y,Acc_Z,Gyr_X,Gyr_Y,Gyr_Z
3993132926.0,0.0,0.0,0.0,0.0,0.0,0.0
3993141259.0,-0.4091211557388305,0.0385967418551445,10.258234977722168,-0.2394674718379974,-0.3562427759170532,1.0873626470565796
3993149592.0,-0.4952843189239502,0.209678441286087,10.319077491760254,-0.2387758940458297,0.0737817957997322,1.3072608709335327
3993157925.0,-0.5351828336715698,0.0634671747684478,10.205669403076172,-0.3415914177894592,0.324058473110199,1.2045221328735352
3993166258.0,-0.5306693911552429,-0.1587215811014175,10.031962394714355,-0.2828067541122436,-0.1489723771810531,1.2018582820892334
3993174591.0,-0.5330656170845032,-0.1111694872379303,10.204167366027832,-0.2774277627468109,-0.5308293700218201,1.1696611642837524
3993182924.0,-0.5232590436935425,0.1714248806238174,10.30347728729248,-0.1017653495073318,-0.1602682620286941,1.1095446348190308
3993191257.0,-0.4803992509841919,0.2266163676977157,10.310651779174805,-0.2687189280986786,0.0438899882137775,1.063848853111267
3993199590.0,-0.4261949956417084,-0.0122885843738913,10.125893592834473,-0.4451241493225097,-0.3099834620952606,1.1528069972991943
3993207923.0,-0.4054588973522186,-0.1304249316453933,10.114627838134766,-0.3577796518802643,-0.5542920827865601,1.1160762310028076
3993216256.0,-0.4524245262145996,0.0610422380268573,10.243114471435549,-0.16582652926445,-0.1531218886375427,1.0664358139038086
3993224589.0,-0.510627269744873,0.1955446153879165,10.266854286193848,-0.2163634449243545,0.2585628926753998,1.1976832151412964
3993232922.0,-0.5184308886528015,0.0847182720899581,10.197150230407717,-0.2904910445213318,0.0266259964555501,1.0983768701553345
3993241255.0,-0.5145898461341858,-0.0722151026129722,10.149089813232422,-0.3598031401634216,-0.406728446483612,1.234772562980652
3993249588.0,-0.5438664555549622,0.0167589522898197,10.222514152526855,-0.3031444549560547,-0.3376212120056152,1.2900992631912231
3993257921.0,-0.5527359247207642,0.1331072598695755,10.258156776428224,-0.268718957901001,0.0298021603375673,1.1735801696777344
3993266254.0,-0.4801417291164398,0.0919068828225135,10.182815551757812,-0.3927687108516693,0.0623322390019893,1.1314703226089478
3993274587.0,-0.4011814892292022,-0.0938596054911613,10.09572982788086,-0.3335997760295868,-0.5260394811630249,1.1801629066467283
3993282920.0,-0.3700094223022461,-0.0302779842168092,10.181013107299805,-0.3156442642211914,-0.4809328913688659,1.0707135200500488
3993291253.0,-0.4403504133224487,0.1570550352334976,10.293291091918944,-0.1517387181520462,-0.0554292052984237,1.1180741786956787
3993299586.0,-0.5161348581314087,0.151296928524971,10.215690612792969,-0.3056546449661255,0.2807448208332062,1.2243989706039429
3993307919.0,-0.53370201587677,-0.1066560745239257,10.055008888244627,-0.334316998720169,0.0262674000114202,1.1664083003997805
3993316252.0,-0.5431939363479614,-0.1660314202308654,10.07706069946289,-0.2017889469861984,-0.5023975968360901,1.0823936462402344
3993324585.0,-0.5418922305107117,0.078981690108776,10.28529453277588,-0.1047878265380859,-0.3701513409614563,1.047122597694397
3993332918.0,-0.5007204413414001,0.2378749400377273,10.31961441040039,-0.1192854940891265,0.2433992624282837,1.0744274854660034
3993341251.0,-0.444920927286148,0.1007192432880401,10.167129516601562,-0.3144147396087646,-0.0590151958167552,1.181033968925476
3993349584.0,-0.4155585169792175,-0.1290655732154846,10.081567764282228,-0.3046556711196899,-0.4128502011299133,1.1733752489089966
3993357917.0,-0.4244139492511749,-0.0397769585251808,10.206934928894045,-0.1977162808179855,-0.2289656549692154,1.223502278327942
3993366250.0,-0.5053841471672058,0.1695939004421234,10.26498031616211,-0.2115735709667205,0.183308258652687,1.2621030807495115
3993374583.0,-0.5295535922050476,0.116298072040081,10.230725288391112,-0.214160606265068,0.2115351557731628,1.164282202720642
3993382916.0,-0.518202006816864,-0.0218590889126062,10.105329513549805,-0.2995713055133819,-0.2256229817867279,1.1056896448135376
3993391249.0,-0.511163592338562,-0.0286472924053668,10.216798782348633,-0.1634444296360016,-0.3525542914867401,1.2608990669250488
3993399582.0,-0.5283375978469849,0.1358539462089538,10.275552749633787,-0.2566290497779846,-0.2676431536674499,1.2739112377166748
3993407915.0,-0.514275074005127,0.139709323644638,10.210461616516112,-0.2904141545295715,0.0601806454360485,1.1542413234710691
3993416248.0,-0.4282547533512115,-0.0398483090102672,10.084915161132812,-0.4316766858100891,-0.2351899147033691,1.0836228132247925
3993424581.0,-0.4115889966487884,-0.0755414217710495,10.128390312194824,-0.272279292345047,-0.5890249013900757,1.1790616512298584
3993432914.0,-0.4326468706130981,0.1076431348919868,10.291796684265137,-0.221486285328865,-0.2546055018901825,1.2108489274978638
3993441247.0,-0.5021510124206543,0.2018889933824539,10.291803359985352,-0.2971507310867309,0.3107390999794006,1.1711468696594238
3993449580.0,-0.5244819521903992,0.0070168194361031,10.098970413208008,-0.3199986219406128,0.1376380920410156,1.2312889099121094
3993457913.0,-0.5391310453414917,-0.1516686379909515,10.045639038085938,-0.3287330865859985,-0.3699975907802582,1.0474300384521484
3993466246.0,-0.5319926738739014,-0.005643593147397,10.217950820922852,-0.1849091500043869,-0.4790629744529724,1.17265784740448
3993474579.0,-0.5015717148780823,0.215057373046875,10.336809158325195,-0.1363957971334457,0.0348737798631191,1.1903061866760254
3993482912.0,-0.4645701050758362,0.1782202571630478,10.239166259765623,-0.2227669954299926,0.0540844574570655,1.1305227279663086
3993491245.0,-0.4188777208328247,-0.0488397777080535,10.118183135986328,-0.3408742547035217,-0.3825486004352569,1.2343628406524658
3993499578.0,-0.3995364308357239,-0.0642971321940422,10.138111114501951,-0.2510194778442383,-0.5142313838005066,1.2280104160308838
3993507911.0,-0.4588763415813446,0.1479350924491882,10.286432266235352,-0.2607273161411285,-0.0879336670041084,1.1617465019226074
3993516244.0,-0.4959208965301513,0.1899079829454422,10.270788192749023,-0.2162609696388244,0.3044379651546478,1.2032415866851809
3993524577.0,-0.5406191945075989,0.0082615613937377,10.12600803375244,-0.3364941477775574,0.0364618562161922,1.1044729948043823
3993532910.0,-0.531019926071167,-0.0588464401662349,10.133182525634766,-0.3140049278736114,-0.4156934022903442,1.2180465459823608
3993541243.0,-0.5303046107292175,0.0743967220187187,10.26995849609375,-0.2414910197257995,-0.1802985966205597,1.1977601051330566
3993549576.0,-0.5212276577949524,0.1808238625526428,10.25798511505127,-0.2664136588573456,0.0722961798310279,1.2341066598892212
3993557909.0,-0.4614728093147278,0.0507136583328247,10.146350860595703,-0.4094691574573517,-0.1017141342163086,1.2431485652923584
3993566242.0,-0.4145000874996185,-0.0863705798983573,10.092533111572266,-0.3972255289554596,-0.4397963881492615,1.1857725381851196
3993574575.0,-0.4146144390106201,0.0424739457666873,10.24269962310791,-0.1824501901865005,-0.4364408850669861,1.1317263841629028
3993582908.0,-0.4891185462474823,0.2130402773618698,10.310837745666504,-0.2727403938770294,0.1261116862297058,1.2032670974731443
3993591241.0,-0.5379867553710938,0.0586390048265457,10.22996711730957,-0.3770927488803863,0.2934751212596893,1.2368217706680298
3993599574.0,-0.52544766664505,-0.1280572861433029,10.022069931030272,-0.3984294533729553,-0.1739206612110138,1.2464784383773804
3993607907.0,-0.5060994029045105,-0.0810059458017349,10.147051811218262,-0.271690160036087,-0.4685355722904205,1.0683825016021729
3993616240.0,-0.5066859126091003,0.1747940182685852,10.31178855895996,-0.1118573695421218,-0.3170786499977112,1.0567537546157837
3993624573.0,-0.4751705229282379,0.2204792350530624,10.306495666503906,-0.233857974410057,0.0306986588984727,1.0645403861999512
3993632906.0,-0.4148362874984741,0.0109438495710492,10.10454273223877,-0.401708036661148,-0.3121863007545471,1.135748028755188
3993641239.0,-0.4176330268383026,-0.1423630267381668,10.081024169921877,-0.339311808347702,-0.5199690461158752,1.2040611505508425
3993649572.0,-0.4653924405574798,0.0345842726528644,10.215890884399414,-0.2054773867130279,-0.3197936713695526,1.1727092266082764
3993657905.0,-0.5318782329559326,0.1901154071092605,10.287425994873049,-0.1778396070003509,0.2619695961475372,1.1318289041519165
3993666238.0,-0.5423714518547058,0.0974574834108352,10.1967134475708,-0.206194594502449,0.1074389070272445,1.1702502965927124
3993674571.0,-0.5375646948814392,-0.0346482060849666,10.11494255065918,-0.3335997462272644,-0.3901048004627228,1.22201669216156
3993682904.0,-0.4947620630264282,0.0003650012658908,10.215003967285156,-0.3532715439796448,-0.4582898914813995,1.246452808380127
3993691237.0,-0.4766939282417297,0.1257970631122589,10.276989936828612,-0.2588574886322021,0.0008836911874823,1.1016043424606323
3993699570.0,-0.4318030476570129,0.0797541216015815,10.170791625976562,-0.327785313129425,-0.0795321986079216,1.1937129497528076
3993707903.0,-0.3808316588401794,-0.0743108838796615,10.09247589111328,-0.2954602539539337,-0.3184362053871155,1.196376919746399
3993716236.0,-0.4164742827415466,-0.0461429916322231,10.166085243225098,-0.2409787029027938,-0.4367995262145996,1.1301127672195437
3993724569.0,-0.5035672783851624,0.19908507168293,10.31746768951416,-0.2591904103755951,0.0588487051427364,1.280237913131714
3993732902.0,-0.5586298704147339,0.1593581885099411,10.265588760375977,-0.2725098133087158,0.3225216269493103,1.2603355646133425
3993741235.0,-0.5623708367347717,-0.072830244898796,10.05594539642334,-0.3851868808269501,-0.0864480510354042,1.2187381982803345
3993749568.0,-0.5221718549728394,-0.178871139883995,10.070802688598633,-0.2843180000782013,-0.5473249554634094,1.1830317974090576
3993757901.0,-0.4949767887592315,0.0425591059029102,10.240110397338867,-0.1334501653909683,-0.3752229213714599,1.139359712600708
3993766234.0,-0.4568806886672973,0.2204434722661972,10.30459976196289,-0.2067837119102478,0.0250635258853435,1.174835205078125
3993774567.0,-0.428255021572113,0.1078791767358779,10.178824424743652,-0.3415401875972748,-0.0502807460725307,1.1306251287460327
3993782900.0,-0.4113099277019501,-0.1058191582560539,10.069550514221191,-0.2811162173748016,-0.3948946893215179,1.1478122472763062
3993791233.0,-0.4393560588359833,-0.035506471991539,10.190433502197266,-0.2566546499729156,-0.3028115034103393,1.124324083328247
3993799566.0,-0.5236238837242126,0.16289883852005,10.303655624389648,-0.1937460899353027,0.0141518656164407,1.2596696615219116
3993807899.0,-0.5497602820396423,0.154358223080635,10.202808380126951,-0.262033611536026,0.3158619105815887,1.2666879892349243
3993816232.0,-0.544760525226593,-0.0349416360259056,10.109642028808594,-0.3590859174728393,-0.2961773574352264,1.139385223388672
3993824565.0,-0.540390133857727,-0.0399200171232223,10.19526195526123,-0.3056290447711944,-0.5497583150863647,1.13185453414917
3993832898.0,-0.5462554693222046,0.1187085807323455,10.272849082946776,-0.2760702073574066,-0.2222290933132171,1.2022937536239624
3993841231.0,-0.5032525658607483,0.1789498180150985,10.250846862792969,-0.1954622268676757,0.0545455105602741,1.1993736028671265
3993849564.0,-0.4434905648231506,-0.0162369534373283,10.091838836669922,-0.3131596446037292,-0.3572417199611664,1.3044177293777466
3993857897.0,-0.3966608941555023,-0.0744897052645683,10.1398344039917,-0.3432819843292236,-0.633542537689209,1.156930923461914
3993866230.0,-0.4120323657989502,0.1137945801019668,10.27956485748291,-0.1509446948766708,-0.1945401132106781,1.2039073705673218
3993874563.0,-0.5229586362838745,0.2163091301918029,10.259337425231934,-0.1959232836961746,0.1858952939510345,1.264561891555786
3993882896.0,-0.5479506850242615,0.0168163329362869,10.135056495666504,-0.4254268705844879,0.301748514175415,1.2079802751541138
3993891229.0,-0.5352258086204529,-0.1805234551429748,10.059966087341309,-0.2603174746036529,-0.2693593502044678,1.1200209856033323
3993899562.0,-0.5328010320663452,-0.0359218828380107,10.248071670532228,-0.145949900150299,-0.4079066514968872,1.0501195192337036
3993907895.0,-0.5081665515899658,0.2434327006340026,10.340142250061035,-0.115571416914463,-0.1844224780797958,1.1629502773284912
3993916228.0,-0.4729318916797638,0.2081621289253235,10.226512908935549,-0.3097529113292694,0.1499329060316085,1.1737850904464722
3993924561.0,-0.4145286977291107,-0.053524725139141,10.109735488891602,-0.3910013437271118,-0.3084722757339477,1.1924067735671997
3993932894.0,-0.4303865730762481,-0.0996033400297164,10.109856605529783,-0.303272545337677,-0.5147692561149597,1.1343647241592407
3993941227.0,-0.4770159423351288,0.1121494248509407,10.30392074584961,-0.2662855982780456,-0.0478473976254463,1.1933799982070925
3993949560.0,-0.515383780002594,0.2168813496828079,10.264751434326172,-0.2876990735530853,0.1653783172369003,1.0942529439926147
3993957893.0,-0.5396750569343567,0.0638605281710624,10.18736457824707,-0.3735067844390869,-0.0592713356018066,1.066948175430298
3993966226.0,-0.518044650554657,-0.0540969520807266,10.157387733459473,-0.3797566294670105,-0.4705078899860382,1.1982978582382202
3993974559.0,-0.4900772273540497,0.0817996859550476,10.234895706176758,-0.3243274688720703,-0.2653378546237945,1.1560343503952026
3993982892.0,-0.5038462281227112,0.1438722759485244,10.262999534606934,-0.2844204604625702,0.0830029398202896,1.2443523406982422
3993991225.0,-0.441144585609436,0.0231894571334123,10.115285873413086,-0.2730221450328827,-0.0765353292226791,1.0471994876861572
3993999558.0,-0.4023188054561615,-0.0766927823424339,10.087275505065918,-0.3186666667461395,-0.5125664472579956,1.090000867843628
3994007891.0,-0.4351074397563934,0.0517508201301097,10.235382080078123,-0.1768150627613067,-0.3365710377693176,1.1682525873184204
3994016224.0,-0.5091179013252258,0.2142562568187713,10.361615180969238,-0.2692824602127075,0.1976522356271743,1.2357715368270874
3994024557.0,-0.555911660194397,0.1169559210538864,10.180340766906738,-0.2913107275962829,0.2768770754337311,1.1892050504684448
3994032890.0,-0.5628214478492737,-0.1695652902126312,10.034623146057127,-0.3724821507930755,-0.1591412425041198,1.1521154642105105
3994041223.0,-0.5166282653808594,-0.1365903466939926,10.116659164428713,-0.2392113506793975,-0.4896673262119293,1.049146294593811
3994049556.0,-0.4754995703697204,0.1392870843410492,10.307382583618164,-0.1191318035125732,-0.2541956305503845,1.1720432043075562
3994057889.0,-0.4286627173423767,0.2513437569141388,10.29261875152588,-0.2755067050457001,0.1203740984201431,1.1430222988128662
3994066222.0,-0.3975764811038971,0.0537679195404052,10.136879920959473,-0.3719955682754516,-0.1095008626580238,1.1154615879058838
3994074555.0,-0.4419529139995575,-0.129287987947464,10.103311538696287,-0.3422317802906036,-0.4438178241252899,1.169533133506775
3994082888.0,-0.4751347601413727,0.0102285649627447,10.21808624267578,-0.2710241973400116,-0.2179771065711975,1.20065438747406
3994091221.0,-0.5568631291389465,0.1607386916875839,10.249201774597168,-0.2113174200057983,0.2353563904762268,1.1980417966842651
3994099554.0,-0.5543238520622253,0.08873101323843,10.170613288879396,-0.3411687910556793,0.1172363460063934,1.1900373697280884
3994107887.0,-0.5215280652046204,-0.0605774261057376,10.126923561096191,-0.3383640050888061,-0.2936415672302246,1.096737504005432
3994116220.0,-0.51900315284729,0.0146061051636934,10.199073791503906,-0.273201435804367,-0.4737353026866913,1.1630527973175049
3994124553.0,-0.5117143988609314,0.1528276354074478,10.260782241821287,-0.2268140465021133,-0.0563257038593292,1.2172268629074097
3994132886.0,-0.4558223485946655,0.1140377968549728,10.17067050933838,-0.3818057775497436,0.0397661030292511,1.2442243099212646
3994141219.0,-0.4263596832752228,-0.0789247080683708,10.092511177062988,-0.3294759094715118,-0.3340096175670624,1.0595967769622805
3994149552.0,-0.4193783402442932,-0.0654127523303031,10.19100570678711,-0.2781705856323242,-0.5038064122200012,1.0345205068588257
3994157885.0,-0.4876950681209564,0.1633851826190948,10.303019523620604,-0.1355505287647247,0.0878696292638778,1.1056256294250488
3994166218.0,-0.5701101422309875,0.1864172965288162,10.24302101135254,-0.256859540939331,0.237098142504692,1.3331313133239746
3994174551.0,-0.5758253335952759,-0.0555990487337112,10.073784828186035,-0.2764800190925598,0.0566971078515052,1.1133098602294922
3994182884.0,-0.5271573662757874,-0.1735780388116836,10.103397369384766,-0.3143122494220733,-0.4831613004207611,1.0869784355163574
3994191217.0,-0.4973872303962707,0.062580220401287,10.226398468017578,-0.2394930869340896,-0.4479161202907562,1.0731723308563232
3994199550.0,-0.4650849997997284,0.2558214366436004,10.328097343444824,-0.0505112707614898,-0.02876478433609,1.0913584232330322
3994207883.0,-0.4095217287540436,0.1202249825000763,10.22134780883789,-0.2829348146915436,0.0058016241528093,1.2422518730163574
3994216216.0,-0.4140423238277435,-0.1108261495828628,10.082246780395508,-0.2954857945442199,-0.3751972913742065,1.185823678970337
3994224549.0,-0.4345137476921081,-0.0514503978192806,10.17924690246582,-0.1779676973819732,-0.332165390253067,1.166587471961975
3994232882.0,-0.5206196904182434,0.1633137166500091,10.288942337036133,-0.109552077949047,0.0808001011610031,1.225500226020813
3994241215.0,-0.5649029016494751,0.1815820783376693,10.248064041137695,-0.2901068329811096,0.2438603341579437,1.2118221521377563
3994249548.0,-0.5570276379585266,0.0185258630663156,10.148374557495115,-0.3307822644710541,-0.1509190797805786,1.1882058382034302
3994257881.0,-0.5129590034484863,-0.0534388907253742,10.163990020751951,-0.2306817919015884,-0.3659761846065521,1.173682689666748
3994266214.0,-0.5174795985221863,0.1230360493063926,10.28471565246582,-0.3043483197689056,-0.2052468508481979,1.168662190437317
3994274547.0,-0.4542270004749298,0.1622264832258224,10.233600616455078,-0.328835517168045,0.1013427227735519,1.2383840084075928
3994282880.0,-0.4232694804668426,-0.0089339008554816,10.146865844726562,-0.2764031589031219,-0.2143399119377136,1.2652534246444702
3994291213.0,-0.4138705134391784,-0.0636670589447021,10.164583206176758,-0.2056823074817657,-0.5033197402954102,1.1381813287734983
3994299546.0,-0.4362231791019439,0.0922933518886566,10.260374069213867,-0.1761747151613235,-0.2515061497688293,1.158877730369568
3994307879.0,-0.5271573662757874,0.2109945565462112,10.300451278686523,-0.2420545220375061,0.2064635157585144,1.2588499784469604
3994316212.0,-0.5583223104476929,0.0376954823732376,10.111687660217283,-0.3187435567378998,0.2270829826593399,1.153934121131897
3994324545.0,-0.5462626218795776,-0.164157748222351,10.04254150390625,-0.3213561773300171,-0.2780937552452087,1.13126540184021
3994332878.0,-0.5006703734397888,-0.0622440390288829,10.17898941040039,-0.1751245260238647,-0.5523198246955872,1.2007571458816528
3994341211.0,-0.4789257645606994,0.2159944027662277,10.34072208404541,-0.1481015086174011,-0.2050419449806213,1.1060866117477417
3994349544.0,-0.4485333263874054,0.2185551226139068,10.272870063781738,-0.2273519486188888,0.1122800037264823,1.201653242111206
3994357877.0,-0.408634752035141,-0.0133686633780598,10.14499855041504,-0.3065511286258697,-0.3323702812194824,1.1714285612106323
3994366210.0,-0.424893170595169,-0.1382143795490265,10.121587753295898,-0.3377492725849151,-0.4584435820579529,1.242687463760376
3994374543.0,-0.4836180210113525,0.0711779370903968,10.264379501342772,-0.1076053977012634,-0.1556833386421203,1.113770842552185
3994382876.0,-0.5423642992973328,0.197962075471878,10.246490478515623,-0.1780701428651809,0.3819978535175323,1.1968634128570557
3994391209.0,-0.5376148223876953,0.0579022653400898,10.15401840209961,-0.3373394608497619,0.0543405972421169,1.1088529825210571
3994399542.0,-0.5347822904586792,-0.0740033164620399,10.140606880187988,-0.4366714358329773,-0.3751972913742065,1.1721969842910769
3994407875.0,-0.530869722366333,0.0432389341294765,10.223672866821287,-0.2971251010894775,-0.3329337835311889,1.1934311389923096
3994416208.0,-0.5062065720558167,0.158828854560852,10.26131820678711,-0.2627508044242859,0.063587337732315,1.095328688621521
3994424541.0,-0.4536903500556946,0.0587392076849937,10.14561367034912,-0.2926554083824157,-0.0625883713364601,1.2122448682785034
3994432874.0,-0.4001085758209228,-0.0943460017442703,10.089106559753418,-0.3310383856296539,-0.5422021150588989,1.2628202438354492
3994441207.0,-0.3967252671718597,-0.0097135603427886,10.231426239013672,-0.2534528374671936,-0.5146156549453735,1.1777809858322144
3994449540.0,-0.4731462597846985,0.1950294226408004,10.338783264160156,-0.3077550232410431,-0.0231552645564079,1.2543162107467651
3994457873.0,-0.5520206689834595,0.131934180855751,10.233951568603516,-0.380294531583786,0.3791547119617462,1.1823915243148804
3994466206.0,-0.5412485003471375,-0.1046747043728828,10.03685474395752,-0.3374291658401489,-0.0898675471544265,1.177640080451965
3994474539.0,-0.5237955451011658,-0.1650876104831695,10.11083698272705,-0.2642108500003814,-0.5804442167282104,1.074965476989746
3994482872.0,-0.5205124020576477,0.1327925324440002,10.294478416442873,-0.1060941591858863,-0.5008606910705566,1.1188424825668335
3994491205.0,-0.4731605648994446,0.2660070657730102,10.324106216430664,-0.1888793855905532,-0.020158402621746,1.1570334434509275
3994499538.0,-0.4293851554393768,0.0880801081657409,10.17278003692627,-0.2953065037727356,0.0046489834785461,1.166049599647522
3994507871.0,-0.4311876893043518,-0.1244451627135276,10.075437545776367,-0.4094947874546051,-0.3988648653030395,1.1351587772369385
3994516204.0,-0.4443202912807464,-0.0319589041173458,10.160863876342772,-0.1336550712585449,-0.3689474165439605,1.0986841917037964
3994524537.0,-0.5236954689025879,0.1978191584348678,10.311631202697754,-0.1722044944763183,0.2002905011177063,1.154958724975586
3994532870.0,-0.5379366874694824,0.1483785808086395,10.25540256500244,-0.2555276155471802,0.2210124433040619,1.198093056678772
3994541203.0,-0.5284091234207153,-0.0155502809211611,10.125750541687012,-0.3972511291503906,-0.2115479558706283,1.110876441001892
3994549536.0,-0.5236238241195679,-0.051700547337532,10.202035903930664,-0.294717401266098,-0.4617734551429748,1.2391782999038696
3994557869.0,-0.5163565874099731,0.124931551516056,10.278263092041016,-0.2516598403453827,-0.168311133980751,1.1756037473678589
3994566202.0,-0.4902631342411041,0.1351387649774551,10.185741424560549,-0.230195090174675,0.1438879519701004,1.1248618364334106
3994574535.0,-0.4345495104789734,-0.0433676876127719,10.114413261413574,-0.3775282502174377,-0.3071402907371521,1.2042404413223269
3994582868.0,-0.3978482782840729,-0.1005904302000999,10.124892234802246,-0.2717542052268982,-0.5161652565002441,1.1926755905151367
3994591201.0,-0.4521168172359466,0.114567331969738,10.280030250549316,-0.1617282927036285,-0.2807832658290863,1.160978078842163
3994599534.0,-0.517586886882782,0.2268738746643066,10.291674613952637,-0.2336274534463882,0.2667082548141479,1.1811108589172363
3994607867.0,-0.5276007652282715,0.0058652409352362,10.108576774597168,-0.4150274395942688,0.1991122514009475,1.2773947715759275
3994616200.0,-0.5303260684013367,-0.2028689384460449,10.02992343902588,-0.2576279938220978,-0.4511179327964782,1.1266292333602903
3994624533.0,-0.5266709327697754,-0.0676153898239135,10.243486404418944,-0.1632394939661026,-0.5334676504135132,1.1445592641830444
3994632866.0,-0.5057703852653503,0.2083193212747573,10.339999198913574,-0.1010737642645835,-0.0516639091074466,1.1890767812728882
3994641199.0,-0.4728601276874542,0.1924615502357483,10.253135681152344,-0.3304492235183716,0.0937352925539016,1.1304714679718018
3994649532.0,-0.4287628531455993,-0.0329316891729831,10.12802505493164,-0.47952401638031,-0.3732762336730957,1.1557269096374512
3994657865.0,-0.4070467352867126,-0.1141877248883247,10.145263671875,-0.309548020362854,-0.6174566745758057,1.2510888576507568
3994666198.0,-0.4612796902656555,0.1100822538137435,10.282547950744627,-0.2115479558706283,-0.0830413475632667,1.1753219366073608
3994674531.0,-0.4888322949409485,0.1860524117946624,10.28475856781006,-0.2559886574745178,0.2680657804012298,1.1223773956298828
3994682864.0,-0.5128445625305176,0.0173527970910072,10.17250156402588,-0.3229186534881592,0.0638947039842605,1.1091604232788086
3994691197.0,-0.5177800059318542,-0.0607276372611522,10.149490356445312,-0.4010164737701416,-0.4652569591999054,1.1734778881072998
3994699530.0,-0.54396653175354,0.0685814619064331,10.232478141784668,-0.2964335083961487,-0.3307566046714782,1.0681006908416748
3994707863.0,-0.5201547145843506,0.157791718840599,10.23715591430664,-0.2981241345405578,-0.0114239491522312,1.2387685775756836
3994716196.0,-0.4934674799442291,0.0635172426700592,10.12501335144043,-0.2496363520622253,-0.1757905036211013,1.2068787813186646
3994724529.0,-0.4022756814956665,-0.1258538663387298,10.07795524597168,-0.3468936085700989,-0.5596453547477722,1.0595967769622805
3994732862.0,-0.3790220022201538,0.0040055918507277,10.184754371643066,-0.1908516734838485,-0.4928434491157532,1.2466576099395752
3994741195.0,-0.4648346602916717,0.2115739434957504,10.329313278198242,-0.2155181616544723,0.0595402866601944,1.262026071548462
3994749528.0,-0.5165926218032837,0.1300959140062332,10.19936752319336,-0.2906703352928161,0.3926021754741668,1.2374365329742432
3994757861.0,-0.5320426225662231,-0.1012340858578682,10.080458641052246,-0.3382103145122528,-0.1404940783977508,1.1167677640914917
3994766194.0,-0.5346750020980835,-0.1358038783073425,10.146851539611816,-0.2180539816617965,-0.6223747134208679,1.1176643371582031
3994774527.0,-0.5423213839530945,0.1361972838640213,10.31739616394043,-0.1136503592133522,-0.2458454072475433,1.196376919746399
3994782860.0,-0.4893403053283691,0.237545907497406,10.306817054748535,-0.1122415661811828,0.0573886856436729,1.1784725189208984
3994791193.0,-0.4250219166278839,0.0481314808130264,10.139362335205078,-0.3151575326919555,-0.0871139988303184,1.1855419874191284
3994799526.0,-0.4230119884014129,-0.1245953738689422,10.074943542480469,-0.3055522441864013,-0.4667682349681854,1.171223759651184
3994807859.0,-0.4746553599834442,0.0194345023483037,10.206871032714844,-0.2638266086578369,-0.2849071323871612,1.1039608716964722
3994816192.0,-0.4960997402667999,0.216902807354927,10.258106231689451,-0.1806315779685974,0.2066428214311599,1.1893329620361328
3994824525.0,-0.5113639235496521,0.1276639401912689,10.194725036621094,-0.2892615497112274,0.2350233942270279,1.18223774433136
3994832858.0,-0.508996307849884,-0.0567506551742553,10.106488227844238,-0.3089332580566406,-0.2567570507526397,1.1844918727874756
3994841191.0,-0.536963939666748,-0.0335253737866878,10.207521438598633,-0.2813211679458618,-0.3816521465778351,1.182955026626587
3994849524.0,-0.5484513640403748,0.1610891819000244,10.32289695739746,-0.2543237209320068,-0.1234862208366394,1.161003589630127
3994857857.0,-0.5111923813819885,0.1268270611763,10.18309497833252,-0.312468022108078,0.0134346652776002,1.1026543378829956
3994866190.0,-0.4235412776470184,-0.0424092076718807,10.105064392089844,-0.3508637845516205,-0.4219176471233368,1.1362346410751345
3994874523.0,-0.3911389112472534,-0.0336469747126102,10.16524887084961,-0.2537346184253692,-0.4227373301982879,1.1489393711090088
3994882856.0,-0.4534189105033874,0.1757166683673858,10.295501708984377,-0.2772484719753265,-0.0596299320459365,1.145225167274475
3994891189.0,-0.5067145228385925,0.1669616550207138,10.271074295043944,-0.240133449435234,0.3516706228256225,1.199937105178833
3994899522.0,-0.5247325301170349,-0.0341333672404289,10.10552215576172,-0.3841622769832611,0.046963695436716,1.1956340074539185
3994907855.0,-0.5296966433525085,-0.1468693315982818,10.054265022277832,-0.2745077311992645,-0.3983013331890106,1.202703595161438
3994916188.0,-0.5203264355659485,0.0455206930637359,10.242663383483888,-0.2180924266576767,-0.3672441244125366,1.1815590858459473
3994924521.0,-0.5082666873931885,0.2436044067144394,10.34170150756836,-0.1112682297825813,-0.0080684833228588,1.1265779733657837
3994932854.0,-0.427403837442398,0.1196456030011177,10.189947128295898,-0.2577047944068908,-0.0082221692427992,1.180367946624756
3994941187.0,-0.4299860000610351,-0.0841889604926109,10.04803466796875,-0.3937676548957824,-0.4348528683185577,1.1843637228012085
3994949520.0,-0.4451071918010711,-0.0587251894176006,10.137273788452148,-0.193592369556427,-0.4288078844547272,1.1622587442398071
3994957853.0,-0.4961927235126495,0.1528562605381012,10.289700508117676,-0.2261480689048767,0.0739867091178894,1.1273976564407349
3994966186.0,-0.52725750207901,0.1704951673746109,10.237549781799316,-0.2587549984455108,0.2167860716581344,1.0945090055465698
3994974519.0,-0.5278798341751099,-0.0076750004664063,10.140420913696287,-0.3486865758895874,-0.1597303599119186,1.2157669067382812
3994982852.0,-0.5534512400627136,-0.0258861389011144,10.181914329528809,-0.3525799512863159,-0.4685611724853515,1.216535210609436
3994991185.0,-0.5406404733657837,0.0930370315909385,10.272992134094238,-0.2632375061511993,-0.2311684489250183,1.0872344970703125
3994999518.0,-0.4842617809772491,0.1230932772159576,10.20505428314209,-0.2865720689296722,-0.0743325129151344,1.1436371803283691
3995007851.0,-0.4353077113628387,-0.0388828553259372,10.10768222808838,-0.313364565372467,-0.2648768126964569,1.1768845319747925
3995016184.0,-0.3647020161151886,-0.0707916840910911,10.137717247009276,-0.2684371769428253,-0.6293929815292358,1.1435859203338623
3995024517.0,-0.4098293781280517,0.0884947404265403,10.247513771057127,-0.1699760556221008,-0.2785804271697998,1.125322937965393
3995032850.0,-0.4779456257820129,0.2164877206087112,10.284135818481444,-0.273816168308258,0.2939105331897735,1.229342341423035
3995041183.0,-0.5519919395446777,0.0220378544181585,10.147867202758787,-0.3652333617210388,0.1296976804733276,1.2662523984909058
3995049516.0,-0.5525428056716919,-0.1709600985050201,10.051733016967772,-0.3250446319580078,-0.4011701345443725,1.128550410270691
3995057849.0,-0.5349682569503784,-0.043703868985176,10.197113990783691,-0.1902113109827041,-0.4903332591056824,1.17457914352417
3995066182.0,-0.5069004893302917,0.1863961070775985,10.332903861999512,-0.1442849934101104,-0.1742792576551437,1.1648457050323486
3995074515.0,-0.4496777653694153,0.1919250786304474,10.24203395843506,-0.2045040428638458,0.1011634171009063,1.1565210819244385
3995082848.0,-0.3779633641242981,-0.0263296142220497,10.143596649169922,-0.373993456363678,-0.3036567568778991,1.0997858047485352
3995091181.0,-0.411452978849411,-0.0971356108784675,10.121336936950684,-0.3491988480091095,-0.4722240269184112,1.2388709783554075
3995099514.0,-0.4724166691303253,0.1069421544671058,10.254179954528809,-0.1720764189958572,-0.077483057975769,1.1815462112426758
3995107847.0,-0.5069363117218018,0.1804447621107101,10.29276180267334,-0.1950011700391769,0.3469063937664032,1.16154146194458
3995116180.0,-0.529761016368866,0.0245342515408992,10.134376525878906,-0.3389275670051574,-0.0236675553023815,1.1722228527069092
3995124513.0,-0.5455330014228821,-0.0423734411597251,10.176271438598633,-0.3163869976997375,-0.3325752019882202,1.1408706903457642
3995132846.0,-0.5327438116073608,0.0803835019469261,10.251819610595703,-0.2302975803613662,-0.301761269569397,1.2533941268920898
3995141179.0,-0.5088604092597961,0.1961595714092254,10.298584938049316,-0.2963823080062866,-0.0135755455121397,1.2090047597885132
3995149512.0,-0.4455935060977936,0.0383249334990978,10.151643753051758,-0.3448956608772278,-0.2883906662464142,1.2234511375427246
3995157845.0,-0.3815827071666717,-0.0624514706432819,10.08692455291748,-0.3440760374069214,-0.6412523984909058,1.1327766180038452
3995166178.0,-0.4061311483383178,0.0320236086845397,10.226033210754396,-0.2206666469573974,-0.3869542777538299,1.1747840642929075
3995174511.0,-0.4678960740566253,0.2139129191637039,10.306702613830566,-0.2425668090581894,0.2430662661790847,1.1912026405334473
3995182844.0,-0.522114634513855,0.0953402444720268,10.190255165100098,-0.3686656653881073,0.2956010401248932,1.244659662246704
3995191177.0,-0.5406547784805298,-0.1169346794486045,10.021597862243652,-0.4273735284805298,-0.2122139483690261,1.156777262687683
3995199510.0,-0.5465415716171265,-0.070348210632801,10.140792846679688,-0.2108307629823684,-0.4360823333263397,1.1124646663665771
3995207843.0,-0.5261988639831543,0.1751087456941604,10.311473846435549,-0.1565541923046112,-0.188418298959732,1.2746795415878296
3995216176.0,-0.4813720285892486,0.2267165035009384,10.28646755218506,-0.2524538934230804,0.0604880154132843,1.1433297395706177
3995224509.0,-0.418491393327713,-0.0079396553337574,10.115937232971191,-0.4163593649864197,-0.2149802595376968,1.1866178512573242
3995232842.0,-0.4179620742797851,-0.0846610516309738,10.098190307617188,-0.3096761107444763,-0.5270640850067139,1.1879242658615112
3995241175.0,-0.4569951295852661,0.0737315043807029,10.209803581237791,-0.1963331252336502,-0.2075009196996688,1.1477354764938354
3995249508.0,-0.5110921859741211,0.1795294135808944,10.280652046203612,-0.1943864375352859,0.2787213027477264,1.208210587501526
3995257841.0,-0.519446611404419,0.0534603483974933,10.155027389526367,-0.3579845130443573,0.0590536147356033,1.13008713722229
3995266174.0,-0.5233878493309021,-0.0721507295966148,10.118369102478027,-0.3818570077419281,-0.4163593649864197,1.1258609294891355
3995274507.0,-0.5295320153236389,-0.0002215861022705,10.231898307800291,-0.4101607203483581,-0.3269656896591186,1.28249192237854
3995282840.0,-0.5326078534126282,0.109080858528614,10.256011009216309,-0.2934622764587402,-0.0397532917559146,1.205316185951233
3995291173.0,-0.4655573070049286,0.0304854270070791,10.150671005249023,-0.3337022364139557,0.0188648831099271,1.1203281879425049
3995299506.0,-0.4076905846595764,-0.1135299205780029,10.089077949523926,-0.3259667754173279,-0.2810137867927551,1.1278588771820068
3995307839.0,-0.397018551826477,-0.0375309661030769,10.201492309570312,-0.3210231959819793,-0.4745293259620666,1.1177923679351809
3995316172.0,-0.4750345051288605,0.1699729263782501,10.300551414489746,-0.1729473173618316,0.1109992787241935,1.2343372106552124
3995324505.0,-0.5078518390655518,0.09488245844841,10.177816390991213,-0.2370853424072265,0.3170914053916931,1.1916126012802124
3995332838.0,-0.5122222304344177,-0.1499951183795929,10.065115928649902,-0.3474058806896209,-0.2361376583576202,1.1262964010238647
3995341171.0,-0.5600104928016663,-0.1572556346654892,10.13194465637207,-0.2424899339675903,-0.4891806542873382,1.1720176935195925
3995349504.0,-0.5328296422958374,0.0736454352736473,10.28257656097412,-0.1303764581680297,-0.2754554748535156,1.1235811710357666
3995357837.0,-0.49908247590065,0.2116669267416,10.31728172302246,-0.1918762177228927,0.0661487653851509,1.1453533172607422
3995366170.0,-0.4367311298847198,0.0262795444577932,10.137609481811523,-0.3963034152984619,-0.2056823074817657,1.1310093402862549
3995374503.0,-0.4342632293701172,-0.1050319895148277,10.074457168579102,-0.3367247283458709,-0.5061372518539429,1.0290902853012085
3995382836.0,-0.4665155708789825,0.0385323651134967,10.213823318481444,-0.1473074704408645,-0.2011229842901229,1.227959156036377
3995391169.0,-0.5048834085464478,0.1761673688888549,10.266053199768066,-0.2633911669254303,0.1965764462947845,1.1818280220031738
3995399502.0,-0.5232734084129333,0.086263284087181,10.196212768554688,-0.2438987493515014,0.131208911538124,1.3284695148468018
3995407835.0,-0.5411199331283569,-0.0620868615806102,10.117074012756348,-0.336750328540802,-0.2338323593139648,1.1558295488357544
3995416168.0,-0.5354618430137634,0.0102214124053716,10.201556205749512,-0.2372390478849411,-0.3363148868083954,1.1974270343780518
3995424501.0,-0.5827420949935913,0.1572838574647903,10.26773452758789,-0.2606248259544372,-0.0051996889524161,1.1507834196090698
3995432834.0,-0.5126440525054932,0.1082082167267799,10.174647331237791,-0.3167456388473511,0.0070054931566119,1.1424076557159424
3995441167.0,-0.4228043556213379,-0.0610849037766456,10.080022811889648,-0.2968177497386932,-0.4848774373531341,1.1189961433410645
3995449500.0,-0.3911746740341186,-0.0008368826238438,10.176464080810549,-0.2640827596187591,-0.5850290656089783,1.1277563571929932
3995457833.0,-0.4188776314258575,0.1823617368936538,10.333540916442873,-0.2245599776506424,-0.0841683745384216,1.220530986785889
3995466166.0,-0.4762720465660095,0.1782273948192596,10.244794845581056,-0.3532715141773224,0.3700360357761383,1.0910767316818235
3995474499.0,-0.513524055480957,-0.0501771941781044,10.06437873840332,-0.3215354681015014,0.0101304305717349,1.1136940717697144
3995482832.0,-0.5348682403564453,-0.1242166459560394,10.114734649658203,-0.2061689794063568,-0.4816756844520569,1.1476329565048218
3995491165.0,-0.5405617952346802,0.1132438108325004,10.264973640441896,-0.1625735461711883,-0.3072940111160278,1.1319315433502195
3995499498.0,-0.4995615780353546,0.2610072493553161,10.297225952148438,-0.2172855734825134,0.0373071320354938,1.1764745712280271
3995507831.0,-0.4329615831375122,0.1054186001420021,10.166399955749512,-0.3177574276924133,-0.1469104588031768,1.1296902894973757
3995516164.0,-0.3976335823535919,-0.0847824439406395,10.065122604370115,-0.3453567624092102,-0.4796265661716461,1.1841845512390137
3995524497.0,-0.4179047346115112,0.0384825356304645,10.209266662597656,-0.2075265049934387,-0.2941794395446777,1.116511583328247
3995532830.0,-0.4866295158863067,0.2143207043409347,10.275023460388184,-0.2397236078977584,0.1177102178335189,1.189819574356079
3995541163.0,-0.5019292831420898,0.1482855826616287,10.179654121398926,-0.3187947273254394,0.2415294200181961,1.110338568687439
3995549496.0,-0.5249972343444824,-0.0143843675032258,10.111509323120115,-0.4104937314987182,-0.2163378298282623,1.1573151350021362
3995557829.0,-0.5328581929206848,0.0274526104331016,10.20749282836914,-0.4082396924495697,-0.2483300268650055,1.1354405879974363
3995566162.0,-0.531098484992981,0.1521123945713043,10.249130249023438,-0.2712547481060028,-0.0178275071084499,1.0668456554412842
3995574495.0,-0.4808140993118286,0.1034587174654007,10.150341987609863,-0.3354696631431579,0.0139981796965003,1.2159206867218018
3995582828.0,-0.4034274816513061,-0.0682023540139198,10.120993614196776,-0.3689218163490295,-0.3637221455574035,1.1638981103897097
3995591161.0,-0.4059309959411621,-0.0292122103273868,10.165212631225586,-0.2767874002456665,-0.5038319230079651,1.1562392711639404
3995599494.0,-0.4643056094646454,0.1430639773607254,10.274179458618164,-0.3934346437454223,-0.0177250504493713,1.1945070028305054
3995607827.0,-0.5109132528305054,0.188205599784851,10.271132469177246,-0.3860065042972564,0.315324068069458,1.1906393766403198
3995616160.0,-0.5318496227264404,-0.0623513311147689,10.104535102844238,-0.3578052520751953,-0.0416999757289886,1.17281174659729
3995624493.0,-0.5362843871116638,-0.1802444905042648,10.069143295288086,-0.3667190372943878,-0.4379265606403351,1.144661784172058
3995632826.0,-0.531635046005249,0.0176246054470539,10.276496887207031,-0.1716153621673584,-0.3171298503875732,1.0781160593032837
3995641159.0,-0.4882028102874756,0.191352903842926,10.307676315307615,-0.2790926992893219,-0.0376529246568679,1.168303608894348
3995649492.0,-0.4078262746334076,0.0614788047969341,10.194281578063965,-0.342385470867157,-0.1414674073457718,1.1097750663757324
3995657825.0,-0.4106017053127289,-0.116476684808731,10.096559524536133,-0.3178470134735107,-0.4942522346973419,1.1890512704849243
3995666158.0,-0.4593198001384735,-0.0497623272240161,10.196284294128418,-0.2460247576236724,-0.4165643453598022,1.182340383529663
3995674491.0,-0.491593450307846,0.1415333002805709,10.277104377746582,-0.1595766693353653,0.1017013192176818,1.0945090055465698
3995682824.0,-0.5064427256584167,0.0716786384582519,10.19551944732666,-0.2619055509567261,0.2222418934106826,1.090103268623352
3995691157.0,-0.5307266712188721,-0.0912845805287361,10.12325382232666,-0.3534251749515533,-0.2496619075536728,1.178498148918152
3995699490.0,-0.5393958687782288,-0.0491686426103115,10.222785949707031,-0.2169781774282455,-0.3635428547859192,1.2454280853271484
3995707823.0,-0.5316636562347412,0.0953903123736381,10.26857089996338,-0.0977439284324646,-0.060065384954214,1.117664456367493
3995716156.0,-0.4979450106620788,0.0974503606557846,10.194074630737305,-0.2442829459905624,-0.0209012161940336,1.2322112321853638
3995724489.0,-0.4238060712814331,-0.0761351808905601,10.078033447265623,-0.2267372012138366,-0.3863138556480407,1.2127187252044678
3995732822.0,-0.3803667426109314,-0.0766927823424339,10.166643142700195,-0.1964099407196045,-0.5267823338508606,1.1554197072982788
3995741155.0,-0.4332691431045532,0.1172350943088531,10.315765380859377,-0.2080900222063064,-0.140417218208313,1.25751793384552
3995749488.0,-0.5013928413391113,0.1406678110361099,10.25080394744873,-0.2360351681709289,0.3491860628128052,1.169097661972046
3995757821.0,-0.5231018662452698,-0.0505633689463138,10.04385757446289,-0.3266327381134033,0.0865120738744735,1.1513214111328125
3995766154.0,-0.543508768081665,-0.1577201932668686,10.058599472045898,-0.272740364074707,-0.4092385768890381,1.099350094795227
3995774487.0,-0.5367564558982849,0.0528735108673572,10.225568771362305,-0.0922624841332435,-0.3804226219654083,1.098351240158081
3995782820.0,-0.512758731842041,0.2312943935394287,10.32712459564209,-0.1353968381881714,0.1125873625278472,1.1745535135269165
3995791153.0,-0.4433832764625549,0.1261618435382843,10.195640563964844,-0.2336274236440658,0.0008324626251123,1.1884876489639282
3995799486.0,-0.403506189584732,-0.0723724663257598,10.07724666595459,-0.2442445307970047,-0.5057914853096008,1.103230595588684
3995807819.0,-0.4155944883823395,-0.0077822930179536,10.16466236114502,-0.1744841784238815,-0.404397577047348,1.13966703414917
3995816152.0,-0.4983242750167846,0.1892713755369186,10.25357151031494,-0.1234606057405471,-0.0661615654826164,1.2487835884094238
3995824485.0,-0.4898910522460937,0.2058302015066146,10.207120895385742,-0.1777499765157699,0.2342165559530258,1.1700325012207031
3995832818.0,-0.5163565874099731,0.031894527375698,10.15414047241211,-0.321650743484497,-0.1917097568511963,1.2040995359420776
3995841151.0,-0.5416705012321472,0.005521994549781,10.184854507446287,-0.2968177199363708,-0.4879511892795563,1.0916146039962769
3995849484.0,-0.5575856566429138,0.1512037366628646,10.290515899658203,-0.2191553860902786,-0.2174392342567443,1.200398325920105
3995857817.0,-0.5212062001228333,0.1894716620445251,10.242871284484863,-0.2346007823944091,0.1518539786338806,1.119149923324585
3995866150.0,-0.4556360840797424,0.0316298715770244,10.14629364013672,-0.2927707135677337,-0.2764544188976288,1.13789963722229
3995874483.0,-0.4015178978443146,-0.0290337707847356,10.144698143005373,-0.3660018146038055,-0.5051895380020142,1.0609800815582275
3995882816.0,-0.4137491583824157,0.1689213216304779,10.34132957458496,-0.1632907390594482,-0.2235610336065292,1.1878472566604614
3995891149.0,-0.4806638956069946,0.2291556298732757,10.287590980529783,-0.3182312846183777,0.2949094772338867,1.203830599784851
3995899482.0,-0.5456043481826782,0.0441472306847572,10.155756950378418,-0.4460462927818298,0.2647359073162079,1.2161766290664673
3995907815.0,-0.5404330492019653,-0.1123997718095779,10.07435703277588,-0.3271450102329254,-0.2911057472229004,1.108417510986328
3995916148.0,-0.5281229019165039,0.0196491032838821,10.230997085571287,-0.2093451470136642,-0.3199217915534973,1.0436903238296509
3995924481.0,-0.5123222470283508,0.265864223241806,10.319864273071287,-0.1898014694452285,-0.212700605392456,1.114821195602417
3995932814.0,-0.455121099948883,0.1739929020404815,10.225869178771973,-0.2598820030689239,0.0128199243918061,1.2045221328735352
3995941147.0,-0.4339772760868072,-0.0512715801596641,10.103999137878418,-0.3512223660945892,-0.2937696576118469,1.2188405990600586
3995949480.0,-0.425022155046463,-0.0434681996703147,10.138303756713867,-0.3447163701057434,-0.4597499072551727,1.1583908796310425
3995957813.0,-0.4865364730358124,0.1482425332069397,10.26028823852539,-0.1744073331356048,-0.1575531512498855,1.1153079271316528
3995966146.0,-0.4813934862613678,0.1717612147331237,10.250567436218262,-0.3288867771625519,0.1422230303287506,1.1788311004638672
3995974479.0,-0.5203550457954407,-0.001180219114758,10.150076866149902,-0.4298068284988403,0.0022924738004803,1.1710443496704102
3995982812.0,-0.5363273024559021,-0.0595474168658256,10.1837739944458,-0.331396996974945,-0.380909264087677,1.0909488201141355
3995991145.0,-0.5658184885978699,0.0708274543285369,10.229388236999512,-0.3347268104553222,-0.2092683017253875,1.1981185674667358
3995999478.0,-0.5432085990905762,0.1068778783082962,10.23327922821045,-0.341770738363266,0.1396616250276565,1.1494773626327517
3996007811.0,-0.4651207625865936,-0.0382319465279579,10.10313320159912,-0.4665632843971252,-0.2365474700927734,1.1650506258010864
3996016144.0,-0.3873836696147918,-0.1268914341926574,10.148260116577148,-0.2773253321647644,-0.5197896957397461,1.0821118354797363
3996024477.0,-0.3995721042156219,0.0518080405890941,10.210740089416504,-0.2508401870727539,-0.3031700551509857,1.1916126012802124
3996032810.0,-0.4591841399669647,0.1598661839962005,10.308469772338867,-0.3656944036483764,0.1942967623472213,1.1421003341674805
3996041143.0,-0.4874662458896637,-0.0186260025948286,10.121759414672852,-0.4061136841773987,0.2254692912101745,1.155214786529541
3996049476.0,-0.5057134032249451,-0.1978192776441574,9.989453315734863,-0.3760682344436645,-0.3542961180210113,1.1235812902450562
3996057809.0,-0.5497674942016602,-0.0935091152787208,10.179590225219728,-0.1352687627077102,-0.4621831774711609,1.1379506587982178
3996066142.0,-0.54475337266922,0.1438794434070587,10.323147773742676,-0.2171830832958221,-0.1077078580856323,1.1108253002166748
3996074475.0,-0.5035889148712158,0.1443944126367569,10.264158248901367,-0.3261460363864898,-0.0151123972609639,1.139487624168396
3996082808.0,-0.4305727183818817,-0.0724226757884025,10.12781810760498,-0.3818826377391815,-0.3549876809120178,1.2098243236541748
3996091141.0,-0.4358799457550049,-0.1193523406982421,10.096896171569824,-0.2088072299957275,-0.4721471965312958,1.1800092458724976
3996099474.0,-0.4441486299037933,0.0651337876915931,10.24786376953125,-0.1582959741353988,-0.0454396530985832,1.1872326135635376
3996107807.0,-0.4690405130386352,0.1284221410751342,10.263192176818848,-0.1262781769037246,0.2466010749340057,1.1949938535690308
3996116140.0,-0.4890613257884979,0.0073388167656958,10.189482688903809,-0.3193070888519287,0.0287775956094265,1.1520644426345823
3996124473.0,-0.5155697464942932,-0.0496764928102493,10.155277252197266,-0.1426200568675995,-0.3533740043640136,1.1183559894561768
3996132806.0,-0.5378365516662598,0.0667717903852462,10.253493309020996,-0.1822708994150161,-0.2451282292604446,1.1119012832641602
3996141139.0,-0.5427005290985107,0.1659101992845535,10.23386573791504,-0.2401846796274185,0.090968944132328,1.1722482442855835
3996149472.0,-0.4964359104633331,0.019992196932435,10.113819122314451,-0.3139793276786804,-0.0996393710374832,1.154369592666626
3996157805.0,-0.4113028943538666,-0.0692971274256706,10.08862018585205,-0.2302207350730896,-0.5479140877723694,1.030934453010559
3996166138.0,-0.4053873717784881,0.0582169890403747,10.24739933013916,-0.0586822107434272,-0.3359563052654266,1.1726068258285522
3996174471.0,-0.4837181568145752,0.231895163655281,10.352545738220217,-0.2328333854675293,0.1504195928573608,1.2166121006011963
3996182804.0,-0.5482153296470642,0.1132652685046196,10.208823204040527,-0.328195184469223,0.2134562134742736,1.2612321376800537
3996191137.0,-0.5349611043930054,-0.1075143814086914,10.065459251403809,-0.3271194100379944,-0.1492541432380676,1.195301175117493
3996199470.0,-0.5333587527275085,-0.069525234401226,10.18722915649414,-0.2124957144260406,-0.5008863806724548,1.1325461864471436
3996207803.0,-0.5253620147705078,0.2001222372055053,10.319828987121582,-0.0580162480473518,-0.2671308517456054,1.250192403793335
3996216136.0,-0.4567161798477173,0.2391123920679092,10.260231018066406,-0.1406477689743042,0.1037504523992538,1.120430588722229
3996224469.0,-0.4188776314258575,0.0256143305450677,10.12142276763916,-0.2883394658565521,-0.2055286169052124,1.1054463386535645
3996232802.0,-0.4365952312946319,-0.0464147962629795,10.14788818359375,-0.211624801158905,-0.5334933400154114,1.206443190574646
3996241135.0,-0.4863647222518921,0.1193881034851074,10.217714309692385,-0.2555020153522491,-0.0931845903396606,1.1356967687606812
3996249468.0,-0.5330656170845032,0.2129472941160202,10.283906936645508,-0.2651073038578033,0.1749836504459381,1.148529291152954
3996257801.0,-0.503810465335846,0.0756842344999313,10.177579879760742,-0.3927174508571625,0.0061858375556766,1.0904619693756104
3996266134.0,-0.5173866152763367,-0.0216087382286787,10.151694297790527,-0.4151811301708221,-0.3995821177959442,1.187796115875244
3996274467.0,-0.5166283845901489,0.1003329306840896,10.22738552093506,-0.329834520816803,-0.3668214678764343,1.268813967704773
3996282800.0,-0.5168071985244751,0.2007588446140289,10.254687309265137,-0.3007111549377441,-0.0346816778182983,1.1820842027664185
3996291133.0,-0.4633969366550445,0.0972428992390632,10.162365913391112,-0.4350833892822265,-0.221844881772995,1.1323156356811523
3996299466.0,-0.409350037574768,-0.0536963902413845,10.079063415527344,-0.3845977485179901,-0.5201994776725769,1.1436371803283691
3996307799.0,-0.4163097739219665,0.0268160086125135,10.212543487548828,-0.3506332635879516,-0.4418455362319946,1.1659983396530151
3996316132.0,-0.4786253273487091,0.214635357260704,10.296424865722656,-0.2751737236976623,0.0326709561049938,1.2543418407440186
3996324465.0,-0.5254263877868652,0.1407250314950943,10.225260734558104,-0.384239137172699,0.3281055390834808,1.157955527305603
3996332798.0,-0.5329723358154297,-0.1123710721731185,10.059200286865234,-0.4726850688457489,-0.139213353395462,1.1006051301956177
3996341131.0,-0.5191819667816162,-0.1253678798675537,10.142080307006836,-0.2850095629692077,-0.6788029074668884,1.2693262100219729
3996349464.0,-0.5039892792701721,0.1388727128505706,10.290287017822266,-0.1481271088123321,-0.2940002083778381,1.2274982929229736
3996357797.0,-0.4812361299991607,0.2358793020248413,10.291932106018066,-0.2675918936729431,0.0521633848547935,1.1533961296081543
3996366130.0,-0.4084487855434418,0.0195129550993442,10.178431510925291,-0.4089313149452209,-0.146513432264328,1.230981707572937
3996374463.0,-0.4042069613933563,-0.104745902121067,10.065917015075684,-0.3300394117832184,-0.4429981708526611,1.072839379310608
3996382796.0,-0.4604070484638214,-0.0215300563722848,10.189146041870115,-0.3360587954521179,-0.3177957832813263,1.1709675788879397
3996391129.0,-0.5000482201576233,0.1612251698970794,10.27029514312744,-0.2133922129869461,0.1200923398137092,1.187796115875244
3996399462.0,-0.5263276696205139,0.1008479297161102,10.179282188415527,-0.2294523119926452,0.0958868861198425,1.16574227809906
3996407795.0,-0.5458404421806335,-0.0567362159490585,10.127266883850098,-0.351273626089096,-0.3141842484474182,1.224501371383667
3996416128.0,-0.5401040315628052,-0.0530884005129337,10.218122482299805,-0.2708449065685272,-0.3405924439430237,1.0708670616149902
3996424461.0,-0.5312203168869019,0.0900256633758544,10.254637718200684,-0.2244319021701812,-0.0130376452580094,1.1121060848236084
3996432794.0,-0.5031381249427795,0.0449341610074043,10.181707382202148,-0.3185129761695862,-0.0452859625220298,1.2055723667144775
3996441127.0,-0.4381330907344818,-0.1353675574064254,10.105464935302734,-0.3885679244995117,-0.5292925238609314,1.1425613164901731
3996449460.0,-0.3873336911201477,-0.0797045305371284,10.167280197143556,-0.2098318338394165,-0.5627447962760925,1.0185117721557615
3996457793.0,-0.4018754065036773,0.154043436050415,10.322518348693848,-0.1384449303150177,-0.2056823074817657,1.1315984725952148
3996466126.0,-0.5120646953582764,0.1399951726198196,10.250360488891602,-0.304502010345459,0.3366606831550598,1.158647060394287
3996474459.0,-0.5235022902488708,-0.088087260723114,10.07585906982422,-0.3548596203327179,0.0127686960622668,1.1973246335983276
3996482792.0,-0.5308840870857239,-0.2049005478620529,10.04926586151123,-0.2666442096233368,-0.4592376053333282,1.2024987936019895
3996491125.0,-0.5426146388053894,-0.0051500471308827,10.232420921325684,-0.060833815485239,-0.4177425801753998,1.0976852178573608
3996499458.0,-0.5189173221588135,0.2313229441642761,10.295344352722168,-0.0448761358857154,0.0174048710614442,1.2459404468536377
3996507791.0,-0.4749129116535187,0.1068135052919387,10.203730583190918,-0.1925678253173828,-0.1104741990566253,1.1450459957122805
3996516124.0,-0.4292492568492889,-0.0906050652265548,10.08696746826172,-0.3426672220230102,-0.4852873086929321,1.1355687379837036
3996524457.0,-0.42598757147789,-0.0338830165565013,10.175333976745604,-0.1643921434879303,-0.3829583823680877,1.2550077438354492
3996532790.0,-0.485399067401886,0.1587358862161636,10.2635498046875,-0.1908260434865951,-0.0502807460725307,1.2478358745574951
3996541123.0,-0.4868655502796173,0.1739000827074051,10.23348617553711,-0.2322186380624771,0.2262377142906189,1.2279335260391235
3996549456.0,-0.4746268987655639,-0.0101713426411151,10.13894748687744,-0.2737777233123779,-0.199650153517723,1.214934468269348
3996557789.0,-0.4964287579059601,-0.0247702952474355,10.20615577697754,-0.2361888587474823,-0.4248633086681366,1.1073930263519287
3996566122.0,-0.5378365516662598,0.1449595093727111,10.268564224243164,-0.2174648493528366,-0.2107283025979995,1.1468132734298706
3996574455.0,-0.5202333927154541,0.1903800666332245,10.224581718444824,-0.2821151912212372,0.0970395430922508,1.1798557043075562
3996582788.0,-0.454255610704422,-0.0257001649588346,10.10345458984375,-0.3841879069805145,-0.3350085914134979,1.1490161418914795
3996591121.0,-0.4122968912124634,-0.0746036916971206,10.129884719848633,-0.2285558432340622,-0.5724525451660156,1.1396414041519165
3996599454.0,-0.4110596477985382,0.1353958696126938,10.291088104248049,-0.1413905918598175,-0.3324727714061737,1.1874887943267822
3996607787.0,-0.4780173301696777,0.2653919458389282,10.333812713623049,-0.2496363520622253,0.2604071199893951,1.2530099153518677
3996616120.0,-0.5252118110656738,0.0716214179992675,10.18701457977295,-0.334291398525238,0.1912742853164672,1.0943553447723389
3996624453.0,-0.5277940034866333,-0.1324277371168136,10.057254791259766,-0.3158491253852844,-0.2678480446338653,1.1784982681274414
3996632786.0,-0.5288882851600647,-0.0323592759668827,10.252077102661133,-0.2396211773157119,-0.4156934320926666,1.26819908618927
3996641119.0,-0.5267139077186584,0.2186338007450103,10.34027099609375,-0.1219749972224235,-0.0785588696599006,1.1819818019866943
3996649452.0,-0.471758484840393,0.2094280272722244,10.262906074523926,-0.2232536673545837,0.1107943654060363,1.1822121143341064
3996657785.0,-0.4257517755031585,0.0052069760859012,10.095351219177246,-0.3619034886360168,-0.3466630280017853,1.1855418682098389
3996666118.0,-0.4283623099327087,-0.0897896364331245,10.09711742401123,-0.2311172187328338,-0.513181209564209,1.223604679107666
3996674451.0,-0.4700276255607605,0.1189946979284286,10.255882263183594,-0.1650837361812591,-0.0675191208720207,1.273680567741394
3996682784.0,-0.5207198262214661,0.1927834302186966,10.272784233093262,-0.2175929099321365,0.3237510919570923,1.2305463552474976
3996691117.0,-0.5436160564422607,0.0248990468680858,10.134942054748535,-0.4061905443668365,0.0456061474978923,1.284950852394104
3996699450.0,-0.5265493988990784,-0.049955453723669,10.150548934936523,-0.3719955384731293,-0.4469172060489654,1.1523717641830444
3996707783.0,-0.526949942111969,0.0737958773970604,10.248550415039062,-0.2903885841369629,-0.3473034203052521,1.155906319618225
3996716116.0,-0.532736599445343,0.1972253322601318,10.25359344482422,-0.3059108257293701,0.0369741506874561,1.1451996564865112
3996724449.0,-0.4757212698459625,0.0631452947854995,10.130078315734863,-0.4256573319435119,-0.0480523034930229,1.194225192070007
3996732782.0,-0.3987779915332794,-0.114202082157135,10.074135780334473,-0.3883117735385895,-0.5186625719070435,1.149169683456421
3996741115.0,-0.3990857303142547,-0.0092629315331578,10.18865966796875,-0.2233304977416992,-0.3665396869182586,1.2423031330108645
3996749448.0,-0.4686472415924072,0.1878910064697265,10.315650939941406,-0.2036587744951248,0.174727514386177,1.1721200942993164
3996757781.0,-0.5346893072128296,0.1127788722515106,10.20697784423828,-0.4547551274299621,0.2030824571847915,1.2512423992156982
3996766114.0,-0.5594953894615173,-0.1257755905389785,10.08862018585205,-0.3570111691951751,-0.1374715864658355,1.1324180364608765
3996774447.0,-0.534145712852478,-0.1193952560424804,10.112367630004885,-0.2251491099596023,-0.506085991859436,1.1755523681640625
3996782780.0,-0.5579074621200562,0.1025503128767013,10.292418479919434,-0.1425944417715072,-0.357702761888504,1.152192234992981
3996791113.0,-0.4997977614402771,0.1915459781885147,10.2910737991333,-0.238468512892723,0.0623834654688835,1.148708701133728
3996799446.0,-0.4393350183963775,-0.0089125912636518,10.108254432678224,-0.3749668300151825,-0.186574101448059,1.128550410270691
3996807779.0,-0.4217530786991119,-0.1403602361679077,10.093469619750977,-0.3007879555225372,-0.6126156449317932,1.1913307905197144
3996816112.0,-0.4258730411529541,-0.002975373994559,10.221819877624512,-0.1473330855369568,-0.2433864772319793,1.1982979774475098
3996824445.0,-0.4847481548786163,0.1975615173578262,10.29444980621338,-0.2992767095565796,0.1995220780372619,1.2503204345703125
3996832778.0,-0.4972012639045715,0.0756055489182472,10.179261207580566,-0.4053708910942077,0.094145119190216,1.1636162996292114
3996841111.0,-0.5094183087348938,-0.0883519127964973,10.147008895874023,-0.3778355717658996,-0.2291961759328842,1.151936173439026
3996849444.0,-0.5289599895477295,-0.0364655293524265,10.174081802368164,-0.222690150141716,-0.4159495532512665,1.1421771049499512
3996857777.0,-0.5463556051254272,0.1487433761358261,10.236454963684082,-0.1593717634677887,-0.1958208382129669,1.157955527305603
3996866110.0,-0.4777097702026367,0.0999180600047111,10.176993370056152,-0.3676410615444183,0.0177890863269567,1.1591336727142334
3996874443.0,-0.4098006784915924,-0.0747615173459053,10.101202011108398,-0.2671948671340942,-0.300083577632904,1.0592767000198364
3996882776.0,-0.3804095685482025,-0.0540895350277423,10.15362548828125,-0.2007259428501129,-0.6439034342765808,1.1554838418960571
3996891109.0,-0.4231693744659424,0.1606813818216323,10.26204776763916,-0.1056587100028991,-0.0721552968025207,1.167663335800171
3996899442.0,-0.4957064688205719,0.1850443184375763,10.285774230957031,-0.2675150632858276,0.3872231841087341,1.0858770608901978
3996907775.0,-0.5494670867919922,-0.0449270084500312,10.090265274047852,-0.3057827055454254,-0.010681134648621,1.2007567882537842
3996916108.0,-0.548973560333252,-0.1569047570228576,10.063720703125,-0.2719207108020782,-0.4400268793106079,1.2034720182418823
3996924441.0,-0.535612165927887,0.0528877861797809,10.291167259216309,-0.187163233757019,-0.397686630487442,1.1381813287734983
3996932774.0,-0.534746527671814,0.2661572992801666,10.337646484375,-0.1644689887762069,-0.0619608275592327,1.2831323146820068
3996941107.0,-0.4448353052139282,0.1256039291620254,10.206591606140137,-0.3183592855930328,-0.0465410612523555,1.1127207279205322
3996949440.0,-0.4158090651035309,-0.0979224219918251,10.106101989746094,-0.3362380564212799,-0.4142846167087555,1.0486083030700684
3996957773.0,-0.4394920170307159,-0.0481954552233219,10.17212963104248,-0.2303744405508041,-0.5071874260902405,1.1220954656600952
3996966106.0,-0.4879025816917419,0.1628702282905578,10.324971199035645,-0.2168501019477844,0.0268052965402603,1.207339644432068
3996974439.0,-0.5010852813720703,0.1797080338001251,10.266768455505373,-0.2800148129463196,0.2555404007434845,1.2196601629257202
3996982772.0,-0.5292460322380066,0.0047351820394396,10.133740425109863,-0.3906939327716827,-0.066417708992958,1.1856443881988523
3996991105.0,-0.537564754486084,-0.0482459254562854,10.154040336608888,-0.382574200630188,-0.4585460424423218,1.1167933940887451
3996999438.0,-0.5487589836120605,0.1100393384695053,10.278985977172852,-0.2037612199783325,-0.1621124744415283,1.1522434949874878
3997007771.0,-0.5061137080192566,0.1783990561962127,10.217571258544922,-0.309522420167923,0.0371534451842308,1.2259868383407593
3997016104.0,-0.4457866251468658,0.0101570365950465,10.101116180419922,-0.3391324579715729,-0.1662619709968567,1.2353360652923584
3997024437.0,-0.3944580256938934,-0.0593475885689258,10.156329154968262,-0.290900856256485,-0.5681493282318115,1.127833127975464
3997032770.0,-0.4203868806362152,0.1050609573721885,10.2633638381958,-0.2618030607700348,-0.4161032140254974,1.1744766235351562
3997041103.0,-0.4930526316165924,0.1878551095724105,10.319170951843262,-0.307268351316452,0.1088733151555061,1.1451740264892578
3997049436.0,-0.5359625220298767,0.0215729735791683,10.137574195861816,-0.3571904599666595,0.1221670880913734,1.214229941368103
3997057769.0,-0.5479292273521423,-0.1523269414901733,10.05659008026123,-0.300531804561615,-0.3229186236858368,1.1053180694580078
3997066102.0,-0.5119718909263611,-0.0534460432827472,10.225497245788574,-0.2443597912788391,-0.4723009169101715,1.1731704473495483
3997074435.0,-0.5204265713691711,0.1868251115083694,10.35321044921875,-0.0822216868400573,-0.1679781526327133,1.1828268766403198
3997082768.0,-0.4496850371360779,0.2074539512395858,10.24572467803955,-0.2049650847911834,0.0947598591446876,1.115230917930603
3997091101.0,-0.4186058342456817,-0.035170529037714,10.11479949951172,-0.4709048867225647,-0.336455762386322,1.1778960227966309
3997099434.0,-0.4132125973701477,-0.1258614212274551,10.09568691253662,-0.3099834620952606,-0.5057274103164673,1.1602095365524292
3997107767.0,-0.4479398131370544,0.07406035810709,10.25500202178955,-0.2995584905147552,-0.2066300213336944,1.167765736579895
3997116100.0,-0.4936391413211822,0.2071177214384079,10.286389350891112,-0.2138532400131225,0.431484580039978,1.2250391244888306
3997124433.0,-0.5352970361709595,0.0822075605392456,10.184382438659668,-0.4782690107822418,0.094375655055046,1.1133356094360352
3997132766.0,-0.5020365715026855,-0.0734167769551277,10.152873992919922,-0.4838528931140899,-0.3637221157550812,1.097915530204773
3997141099.0,-0.514625608921051,0.0237188264727592,10.241612434387209,-0.3624413907527923,-0.3945616483688354,1.119021773338318
3997149432.0,-0.5146613717079163,0.1496660858392715,10.249966621398926,-0.2968689501285553,-0.003227393142879,1.187847137451172
3997157765.0,-0.4572097361087799,0.0447338782250881,10.141679763793944,-0.2607016861438751,0.0244744010269641,1.1492209434509275
3997166098.0,-0.4112598598003387,-0.1104756593704223,10.098433494567873,-0.3228674232959747,-0.5212496519088745,1.0950467586517334
3997174431.0,-0.4069608449935913,0.0002292226854478,10.232807159423828,-0.2529405951499939,-0.4133881628513336,1.1144882440567017
3997182764.0,-0.4678030908107757,0.1881197690963745,10.311409950256348,-0.2439755946397781,0.1224232465028762,1.2641521692276
3997191097.0,-0.5373859405517578,0.0941600278019905,10.193702697753906,-0.4259903132915497,0.3156313896179199,1.2172523736953735
3997199430.0,-0.5467418432235718,-0.1455102860927581,10.058993339538574,-0.4738377034664154,-0.2332688421010971,1.247169852256775
3997207763.0,-0.5535371899604797,-0.1631996035575866,10.100092887878418,-0.2261480689048767,-0.4761942327022552,1.0772706270217896
3997216096.0,-0.5266996026039124,0.1202678978443145,10.278485298156738,-0.1005614846944809,-0.2825762331485748,1.0733516216278076
3997224429.0,-0.4689761400222778,0.2424241602420807,10.301331520080566,-0.1954878270626068,0.0466307140886783,1.1415880918502808
3997232762.0,-0.4237344264984131,0.0741535201668739,10.1597261428833,-0.3670263588428497,-0.0551474466919899,1.1786518096923828
3997241095.0,-0.4293778538703918,-0.1586712747812271,10.073083877563477,-0.4096740782260895,-0.5955309271812439,1.1102361679077148
3997249428.0,-0.430272102355957,-0.0373020768165588,10.230003356933594,-0.1970759332180023,-0.3016588389873504,1.2099010944366455
3997257761.0,-0.5135455131530762,0.1840211898088455,10.29251194000244,-0.0675447359681129,0.2189632803201675,1.1611829996109009
3997266094.0,-0.5199614763259888,0.1513611227273941,10.18826675415039,-0.2116504162549972,0.2674766480922699,1.116588473320007
3997274427.0,-0.5341383814811707,-0.0223809871822595,10.125828742980955,-0.2738930284976959,-0.3092662692070007,1.1755523681640625
3997282760.0,-0.5450966954231262,-0.014720550738275,10.221176147460938,-0.2980087995529175,-0.4535640478134155,1.1752322912216189
3997291093.0,-0.5159345865249634,0.1461111158132553,10.256182670593262,-0.2669899761676788,-0.2576920092105865,1.1572256088256836
3997299426.0,-0.4923874139785766,0.1243021041154861,10.201263427734377,-0.2714468538761139,-0.0926594957709312,1.224360466003418
3997307759.0,-0.4297640919685364,-0.0571222864091396,10.099620819091797,-0.2886980772018432,-0.3986343443393707,1.1415880918502808
3997316092.0,-0.3972831964492798,-0.0379815958440303,10.156715393066406,-0.2420288771390915,-0.4817012846469879,1.1684317588806152
3997324425.0,-0.4385121762752533,0.1506388783454895,10.320693969726562,-0.2319625169038772,-0.0267156474292278,1.10703444480896
3997332758.0,-0.5102981328964233,0.2022037208080291,10.295266151428224,-0.2672333121299743,0.3451646268367767,1.209849834442139
3997341091.0,-0.5455401539802551,-0.0207289382815361,10.1046781539917,-0.40352663397789,0.1370489597320556,1.1308300495147705
3997349424.0,-0.5204909443855286,-0.1425847709178924,10.085722923278809,-0.2973684668540954,-0.3973664343357086,1.1421643495559692
3997357757.0,-0.5222862958908081,0.002825372852385,10.242706298828123,-0.0840146914124488,-0.3580101728439331,1.2464783191680908
3997366090.0,-0.5032095909118652,0.2438190132379531,10.351329803466797,-0.1763796210289001,-0.034169390797615,1.0637975931167605
3997374423.0,-0.4480683803558349,0.1556887775659561,10.206971168518066,-0.2103697061538696,0.0325941145420074,1.166049599647522
3997382756.0,-0.4123258590698242,-0.0836170315742492,10.065716743469238,-0.3519139587879181,-0.3901048004627228,1.0822911262512207
3997391089.0,-0.4104158282279968,-0.0460571572184562,10.114920616149902,-0.2938720881938934,-0.4140540957450866,1.200705647468567
3997399422.0,-0.4730891585350036,0.1550164222717285,10.27590274810791,-0.2127006202936172,0.0348737835884094,1.09753155708313
3997407755.0,-0.5143252015113831,0.1869896203279495,10.266060829162598,-0.205323725938797,0.2081028670072555,1.1391035318374634
3997416088.0,-0.5184308886528015,0.0326670333743095,10.163209915161133,-0.4232496321201324,-0.0617303103208541,1.119995355606079
3997424421.0,-0.5226796865463257,-0.0448197126388549,10.134913444519045,-0.4122610986232757,-0.5122846961021423,1.1513214111328125
3997432754.0,-0.5455473065376282,0.0852976515889167,10.250839233398438,-0.3202548027038574,-0.2699740529060364,1.1724021434783936
3997441087.0,-0.5220788717269897,0.1531781256198883,10.22781467437744,-0.3222270905971527,0.0582339614629745,1.1252206563949585
3997449420.0,-0.462724357843399,0.0094776824116706,10.11893367767334,-0.3558329641819,-0.2147241234779358,1.0606215000152588
3997457753.0,-0.4096147119998932,-0.0872360691428184,10.084979057312012,-0.1799400001764297,-0.497761458158493,1.130548357963562
3997466086.0,-0.4075260758399963,0.0807699039578437,10.262370109558104,-0.1382400244474411,-0.4106730222702026,1.1720434427261353
3997474419.0,-0.4693337976932525,0.2136697173118591,10.323540687561035,-0.3205877542495727,0.1074388921260833,1.2311608791351318
3997482752.0,-0.5234166979789734,0.0361506678164005,10.160784721374512,-0.3838036954402923,0.2358174622058868,1.2076472043991089
3997491085.0,-0.5401183366775513,-0.1805806756019592,10.016826629638672,-0.3981220722198486,-0.261879950761795,1.1054463386535645
3997499418.0,-0.531019926071167,-0.0948681533336639,10.159976959228516,-0.2535297274589538,-0.5843376517295837,1.2067763805389404
3997507751.0,-0.52634197473526,0.1947361528873443,10.333504676818848,-0.1249462366104126,-0.2215119004249572,1.161105990409851
3997516084.0,-0.4911785721778869,0.2577240765094757,10.28360652923584,-0.2657860815525055,0.0751265510916709,1.0575604438781738
3997524417.0,-0.4434476494789123,-0.0027180803008377,10.082411766052246,-0.393754780292511,-0.2123804241418838,1.120033621788025
3997532750.0,-0.4257586598396301,-0.1155756339430809,10.108290672302246,-0.2656452059745788,-0.6000902652740479,1.117817997932434
3997541083.0,-0.4665441811084747,0.0516149140894413,10.241418838500977,-0.2120602428913116,-0.1905698925256729,1.1607986688613892
3997549416.0,-0.4911714196205139,0.1639646142721176,10.264887809753418,-0.3001987934112549,0.2558734118938446,1.203830599784851
3997557749.0,-0.5165711641311646,0.0940169692039489,10.196069717407228,-0.3674618303775787,0.0817478224635124,1.1274745464324951
3997566082.0,-0.5011138916015625,-0.0317014008760452,10.184231758117676,-0.2714340686798095,-0.4863374233245849,1.095328688621521
3997574415.0,-0.5217068791389465,0.0565003082156181,10.282726287841797,-0.2998146116733551,-0.4089568257331848,1.221888542175293
3997582748.0,-0.5202189087867737,0.172655388712883,10.24452304840088,-0.3203316330909729,-0.0477705523371696,1.2407920360565186
3997591081.0,-0.4600565433502197,0.0543472990393638,10.170255661010742,-0.3333436548709869,-0.0063267163932323,1.2123346328735352
3997599414.0,-0.4114314317703247,-0.0923715755343437,10.079514503479004,-0.2799379825592041,-0.5604394674301147,1.1982978582382202
3997607747.0,-0.4064817726612091,-0.0318015404045581,10.194561004638672,-0.1511239856481552,-0.4740169942378998,1.1310093402862549
3997616080.0,-0.4771875143051147,0.2167597711086273,10.355757713317873,-0.1513801217079162,0.0231936890631914,1.2567241191864014
3997624413.0,-0.5329796075820923,0.151897445321083,10.228644371032717,-0.341156005859375,0.4316126406192779,1.0987098217010498
3997632746.0,-0.5455902218818665,-0.1015489101409912,10.059894561767578,-0.3584968149662018,0.0210933219641447,1.0657185316085815
3997641079.0,-0.5101550817489624,-0.1802444905042648,10.137924194335938,-0.2143143117427826,-0.5642303824424744,1.1614391803741455
3997649412.0,-0.4925662279129028,0.0678161010146141,10.291173934936523,-0.0780465826392173,-0.4092898964881897,1.1955828666687012
3997657745.0,-0.4586402773857116,0.2408934384584427,10.315150260925291,-0.1268160790205001,-0.0892656147480011,1.0466617345809937
3997666078.0,-0.4039570093154907,0.0883160531520843,10.13318920135498,-0.3367247879505157,-0.111985445022583,1.1313680410385132
3997674411.0,-0.4235199689865112,-0.1109479144215583,10.097646713256836,-0.3908732533454895,-0.417127788066864,1.210029125213623
3997682744.0,-0.4700705409049988,-0.0157791711390018,10.19800090789795,-0.2111381292343139,-0.2492777407169342,1.214383602142334
3997691077.0,-0.4994900524616241,0.1860524266958236,10.274872779846191,-0.1994324475526809,0.2339220345020294,1.1555736064910889
3997699410.0,-0.5234736800193787,0.1237084195017814,10.204073905944824,-0.2875710427761078,0.1447588503360748,1.1904857158660889
3997707743.0,-0.5405045747756958,-0.0271736495196819,10.108869552612305,-0.3025809526443481,-0.2559630870819092,1.2145373821258545
3997716076.0,-0.5084741711616516,-0.0104503035545349,10.204038619995115,-0.2212045192718505,-0.365207701921463,1.1551122665405271
3997724409.0,-0.5109490156173706,0.1460968106985092,10.285709381103516,-0.2471773475408554,-0.17709681391716,1.2449413537979126
3997732742.0,-0.4743121564388275,0.1341873407363891,10.226133346557615,-0.2179003059864044,0.0940682813525199,1.160286545753479
3997741075.0,-0.4190349876880646,-0.0598621442914009,10.134841918945312,-0.2465882450342178,-0.2522233426570892,1.172862887382507
3997749408.0,-0.404114156961441,-0.0724511444568634,10.128296852111816,-0.2992767095565796,-0.5283191204071045,1.123760461807251
3997757741.0,-0.4419240951538086,0.140131339430809,10.291467666625977,-0.1924141347408294,-0.1470769345760345,1.2124625444412231
3997766074.0,-0.5442813038825989,0.2025542110204696,10.26457977294922,-0.2528381049633026,0.368704080581665,1.1685340404510498
3997774407.0,-0.5559046268463135,-0.0105361379683017,10.108633995056152,-0.3170529901981354,0.1936564296483993,1.1786774396896362
3997782740.0,-0.5474215745925903,-0.1595230102539062,10.029902458190918,-0.3103676736354828,-0.4154116213321686,1.130522608757019
3997791073.0,-0.5206196904182434,-0.0209077596664428,10.252212524414062,-0.1318108290433883,-0.47153240442276,1.195762038230896
3997799406.0,-0.4839684963226318,0.2517371475696563,10.355671882629396,-0.1881621479988098,-0.2656964063644409,1.2037535905838013
3997807739.0,-0.4400786757469177,0.1672191619873047,10.24213409423828,-0.3373394906520843,-0.0398557521402835,1.09996497631073
3997816072.0,-0.4117677211761474,-0.081241987645626,10.088105201721191,-0.3332155346870422,-0.3940493762493133,1.175526738166809
3997824405.0,-0.3952946066856384,-0.0915561541914939,10.146493911743164,-0.3171554207801819,-0.5507316589355469,1.277753233909607
3997832738.0,-0.4878669083118438,0.1371342688798904,10.27440071105957,-0.1682855039834976,-0.0232321098446846,1.258978009223938
3997841071.0,-0.5392170548439026,0.1718613505363464,10.23880100250244,-0.2296060174703598,0.2723177671432495,1.1981186866760254
3997849404.0,-0.5214277505874634,0.0297130141407251,10.164125442504885,-0.3427184522151947,-0.1309399753808975,1.0716867446899414
3997857737.0,-0.5359339118003845,-0.0512072034180164,10.144691467285156,-0.2945380508899688,-0.4860044717788696,1.1134891510009766
3997866070.0,-0.5401326417922974,0.0857983529567718,10.278563499450684,-0.2954089641571045,-0.2578584849834442,1.1301383972167969
3997874403.0,-0.501042366027832,0.1790928840637207,10.239001274108888,-0.1663132458925247,0.0708874017000198,1.1537292003631592
3997882736.0,-0.4458939135074615,0.0132899824529886,10.113361358642578,-0.3253007531166076,-0.1164423078298568,1.1405889987945557
3997891069.0,-0.396818459033966,-0.0822867304086685,10.118183135986328,-0.2805783450603485,-0.5204043984413147,1.1550867557525637
3997899402.0,-0.4205370247364044,0.0509499721229076,10.248815536499023,-0.1293006539344787,-0.3001219928264618,1.2314939498901367
3997907735.0,-0.5116285681724548,0.2211086750030517,10.31655216217041,-0.1546587347984314,0.1682214587926864,1.2075958251953125
3997916068.0,-0.5336305499076843,0.0754193887114524,10.156915664672852,-0.3244554996490478,0.2337682992219925,1.1496309041976929
3997924401.0,-0.5475143790245056,-0.1620261967182159,10.03822135925293,-0.2731758058071136,-0.1955903023481369,1.2033183574676514
3997932734.0,-0.5441596508026123,-0.1202676519751548,10.152295112609863,-0.1935667842626571,-0.6079795360565186,1.1594154834747314
3997941067.0,-0.5306193232536316,0.1733777672052383,10.287769317626951,-0.1722813248634338,-0.2509938776493072,1.187411904335022
3997949400.0,-0.4702420830726623,0.2030549794435501,10.25844955444336,-0.2480226308107376,-0.0489488057792186,1.0837254524230957
3997957733.0,-0.4197645783424377,-0.014362908899784,10.098905563354492,-0.3611607253551483,-0.2194627821445465,1.2490397691726685
3997966066.0,-0.424428254365921,-0.0997678562998771,10.12246036529541,-0.363184243440628,-0.4640531539916992,1.301446557044983
3997974399.0,-0.4715224206447601,0.0935449972748756,10.24629020690918,-0.2334737777709961,-0.1217188537120819,1.198067545890808
3997982732.0,-0.5074441432952881,0.1900581866502761,10.307719230651855,-0.2014047354459762,0.3012874722480774,1.191049098968506
3997991065.0,-0.5109774470329285,0.052680630236864,10.202150344848633,-0.3152599930763244,0.0799292251467704,1.1282687187194824
3997999398.0,-0.5179447531700134,-0.0420303791761398,10.164912223815918,-0.3921795189380646,-0.3527592122554779,1.102987289428711
3998007731.0,-0.5212849974632263,0.0301846768707036,10.257813453674316,-0.2605736255645752,-0.3923588693141937,1.1135660409927368
3998016064.0,-0.5088749527931213,0.1514684706926345,10.266003608703612,-0.3636196851730346,-0.1515850275754928,1.1112606525421145
3998024397.0,-0.4498637616634369,0.0720362812280654,10.198180198669434,-0.3624158203601837,0.1221414878964424,1.2446085214614868
3998032730.0,-0.4040283262729645,-0.0896608829498291,10.088741302490234,-0.4864143431186676,-0.4863887131214142,1.2027292251586914
3998041063.0,-0.3979198038578033,0.0014091100310906,10.260903358459473,-0.3027602732181549,-0.4157190024852752,1.1533704996109009
3998049396.0,-0.4721377193927765,0.1748512387275695,10.33112335205078,-0.2227157652378082,0.0,1.22017240524292
3998057729.0,-0.530869722366333,0.1177858635783195,10.223773002624512,-0.3395678699016571,0.4194202721118927,1.1668180227279663
3998066062.0,-0.5563554763793945,-0.1350743025541305,10.064987182617188,-0.3862626850605011,-0.0289440881460905,1.1295493841171265
3998074395.0,-0.528752326965332,-0.1465757340192794,10.122810363769531,-0.195743978023529,-0.4477112293243408,1.0854672193527222
3998082728.0,-0.5142965316772461,0.0981942266225814,10.290480613708496,-0.1504836231470108,-0.3681021332740783,1.1370030641555786
3998091061.0,-0.4740618169307709,0.2248567640781402,10.271682739257812,-0.2195652425289154,0.1092319041490554,1.1817768812179563
3998099394.0,-0.4240493774414062,0.0361360907554626,10.163381576538086,-0.3897461891174316,-0.0855771452188491,1.1248362064361572
3998107727.0,-0.4230763614177704,-0.1112696230411529,10.08814811706543,-0.2360351383686065,-0.4952768087387085,1.1329047679901123
3998116060.0,-0.4606788456439972,0.0032903077080845,10.187694549560549,-0.2295035570859909,-0.271946370601654,1.244249939918518
3998124393.0,-0.5291458368301392,0.1720258742570877,10.259895324707031,-0.2496363222599029,0.285381019115448,1.2253721952438354
3998132726.0,-0.5474786162376404,0.0936593264341354,10.207063674926758,-0.2990205883979797,0.1837693303823471,1.1742205619812012
3998141059.0,-0.5212419629096985,-0.0652625411748886,10.0825834274292,-0.2976886630058288,-0.2804502546787262,1.1288065910339355
3998149392.0,-0.5198829174041748,-0.0124745583161711,10.18004035949707,-0.3278622031211853,-0.4474551081657409,1.1746047735214231
3998157725.0,-0.502894937992096,0.1513827741146087,10.24930191040039,-0.1957952231168747,-0.1279943287372589,1.222324013710022
3998166058.0,-0.4553642868995666,0.1145885437726974,10.171578407287598,-0.2581402659416199,0.0967065393924713,1.1743998527526855
3998174391.0,-0.3948870003223419,-0.0696543827652931,10.063920974731444,-0.4026045501232147,-0.3291428983211517,1.1674070358276367
3998182724.0,-0.4098507463932037,-0.0791390538215637,10.18210792541504,-0.2195908278226852,-0.6033177375793457,1.1046524047851562
3998191057.0,-0.4598920345306396,0.1539220213890075,10.256683349609377,-0.1884951591491699,-0.1543001532554626,1.1865665912628174
3998199390.0,-0.5620203018188477,0.1887778341770172,10.220511436462402,-0.1766101419925689,0.1891483217477798,1.3377931118011477
3998207723.0,-0.5486158728599548,-0.0299775656312704,10.115707397460938,-0.3699463605880737,0.1090013682842254,1.1129512786865234
3998216056.0,-0.5220429301261902,-0.1335217952728271,10.054057121276855,-0.2709985971450805,-0.4335465431213379,1.1064709424972534
3998224389.0,-0.5044971704483032,0.045642290264368,10.25178337097168,-0.2221778631210327,-0.4852360785007477,1.1591594219207764
3998232722.0,-0.462216705083847,0.2333829551935196,10.318669319152832,-0.1522254049777984,-0.0756388381123542,1.1442006826400757
3998241055.0,-0.4035920202732086,0.1193594932556152,10.213193893432615,-0.2504303455352783,0.0739354863762855,1.1557527780532837
3998249388.0,-0.3920044004917145,-0.0789101645350456,10.09312629699707,-0.3122887015342712,-0.3458689749240875,1.06430983543396
3998257721.0,-0.4085559546947479,-0.0569934770464897,10.191577911376951,-0.2302463501691818,-0.4680745899677276,1.1391291618347168
3998266054.0,-0.4824163317680359,0.1694651544094085,10.294378280639648,-0.1326561272144317,-0.0076842703856527,1.1432784795761108
3998274387.0,-0.5206982493400574,0.2058442831039428,10.260431289672852,-0.2150571197271347,0.3146580755710602,1.1447898149490356
3998282720.0,-0.5335448384284973,0.0211080387234687,10.125213623046877,-0.4590583145618438,0.0255758129060268,1.0924086570739746
3998291053.0,-0.5285022258758545,-0.0622442848980426,10.143769264221191,-0.3691267073154449,-0.5663051009178162,1.18231463432312
3998299386.0,-0.5231589078903198,0.1111694872379303,10.269972801208496,-0.2767105996608734,-0.2985082864761352,1.2075446844100952
3998307719.0,-0.5025875568389893,0.1637714654207229,10.26801300048828,-0.2781962156295776,0.0017801893409341,1.144405722618103
3998316052.0,-0.4199148118495941,0.0238547306507825,10.123368263244627,-0.3726486563682556,-0.1450406014919281,1.0929080247879028
3998324385.0,-0.4204941689968109,-0.0945248231291771,10.083770751953123,-0.2261992990970611,-0.579983115196228,1.0971728563308716
3998332718.0,-0.4230906665325165,0.0298202019184827,10.222620964050291,-0.2603431046009063,-0.3726102709770202,1.263255596160889
3998341051.0,-0.484390527009964,0.1978476345539093,10.300601959228516,-0.2187967896461486,0.180157721042633,1.2863852977752686
3998349384.0,-0.5354689955711365,0.0414721816778183,10.162458419799805,-0.3529641330242157,0.2829732596874237,1.2179183959960938
3998357717.0,-0.5432941913604736,-0.1643723249435424,10.014860153198242,-0.4628492295742035,-0.2724073529243469,1.102398157119751
3998366050.0,-0.5276222825050354,-0.098559021949768,10.147624015808104,-0.2307586371898651,-0.465718001127243,1.2486299276351929
3998374383.0,-0.5115140080451965,0.1636501103639602,10.287755012512209,-0.1936948597431183,-0.2374183386564254,1.120456337928772
3998382716.0,-0.4771661460399627,0.2266306728124618,10.266032218933104,-0.1562980413436889,0.186048999428749,1.0773731470108032
3998391049.0,-0.4330259561538696,-0.0154358353465795,10.1008939743042,-0.3697158396244049,-0.1769687384366989,1.0885409116744995
3998399382.0,-0.411152571439743,-0.1076216772198677,10.088448524475098,-0.3901560306549072,-0.5232987999916077,1.2183282375335691
3998407715.0,-0.4745196104049682,0.0509353950619697,10.229230880737305,-0.2304768711328506,-0.2511731684207916,1.1320338249206543
3998416048.0,-0.4927593469619751,0.2001508474349975,10.267062187194824,-0.2370341122150421,0.2858164310455322,1.1979649066925049
3998424381.0,-0.5229300260543823,0.081728383898735,10.18531894683838,-0.33505979180336,0.1234734132885932,1.214537262916565
3998432714.0,-0.5080236792564392,-0.0571514815092086,10.149590492248535,-0.3299369513988495,-0.3488658368587494,1.092306137084961
3998441047.0,-0.5027304291725159,0.0248704347759485,10.202264785766602,-0.3582919538021087,-0.4030911922454834,1.1164093017578125
3998449380.0,-0.5051981210708618,0.1565828919410705,10.302618980407717,-0.305603414773941,0.0611027516424655,1.1789591312408447
3998457713.0,-0.4379042088985443,0.1041811555624008,10.161006927490234,-0.3124167919158935,-0.007069528568536,1.0719941854476929
3998466046.0,-0.3956237435340881,-0.061121042817831,10.096473693847656,-0.2910545468330383,-0.4548319578170776,1.132827877998352
3998474379.0,-0.3957739472389221,-0.0240263994783163,10.207815170288086,-0.2533504366874695,-0.5303939580917358,1.1473768949508667
3998482712.0,-0.4875733852386474,0.208476647734642,10.30911350250244,-0.2693080604076385,0.160076156258583,1.1076234579086304
3998491045.0,-0.5384088158607483,0.154265359044075,10.261003494262695,-0.3488914966583252,0.4643988609313965,1.207006812095642
3998499378.0,-0.5462769269943237,-0.0690392404794693,10.0804443359375,-0.4062161445617676,-0.069363348186016,1.1761159896850586
3998507711.0,-0.5146470665931702,-0.1534928530454635,10.127216339111328,-0.2891334593296051,-0.6122058033943176,1.1862848997116089
3998516044.0,-0.4995259344577789,0.0809987932443618,10.291746139526367,-0.1026874631643295,-0.3011721670627594,1.2144348621368408
3998524377.0,-0.4992683827877044,0.2665649354457855,10.349190711975098,-0.1546331346035003,0.0980384871363639,1.1851321458816528
3998532710.0,-0.4408366680145263,0.1114699691534042,10.176185607910156,-0.2906191051006317,-0.0603983625769615,1.1337757110595703
3998541043.0,-0.4358085393905639,-0.1152325272560119,10.050596237182615,-0.3788345754146576,-0.5575706958770752,1.1559576988220217
3998549376.0,-0.4578677713871002,-0.0453776344656944,10.176464080810549,-0.2773509323596954,-0.4307545721530914,1.0853391885757446
3998557709.0,-0.5266280770301819,0.1576772630214691,10.25949478149414,-0.1329634934663772,0.0883563011884689,1.0683568716049194
3998566042.0,-0.5934642553329468,0.1805377602577209,10.23781394958496,-0.2786316871643066,0.3401186764240265,1.1682013273239136
3998574375.0,-0.5699743032455444,-0.0138693628832697,10.10754680633545,-0.3898743093013763,-0.1201563850045204,1.1116706132888794
3998582708.0,-0.5212276577949524,-0.0465149395167827,10.16486930847168,-0.2484324127435684,-0.5603113770484924,1.2169193029403689
3998591041.0,-0.5019794702529907,0.0985659286379814,10.253013610839844,-0.1875218152999878,-0.2851889133453369,1.1714800596237185
3998599374.0,-0.4983314275741577,0.1554384231567382,10.249945640563965,-0.3492500782012939,0.1310040056705474,1.2473491430282593
3998607707.0,-0.4256370663642883,0.0048496276140213,10.120450019836426,-0.3381590843200683,-0.2338579446077346,1.106317162513733
3998616040.0,-0.386160671710968,-0.0935594588518142,10.128412246704102,-0.38502037525177,-0.6425202488899231,1.1780498027801514
3998624373.0,-0.4091497659683227,0.0588822029531002,10.252062797546388,-0.2327821552753448,-0.3970206379890442,1.1773453950881958
3998632706.0,-0.5028377175331116,0.2241557985544204,10.321431159973145,-0.2657476961612701,0.2167604863643646,1.164333462715149
3998641039.0,-0.5543667674064636,0.0745826959609985,10.17142105102539,-0.3019149899482727,0.3546418845653534,1.1708139181137085
3998649372.0,-0.5671417713165283,-0.1635139882564544,9.99059772491455,-0.3428721725940704,-0.345433622598648,1.1761417388916016
3998657705.0,-0.4978378713130951,-0.1253035068511963,10.126472473144531,-0.2102672457695007,-0.6800066828727722,1.1239910125732422
3998666038.0,-0.4909067749977112,0.1735351234674453,10.33935546875,-0.0705928280949592,-0.1934642940759658,1.3050578832626345
3998674371.0,-0.4791474342346191,0.2940818965435028,10.277040481567385,-0.173587679862976,0.1473202854394912,1.0766816139221191
3998682704.0,-0.4041715860366821,0.0600265562534332,10.115951538085938,-0.3238151669502258,-0.1220518425107002,1.0948933362960815
3998691037.0,-0.3929844796657562,-0.1742148995399475,10.045832633972168,-0.3887728750705719,-0.6083124279975891,1.1387193202972412
3998699370.0,-0.4063100814819336,-0.019284063950181,10.211856842041016,-0.1537366211414337,-0.3632867038249969,1.165434718132019
3998707703.0,-0.5024657845497131,0.2155509293079376,10.296674728393556,-0.130427673459053,0.2574870884418487,1.144354224205017
3998716036.0,-0.5328221917152405,0.1726837158203125,10.230632781982422,-0.3349060714244842,0.2790798544883728,1.1899988651275637
3998724369.0,-0.5050622224807739,-0.0122242085635662,10.121788024902344,-0.3246091604232788,-0.2713827788829803,1.1408451795578003
3998732702.0,-0.4959423542022705,-0.0350131653249263,10.175190925598145,-0.3122119009494781,-0.5051895380020142,1.1254254579544067
3998741035.0,-0.4994758665561676,0.14607535302639,10.25270652770996,-0.2114455103874206,-0.1256890445947647,1.166997313499451
3998749368.0,-0.4875449240207672,0.1745293736457824,10.234888076782228,-0.3089076578617096,0.2286198586225509,1.2043684720993042
3998757701.0,-0.4074330925941467,-0.0198849029839038,10.146608352661133,-0.4148481488227844,-0.1313754022121429,1.1492979526519775
3998766034.0,-0.3813037574291229,-0.1236655041575431,10.147530555725098,-0.2508914172649383,-0.6054949164390564,1.0982743501663208
3998774367.0,-0.4238487780094147,0.1050611808896064,10.292890548706056,-0.161215990781784,-0.2359839677810669,1.2384098768234253
3998782700.0,-0.5227941274642944,0.2636108696460724,10.285330772399902,-0.2242782264947891,0.3204980790615082,1.2079545259475708
3998791033.0,-0.5801742672920227,0.0375023558735847,10.16578483581543,-0.3872615694999695,0.4616837501525879,1.1814948320388794
3998799366.0,-0.5387879014015198,-0.197096586227417,10.00521755218506,-0.2650048732757568,-0.3580101728439331,1.1710957288742063
3998807699.0,-0.5085814595222473,-0.1335864961147308,10.187615394592283,-0.105274498462677,-0.7347443103790283,1.1516544818878174
3998816032.0,-0.4952342212200165,0.1990564614534378,10.340850830078123,-0.0603727512061595,-0.1063759177923202,1.200500726699829
3998824365.0,-0.5045473575592041,0.2730242609977722,10.266561508178713,-0.1763283908367157,0.3262869119644165,1.2031646966934204
3998832698.0,-0.4734612107276916,0.0216301511973142,10.129091262817385,-0.3737629055976867,-0.0515358410775661,1.163590669631958
3998841031.0,-0.4468309581279754,-0.1696225106716156,10.03359317779541,-0.3341120779514313,-0.6931724548339844,1.1062403917312622
3998849364.0,-0.4404148459434509,-0.0254927314817905,10.18856716156006,-0.2463064640760421,-0.4149506092071533,1.220530986785889
3998857697.0,-0.5501394867897034,0.1970179826021194,10.310480117797852,-0.1610367000102996,0.1213474348187446,1.1673558950424194
3998866030.0,-0.5650244951248169,0.1496875435113906,10.180469512939451,-0.2905678749084472,0.2719847559928894,1.145378828048706
3998874363.0,-0.5555040836334229,-0.0736671313643455,10.10743236541748,-0.3974560797214508,-0.4022971391677856,1.1424589157104492
3998882696.0,-0.5111349821090698,-0.0822576954960823,10.13129425048828,-0.3262997269630432,-0.6990125179290771,1.2379487752914429
3998891029.0,-0.5139102935791016,0.1323278844356537,10.256017684936523,-0.094260387122631,-0.3186410963535309,1.1602609157562256
3998899362.0,-0.5100764036178589,0.1803660839796066,10.213665962219238,-0.2738673686981201,0.1761875003576278,1.1348258256912231
3998907695.0,-0.4566088914871216,0.0157219488173723,10.106574058532717,-0.3134670257568359,-0.1183633878827095,1.1965560913085938
3998916028.0,-0.4122684001922607,-0.1249601691961288,10.09221076965332,-0.2846510112285614,-0.6660469174385071,1.2270883321762085
3998924361.0,-0.428712785243988,0.0829944387078285,10.213687896728516,-0.2603174448013305,-0.3365710079669952,1.2230156660079956
3998932694.0,-0.5199043154716492,0.2333685904741287,10.275344848632812,-0.2357534319162368,0.1963459253311157,1.309182047843933
3998941027.0,-0.556641697883606,0.0953188836574554,10.155299186706545,-0.4093410670757293,0.1289292424917221,1.2054699659347534
3998949360.0,-0.5265350937843323,-0.1902870833873748,10.05221176147461,-0.3338046967983246,-0.373557984828949,1.1881290674209597
3998957693.0,-0.4687758684158325,-0.1502454727888107,10.139047622680664,-0.2512500286102295,-0.6660725474357605,1.0519894361495972
3998966026.0,-0.4552498459815979,0.1870396882295608,10.329949378967283,-0.0631390884518623,-0.3771951794624328,1.1255022287368774
3998974359.0,-0.4540052115917206,0.3099325895309448,10.281639099121094,-0.1214370802044868,0.1881493479013443,1.1416391134262085
3998982692.0,-0.4207803010940552,0.0663068518042564,10.167000770568848,-0.3803969621658325,-0.0157271400094032,1.212027072906494
3998991025.0,-0.3875909745693207,-0.1866031140089035,10.077640533447266,-0.3976866006851196,-0.617661714553833,1.136183500289917
3998999358.0,-0.4048509001731872,-0.0460929200053215,10.253021240234377,-0.2250978797674179,-0.4085982143878937,1.0279887914657593
3999007691.0,-0.4719445705413818,0.209549680352211,10.321431159973145,-0.0446968376636505,0.2510066926479339,1.207570195198059
3999016024.0,-0.5073797702789307,0.1796722561120987,10.25509548187256,-0.2440268099308014,0.3953429162502289,1.1754755973815918
3999024357.0,-0.5349682569503784,-0.022366939112544,10.132596015930176,-0.3658736944198608,-0.170360267162323,1.2198137044906616
3999032690.0,-0.4748629331588745,-0.1009552255272865,10.1675443649292,-0.341949999332428,-0.6626145839691162,1.15321683883667
3999041023.0,-0.4934388697147369,0.1033800393342971,10.271568298339844,-0.1494846642017364,-0.3313457369804382,1.1022957563400269
3999049356.0,-0.4837539196014404,0.1768039762973785,10.221405029296877,-0.186702162027359,0.1607165187597274,1.239229440689087
3999057689.0,-0.4403220117092132,0.0272022746503353,10.123862266540527,-0.2372646629810333,0.0190954115241765,1.2199419736862185
3999066022.0,-0.4310804009437561,-0.1369197219610214,10.096009254455566,-0.2816029191017151,-0.4031424522399902,1.2639729976654053
3999074355.0,-0.4096002578735351,0.0385969839990139,10.2433500289917,-0.225200355052948,-0.285240113735199,1.1719920635223389
3999082688.0,-0.5134882926940918,0.2010235041379928,10.300773620605469,-0.2383148223161697,0.2012894451618194,1.131393551826477
3999091021.0,-0.5620417594909668,0.1174854487180709,10.156686782836914,-0.2555275857448578,0.4711354076862335,1.239793062210083
3999099354.0,-0.575052797794342,-0.137992650270462,10.043821334838867,-0.4008884131908417,-0.1361396461725235,1.0805493593215942
3999107687.0,-0.5528289675712585,-0.1830487251281738,10.153661727905272,-0.2054005265235901,-0.7429152727127075,1.1965559720993042
3999116020.0,-0.5221360921859741,0.1530282348394394,10.320651054382324,-0.0611411780118942,-0.3718674480915069,1.102731227874756
3999124353.0,-0.5352758169174194,0.3276429772377014,10.283843040466309,-0.1171338930726051,0.2132256925106048,1.1050108671188354
3999132686.0,-0.4958279132843017,0.141969621181488,10.153568267822266,-0.331115186214447,0.0524963699281215,1.2211971282958984
3999141019.0,-0.4540197253227234,-0.171382337808609,10.082240104675291,-0.4619526863098144,-0.5744760632514954,1.1132842302322388
3999149352.0,-0.406932383775711,-0.0799044072628021,10.18142795562744,-0.2171830832958221,-0.531572163105011,1.143509030342102
3999157685.0,-0.5017361640930176,0.2198712527751922,10.309564590454102,-0.0888813883066177,0.0169694293290376,1.1927138566970823
3999166018.0,-0.5362487435340881,0.2688899934291839,10.216992378234863,-0.2221266329288482,0.4534615874290466,1.1528582572937012
3999174351.0,-0.5504470467567444,0.052594855427742,10.13150119781494,-0.4499140083789825,-0.0854746997356414,1.1793946027755735
3999182684.0,-0.5144181847572327,-0.1134870052337646,10.15278148651123,-0.4503494501113891,-0.6647661924362183,1.033905863761902
3999191017.0,-0.4723308384418487,0.0846324414014816,10.25453758239746,-0.2954345941543579,-0.4998618066310882,1.145814299583435
3999199350.0,-0.4726169407367706,0.2060161828994751,10.279973030090332,-0.2453843355178833,0.107336439192295,1.178344488143921
3999207683.0,-0.4519883990287781,0.0920285955071449,10.141472816467283,-0.3666421473026275,0.1634572595357895,1.1142576932907104
3999216016.0,-0.4205513894557953,-0.1063913851976394,10.108734130859377,-0.4071894288063049,-0.4764759838581085,1.2271651029586792
3999224349.0,-0.3889215290546417,-0.0180680807679891,10.181199073791504,-0.3652077317237854,-0.5756030082702637,1.1675351858139038
3999232682.0,-0.4377754330635071,0.2247995436191558,10.348475456237791,-0.2398004531860351,-0.037038180977106,1.1906903982162476
3999241015.0,-0.4996333420276642,0.1779128015041351,10.251447677612305,-0.4000687301158905,0.3673465847969055,1.2413554191589355
3999249348.0,-0.5123727917671204,-0.0976649299263954,10.119148254394531,-0.4835198819637298,-0.0310700666159391,1.156520962715149
3999257681.0,-0.4685040712356567,-0.2528243958950043,10.11325454711914,-0.3299881815910339,-0.6165602207183838,1.128217339515686
3999266014.0,-0.4495991468429565,0.0143123911693692,10.283778190612791,-0.1343210488557815,-0.536618173122406,1.154343843460083
3999274347.0,-0.4710361957550049,0.2899619936943054,10.338339805603027,-0.1198233813047409,0.1208351477980613,1.1456607580184937
3999282680.0,-0.4659004211425781,0.1981766670942306,10.186528205871582,-0.2752762138843536,0.2538498938083648,1.1235556602478027
3999291013.0,-0.4684041440486908,-0.1284150928258896,10.09475040435791,-0.3958167433738708,-0.2498156130313873,1.2288812398910522
3999299346.0,-0.4323680996894836,-0.2095430344343185,10.119513511657717,-0.3757351636886596,-0.6785467267036438,1.051502704620361
3999307679.0,-0.4343921542167663,0.0870286375284195,10.26138973236084,-0.1331683993339538,-0.1413137465715408,1.1665618419647217
3999316012.0,-0.5090034604072571,0.2239412069320678,10.27538776397705,-0.1028667613863945,0.3339456021785736,1.205751657485962
3999324345.0,-0.5391026139259338,0.1107975393533706,10.15369701385498,-0.3136463165283203,0.2266475856304168,1.094867706298828
3999332678.0,-0.5548890829086304,-0.1226070597767829,10.12783908843994,-0.3831377029418945,-0.435774952173233,1.2409199476242063
3999341011.0,-0.4872732758522033,-0.0353925302624702,10.187236785888672,-0.4232752025127411,-0.6234248280525208,1.1561368703842163
3999349344.0,-0.5007417798042297,0.1623982191085815,10.3006591796875,-0.2160048484802246,-0.0513821579515934,1.1982468366622925
3999357677.0,-0.5044971704483032,0.142942413687706,10.162251472473145,-0.2003801465034485,0.3220605850219726,1.1366701126098633
3999366010.0,-0.477716714143753,-0.0590824000537395,10.130478858947754,-0.3323959112167358,-0.1121391132473945,1.1099799871444702
3999374343.0,-0.4490768313407898,-0.1185366511344909,10.132767677307127,-0.4122610688209533,-0.608363687992096,1.2416883707046509
3999382676.0,-0.4325681924819946,0.1222778484225273,10.236011505126951,-0.2355484962463379,-0.3672056496143341,1.2211971282958984
3999391009.0,-0.5576428174972534,0.2240985631942749,10.28066635131836,-0.3147477507591247,0.2053877562284469,1.1573665142059326
3999399342.0,-0.5744448304176331,0.0574945509433746,10.173852920532228,-0.3241481184959411,0.2343574315309524,1.272553563117981
3999407675.0,-0.5431725978851318,-0.1632064133882522,10.072333335876465,-0.3275291919708252,-0.436364084482193,1.092562198638916
3999416008.0,-0.497980922460556,-0.1294092386960983,10.167444229125977,-0.2038636952638626,-0.6689925789833069,1.1685086488723757
3999424341.0,-0.4870012998580932,0.1929336339235305,10.255882263183594,-0.1414674222469329,-0.3742495775222778,1.2824662923812866
3999432674.0,-0.5047260522842407,0.3078869581222534,10.279043197631836,-0.1705651730298996,0.0912251025438308,1.141485571861267
3999441007.0,-0.4658145904541015,0.0613570883870124,10.213665962219238,-0.3343682289123535,0.0707849413156509,1.1911516189575195
3999449340.0,-0.4302077293395996,-0.1982839554548263,10.106502532958984,-0.4305497109889984,-0.5436621308326721,1.1827244758605957
3999457673.0,-0.3924121260643005,-0.0679949223995208,10.196592330932615,-0.1498432606458664,-0.4748110771179199,1.119303584098816
3999466006.0,-0.4619807004928589,0.1937348246574401,10.290523529052734,-0.0213110446929931,-0.0587334372103214,1.056523084640503
3999474339.0,-0.5425359606742859,0.2632389366626739,10.267827033996582,-0.1130356192588806,0.3912189900875091,1.1508090496063232
3999482672.0,-0.5328295826911926,0.0166446659713983,10.17383861541748,-0.395432561635971,-0.0893168300390243,1.2230924367904663
3999491005.0,-0.4788112938404083,-0.0982657596468925,10.13741683959961,-0.3751204907894134,-0.6326972246170044,1.1746560335159302
3999499338.0,-0.4335123598575592,0.0553558506071567,10.193645477294922,-0.3606996834278106,-0.4417687356472015,1.1241446733474731
3999507671.0,-0.4676600396633148,0.2145852893590927,10.232048988342283,-0.1355761289596557,0.0522658452391624,1.146429181098938
3999516004.0,-0.4662509262561798,0.1116058081388473,10.21115493774414,-0.2570772469043731,0.1560675352811813,1.23947274684906
3999524337.0,-0.4322462975978851,-0.0830230489373207,10.17696475982666,-0.3968669772148132,-0.3286050260066986,1.219711422920227
3999532670.0,-0.4239201843738556,-0.0418580695986747,10.164754867553713,-0.3331643640995025,-0.4744524657726288,1.1004514694213867
3999541003.0,-0.4185128509998321,0.1949507296085357,10.227285385131836,-0.1758673340082168,-0.1246388703584671,1.1808803081512451
3999549336.0,-0.532278835773468,0.2264804691076278,10.255367279052734,-0.3207414448261261,0.3118405044078827,1.200167894363403
3999557669.0,-0.5327077507972717,-0.0387541800737381,10.167537689208984,-0.3330875039100647,0.0842067971825599,1.1925859451293943
3999566002.0,-0.5559976100921631,-0.2007016241550445,10.096667289733888,-0.3223038911819458,-0.3551413714885711,1.1404097080230713
3999574335.0,-0.4888539016246795,-0.019992196932435,10.134119033813477,-0.1163398548960685,-0.5487593412399292,1.173682689666748
3999582668.0,-0.4602425396442413,0.2517156898975372,10.223200798034668,-0.1415954828262329,-0.1412881165742874,1.1101337671279907
3999591001.0,-0.526155948638916,0.2537542581558227,10.243364334106444,-0.2665160894393921,0.1934771239757537,1.1115168333053589
3999599334.0,-0.4665227234363556,-0.0468153581023216,10.181678771972656,-0.438029021024704,-0.1187219768762588,1.1655117273330688
3999607667.0,-0.4472028911113739,-0.1795148998498916,10.085894584655762,-0.3600337207317352,-0.4703285992145538,1.148452639579773
3999616000.0,-0.4450641870498657,-0.0083688264712691,10.157859802246094,-0.1687209755182266,-0.379679799079895,1.2681734561920166
3999624333.0,-0.5163995027542114,0.2278323471546173,10.2322416305542,-0.2208203077316284,0.0466819405555725,1.2536503076553345
3999632666.0,-0.574959933757782,0.1689718216657638,10.268206596374512,-0.2042222917079925,0.2895049154758453,1.1473512649536133
3999640999.0,-0.5405689477920532,-0.0720076709985733,10.184231758117676,-0.4426908195018768,-0.3203060030937195,1.258670687675476
3999649332.0,-0.5196182727813721,-0.1098175942897796,10.144855499267578,-0.4188696146011352,-0.5133349299430847,1.248860478401184
3999657665.0,-0.4717442095279693,0.0795970857143402,10.168831825256348,-0.1999703198671341,-0.3041433990001678,1.117817997932434
3999665998.0,-0.5161920785903931,0.1670117229223251,10.23048973083496,-0.2867001593112945,0.0707080960273742,1.087721347808838
3999674331.0,-0.4244711697101593,0.0194700378924608,10.200777053833008,-0.3719443082809448,-0.0076586571522057,1.2838752269744873
3999682664.0,-0.4330475330352783,-0.1453531384468078,10.153032302856444,-0.3491731882095337,-0.5094414949417114,1.197811245918274
3999690997.0,-0.4263952672481537,-0.0022602984681725,10.17304515838623,-0.2761214673519134,-0.37568399310112,1.06195330619812
3999699330.0,-0.4905991852283478,0.2350495755672454,10.235968589782717,-0.2026086002588272,0.0548272654414176,1.209978103637695
3999707663.0,-0.5705894231796265,0.1587716490030288,10.227571487426758,-0.3292197287082672,0.1989073306322097,1.2624101638793943
3999715996.0,-0.4989179372787475,-0.1448236107826233,10.146493911743164,-0.4154372811317444,-0.1421333849430084,1.1656910181045532
3999724329.0,-0.4984173774719238,-0.2390626668930053,10.147466659545898,-0.2102159857749939,-0.4723264873027801,1.1617207527160645
3999732662.0,-0.499325692653656,0.1114200502634048,10.230704307556152,-0.0406241752207279,-0.2593441307544708,1.0715073347091677
3999740995.0,-0.4923301935195923,0.3370276689529419,10.264107704162598,-0.0840146914124488,0.0676600039005279,1.08147132396698
3999749328.0,-0.4425607025623321,0.1800370514392852,10.229559898376465,-0.3560122549533844,-0.0862431228160858,1.1855419874191284
3999757661.0,-0.3944292068481445,-0.1772975176572799,10.180097579956056,-0.4555747509002685,-0.5384624600410461,1.0864150524139404
3999765994.0,-0.3953662514686584,-0.1756094545125961,10.164304733276367,-0.2958956360816955,-0.4906662702560425,1.2345677614212036
3999774327.0,-0.4700562357902527,0.1584068536758422,10.223286628723145,-0.1257146596908569,0.1053129211068153,1.2110538482666016
3999782660.0,-0.534746527671814,0.2708066403865814,10.21714210510254,-0.2005594819784164,0.1748811900615692,1.1943789720535278
3999790993.0,-0.5187670588493347,0.0477595329284668,10.182050704956056,-0.361058235168457,-0.1443105936050415,1.1943020820617676
3999799326.0,-0.4905348122119903,-0.1387365460395813,10.2083158493042,-0.4240436553955078,-0.5798294544219971,1.1258864402770996
3999807659.0,-0.5250616073608398,0.0211438033729791,10.187637329101562,-0.3043483197689056,-0.2846766114234924,1.2364118099212646
3999815992.0,-0.5326007008552551,0.2072679251432418,10.200920104980469,-0.2028134912252426,0.1275716722011566,1.112490177154541
3999824325.0,-0.4730389714241028,0.0995890349149704,10.137008666992188,-0.3333436548709869,-0.0196717325598001,1.1555989980697632
3999832658.0,-0.4086562097072601,-0.1340800374746322,10.151578903198242,-0.2898250520229339,-0.558134138584137,1.079755425453186
3999840991.0,-0.3765327334403991,-0.0651764720678329,10.21775722503662,-0.2448208481073379,-0.5574681758880615,1.163693070411682
3999849324.0,-0.4532184302806854,0.2467802315950393,10.321423530578612,-0.1050695851445198,0.1575147211551666,1.1718382835388184
3999857657.0,-0.5393672585487366,0.2406502515077591,10.202093124389648,-0.3175652921199798,0.5372457504272461,1.104396104812622
3999865990.0,-0.5285167098045349,-0.0898110792040824,10.049844741821287,-0.4650264382362366,0.0070054931566119,1.17936909198761
3999874323.0,-0.4881672263145447,-0.2453067451715469,10.136072158813477,-0.2956651151180267,-0.7060819864273071,1.0543972253799438
3999882656.0,-0.5432941913604736,0.0408641919493675,10.273850440979004,-0.1141114085912704,-0.2805014550685882,1.1407939195632937
3999890989.0,-0.5509191155433655,0.3238950371742248,10.344863891601562,-0.1465134173631668,0.1815921068191528,1.2508326768875122
3999899322.0,-0.5295467376708984,0.2056228369474411,10.10251808166504,-0.3947665691375732,0.1041346564888954,1.1945326328277588
3999907655.0,-0.4165744185447693,-0.1301173716783523,10.127731323242188,-0.4600060284137726,-0.6585419774055481,1.1898452043533323
3999915988.0,-0.4355081021785736,-0.121856190264225,10.201621055603027,-0.3420268893241882,-0.8273910284042358,1.2432509660720823
3999924321.0,-0.4590623080730438,0.1587358862161636,10.323433876037598,-0.1503043323755264,-0.0882410258054733,1.157827377319336
3999932654.0,-0.5173723101615906,0.2574236690998077,10.211685180664062,-0.2349593639373779,0.4778463244438171,1.214588642120361
3999940987.0,-0.5088675618171692,0.0434463694691658,10.111394882202148,-0.3071658909320831,0.022783862426877,1.2123346328735352
3999949320.0,-0.5206626057624817,-0.1189803928136825,10.136773109436035,-0.3902072310447693,-0.6389470100402832,1.1216472387313845
3999957653.0,-0.5424002408981323,0.0605270192027092,10.304235458374023,-0.2643645107746124,-0.4005297720432281,1.1357736587524414
3999965986.0,-0.5673706531524658,0.1942282915115356,10.269028663635254,-0.2624434232711792,0.1176077648997306,1.125758409500122
3999974319.0,-0.4798344671726227,0.0303925555199384,10.022785186767578,-0.4428189396858215,0.15800142288208,1.1701991558074951
3999982652.0,-0.4011099636554718,-0.1358110308647155,10.049722671508787,-0.36697518825531,-0.5467615127563477,1.1291908025741575
3999990985.0,-0.420758843421936,0.0110726011916995,10.267534255981444,-0.2264042049646377,-0.5329297184944153,1.2486042976379397
3999999318.0,-0.4797697961330414,0.207990363240242,10.370728492736816,-0.2642108201980591,0.0998314768075943,1.1121315956115725
4000007651.0,-0.5201261043548584,0.0855979099869728,10.154054641723633,-0.3065767884254455,0.3884782791137695,1.234209060668945
4000015984.0,-0.4908710122108459,-0.1472841948270797,9.99221420288086,-0.3728664219379425,-0.2767361998558044,1.086363673210144
4000024317.0,-0.5270858407020569,-0.1328855156898498,10.194138526916504,-0.1715641468763351,-0.4870803356170654,0.980961263179779
4000032650.0,-0.5192105770111084,0.148607462644577,10.377552032470703,-0.0814276561141014,-0.2746102213859558,1.1927140951156616
4000040983.0,-0.4701492190361023,0.2338979691267013,10.295215606689451,-0.2952040433883667,0.1777243614196777,1.1435346603393557
4000049316.0,-0.3941001892089844,0.0129466457292437,10.053750038146973,-0.2764544188976288,-0.0589895844459533,1.1319057941436768
4000057649.0,-0.4195857644081116,-0.1155184134840965,10.050294876098633,-0.3802176713943481,-0.5881540179252625,1.2629992961883545
4000065982.0,-0.4544701874256134,0.0084546599537134,10.311216354370115,-0.2123932391405105,-0.3344706594944,1.200244665145874
4000074315.0,-0.4993399679660797,0.1680631935596466,10.354405403137209,-0.1718459129333496,0.2266988158226013,1.129370093345642
4000082648.0,-0.4977734982967376,0.0712852329015731,10.158517837524414,-0.2384941130876541,0.1971655637025833,1.2263455390930176
4000090981.0,-0.5375146865844727,-0.0234470199793577,10.0768461227417,-0.3702025413513183,-0.4950719177722931,1.0610568523406982
4000099314.0,-0.5329869389533997,0.0458926409482955,10.257155418395996,-0.3006342649459839,-0.5050614476203918,1.1002721786499023
4000107647.0,-0.5162421464920044,0.1238371729850769,10.30908489227295,-0.2723817527294159,-0.0809922143816948,1.2458122968673706
4000115980.0,-0.4117249846458435,0.0359931103885173,10.132159233093262,-0.2710241973400116,0.0082349758595228,1.194455862045288
4000124313.0,-0.3966465890407562,-0.0638033598661422,10.031147003173828,-0.2867513298988342,-0.404628038406372,1.1660752296447754
4000132646.0,-0.4235626459121704,0.0036338518839329,10.20138454437256,-0.2521209418773651,-0.4860813617706299,1.1906137466430664
4000140979.0,-0.4803133904933929,0.1656741499900818,10.349427223205566,-0.3161821067333221,0.1127154380083084,1.170967698097229
4000149312.0,-0.5066646933555603,0.1284652799367904,10.269128799438477,-0.35478276014328,0.2870202958583832,1.1883594989776611
4000157645.0,-0.5326722264289856,-0.0689033344388008,10.025582313537598,-0.372379720211029,-0.0772525370121002,1.1967097520828247
4000165978.0,-0.5670487880706787,-0.1056403368711471,10.09305477142334,-0.2073728442192077,-0.4775517880916595,1.09399676322937
4000174311.0,-0.5651960968971252,0.1024788245558738,10.260982513427734,-0.1929520219564438,-0.0388824082911014,1.1046780347824097
4000182644.0,-0.4906707108020782,0.198512852191925,10.281524658203123,-0.1341673582792282,0.0352579951286315,1.1681755781173706
4000190977.0,-0.4347640872001648,0.0615216009318828,10.176872253417969,-0.2778632044792175,-0.2950247824192047,1.156059980392456
4000199310.0,-0.4219605028629303,-0.0450056865811347,10.13070011138916,-0.2561423778533935,-0.4691503942012787,1.0841609239578247
4000207643.0,-0.4589836299419403,0.0514575503766536,10.254423141479492,-0.2897738218307495,-0.1334245502948761,1.1346465349197388
4000215976.0,-0.490642100572586,0.1696296632289886,10.25661849975586,-0.2075521200895309,0.2358430474996566,1.2068016529083252
4000224309.0,-0.5241600871086121,0.0615502446889877,10.23264980316162,-0.3367759585380554,-0.0248458087444305,1.1855676174163818
4000232642.0,-0.5489094257354736,-0.0330606810748577,10.122617721557615,-0.3563452064990997,-0.306192547082901,1.1247849464416504
4000240975.0,-0.5658971667289734,0.0614214614033699,10.19107723236084,-0.2680529952049255,-0.1862154901027679,1.1382325887680054
4000249308.0,-0.535497784614563,0.2100146561861038,10.247413635253906,-0.2497131526470184,0.0768042802810669,1.1980674266815186
4000257641.0,-0.4887183010578155,0.0721291080117225,10.184074401855469,-0.4341868758201599,-0.1883158534765243,1.1419466733932495
4000265974.0,-0.4044002890586853,-0.1098533645272255,10.154576301574709,-0.3702793717384338,-0.4847237467765808,1.1053694486618042
4000274307.0,-0.3840863406658172,-0.0419517308473587,10.173946380615234,-0.2453075349330902,-0.3990953862667084,1.0894631147384644
4000282640.0,-0.4791403412818908,0.1608531326055526,10.272941589355469,-0.2462040185928344,0.1411728411912918,1.1085200309753418
4000290973.0,-0.5458550453186035,0.1154327690601348,10.19589138031006,-0.3247884809970855,0.2503150999546051,1.1384886503219604
4000299306.0,-0.5422999262809753,-0.0938739106059074,10.08633804321289,-0.3759401142597198,-0.1293262690305709,1.1202512979507446
4000307639.0,-0.5287095904350281,-0.0947110131382942,10.122196197509766,-0.1901600658893585,-0.4965575337409973,1.2409968376159668
4000315972.0,-0.5208342671394348,0.1333862096071243,10.309249877929688,-0.1882389932870865,-0.1825782507658004,1.1658703088760376
4000324305.0,-0.5123366713523865,0.2183548361063003,10.267455101013184,-0.2144424021244049,-0.0477193221449852,1.2053931951522827
4000332638.0,-0.4170965850353241,-0.0505348369479179,10.153997421264648,-0.2779144644737243,-0.1146749258041381,1.2109770774841309
4000340971.0,-0.4068109095096588,-0.1101039275527,10.098212242126465,-0.3675130605697632,-0.5102611780166626,1.16448712348938
4000349304.0,-0.4315524697303772,0.086263284087181,10.250360488891602,-0.1068881973624229,-0.1244851723313331,1.1572383642196655
4000357637.0,-0.4916792809963226,0.1991136819124221,10.26254177093506,-0.1921580135822296,0.2148650288581848,1.2009106874465942
4000365970.0,-0.528516411781311,0.0491257272660732,10.149547576904297,-0.3884654939174652,0.053879540413618,1.0413084030151367
4000374303.0,-0.5119720101356506,-0.0673799812793731,10.11656665802002,-0.3688193559646606,-0.4877462685108185,1.2139993906021118
4000382636.0,-0.5548460483551025,0.0535819455981254,10.252191543579102,-0.3268888592720032,-0.3835731446743011,1.1821095943450928
4000390969.0,-0.5217571258544922,0.1579133868217468,10.215447425842283,-0.2492265105247497,0.1017781570553779,1.274423360824585
4000399302.0,-0.4437265992164612,0.0183685012161731,10.095937728881836,-0.2630325853824615,-0.0121155343949794,1.2352849245071411
4000407635.0,-0.3923906683921814,-0.0646330863237381,10.075458526611328,-0.4429470002651214,-0.5423558354377747,1.1977089643478394
4000415968.0,-0.4278402924537658,0.0669430941343307,10.29765510559082,-0.2377769500017166,-0.4161032736301422,1.198528528213501
4000424301.0,-0.4575029909610748,0.1681776493787765,10.292025566101074,-0.1938485205173492,0.1380735337734222,1.2680453062057495
4000432634.0,-0.4900269508361816,0.0316584818065166,10.137466430664062,-0.3108799457550049,0.2291321158409118,1.1997835636138916
4000440967.0,-0.5552608966827393,-0.1271489411592483,10.017635345458984,-0.3428977727890014,-0.2579865753650665,1.212821125984192
4000449300.0,-0.5632364153862,-0.0253642313182353,10.17527675628662,-0.1915688663721084,-0.3208695352077484,1.106547713279724
4000457633.0,-0.5586085319519043,0.1410397589206695,10.352545738220217,-0.1915176063776016,0.0174561012536287,1.1405377388000488
4000465966.0,-0.4667088687419891,0.1671690344810485,10.27811336517334,-0.2846510112285614,-0.0411876924335956,1.1773455142974854
4000474299.0,-0.4440055787563324,-0.0207647029310464,10.103734016418455,-0.3212025165557861,-0.2660294473171234,1.1905879974365234
4000482632.0,-0.412869244813919,-0.0562499575316906,10.159876823425291,-0.3112897872924804,-0.4658716917037964,1.165255427360535
4000490965.0,-0.4612582325935364,0.0913847237825393,10.26179027557373,-0.1819379031658172,-0.1359347403049469,1.1630271673202517
4000499298.0,-0.5263277888298035,0.1409112066030502,10.241089820861816,-0.2701789736747741,0.2636089026927948,1.1640005111694336
4000507631.0,-0.496972382068634,0.0301206223666667,10.133346557617188,-0.3052704632282257,-0.0706184431910514,1.269556760787964
4000515964.0,-0.5208342671394348,-0.0314295925199985,10.135156631469728,-0.261418879032135,-0.278401106595993,1.1083662509918213
4000524297.0,-0.5519205331802368,0.0995818823575973,10.275137901306152,-0.2468955963850021,-0.2230999767780304,1.095866560935974
4000532630.0,-0.5446746945381165,0.124502383172512,10.265695571899414,-0.2339347749948501,0.0064163655042648,1.276574969291687
4000540963.0,-0.4750345945358276,4.29170577262e-05,10.108712196350098,-0.3040153384208679,-0.0810178220272064,1.1503736972808838
4000549296.0,-0.4047220349311828,-0.042959488928318,10.10173797607422,-0.2407481968402862,-0.6336705684661865,1.0940991640090942
4000557629.0,-0.4052228629589081,0.0799616277217865,10.24453067779541,-0.2795025110244751,-0.4085982739925384,1.1772173643112185
4000565962.0,-0.4797985851764679,0.1704524457454681,10.305658340454102,-0.300378143787384,0.2568979859352112,1.1718641519546509
4000574295.0,-0.5021224021911621,0.043489284813404,10.151286125183104,-0.3260179758071899,0.1508806347846985,1.130983591079712
4000582628.0,-0.5205052495002747,-0.1253035068511963,10.048320770263672,-0.2271982729434967,-0.3625950813293457,1.1065733432769775
4000590961.0,-0.5660759806632996,-0.0086835511028766,10.19687843322754,-0.1395719647407531,-0.4709433019161224,1.2348238229751587
4000599294.0,-0.535061240196228,0.1935702413320541,10.283563613891602,-0.1391621381044387,-0.0207219179719686,1.1623611450195312
4000607627.0,-0.4592409431934356,0.1399955600500106,10.183917045593262,-0.2727659940719604,-0.1207711100578308,1.162002444267273
4000615960.0,-0.384737104177475,-0.048710860311985,10.12189483642578,-0.2726635336875915,-0.4150530695915222,1.1647688150405884
4000624293.0,-0.4322677552700043,-0.0237545911222696,10.156829833984377,-0.2867257297039032,-0.3422317802906036,1.1735035181045532
4000632626.0,-0.4484473764896393,0.1461110860109329,10.248586654663086,-0.1957951933145523,0.0680186003446579,1.1885900497436523
4000640959.0,-0.4789257645606994,0.1345235109329223,10.207249641418455,-0.1901856809854507,0.0740891695022583,1.2191991806030271
4000649292.0,-0.5155125260353088,-0.0008583411690779,10.182551383972168,-0.4020666480064392,-0.3531434535980224,1.1985796689987185
4000657625.0,-0.5392170548439026,-0.0198062229901552,10.213580131530762,-0.2620593011379242,-0.2956395149230957,1.147709846496582
4000665958.0,-0.5644451379776001,0.1228572279214859,10.26505184173584,-0.2724329829216003,-0.0035603786818683,1.225039005279541
4000674291.0,-0.5495529174804688,0.1259186416864395,10.185233116149902,-0.3211768567562103,-0.0419561117887496,1.157520055770874
4000682624.0,-0.4905488789081573,-0.0467364676296711,10.076273918151855,-0.3828559517860412,-0.2704350650310516,1.0902315378189087
4000690957.0,-0.4177617132663727,-0.0574871301651001,10.156750679016112,-0.2659269869327545,-0.6131022572517395,1.2262173891067505
4000699290.0,-0.4056161046028137,0.1739645004272461,10.298934936523438,-0.2542981207370758,-0.2115223407745361,1.199194312095642
4000707623.0,-0.4709360301494598,0.1761387586593628,10.281546592712402,-0.4185110032558441,0.2217552661895752,1.2024731636047363
4000715956.0,-0.4754351675510406,-0.0229391679167747,10.091452598571776,-0.4317535161972046,0.1849987953901291,1.1162042617797852
4000724289.0,-0.4868654012680053,-0.1430497020483017,10.045724868774414,-0.300531804561615,-0.4831613004207611,1.089667797088623
4000732622.0,-0.528816819190979,0.04532041400671,10.243243217468262,-0.1756880283355713,-0.4687148630619049,1.197759985923767
4000740955.0,-0.5658185482025146,0.2004941999912262,10.340042114257812,-0.1512008160352707,0.0500886403024196,1.1787543296813965
4000749288.0,-0.4981096684932709,0.0890457406640052,10.185412406921388,-0.224227026104927,0.0197357665747404,1.2176110744476318
4000757621.0,-0.4245570003986358,-0.0577091351151466,10.072783470153809,-0.3080879747867584,-0.5289083123207092,1.2236560583114624
4000765954.0,-0.4938036799430847,-0.0056793573312461,10.202550888061523,-0.2707937061786651,-0.4410515427589416,1.0850831270217896
4000774287.0,-0.4976375102996826,0.1438721716403961,10.289457321166992,-0.1911334097385406,0.1686569303274154,1.0999904870986938
4000782620.0,-0.4598561525344848,0.1011554449796676,10.179089546203612,-0.2288119494915008,0.0919935256242752,1.1356455087661743
4000790953.0,-0.4684969186782837,-0.0393334850668907,10.126057624816896,-0.3858272135257721,-0.2321930527687072,1.1639492511749268
4000799286.0,-0.5630360245704651,-0.0106076663359999,10.224359512329102,-0.2664392590522766,-0.2715108692646026,1.1659215688705444
4000807619.0,-0.5561549663543701,0.1376922130584716,10.291460037231444,-0.3085234761238098,0.0559799186885356,1.2723231315612793
4000815952.0,-0.5217283368110657,0.1066560447216034,10.192622184753418,-0.4013750553131103,0.0719119608402252,1.217278003692627
4000824285.0,-0.4620021283626556,-0.0576805248856544,10.098462104797363,-0.4790374040603637,-0.4068564772605896,1.137182354927063
4000832618.0,-0.43987837433815,-0.0468940399587154,10.145055770874023,-0.2849583625793457,-0.4721727967262268,1.1060866117477417
4000840951.0,-0.4205513894557953,0.1599590331315994,10.302261352539062,-0.1870607733726501,-0.2507889568805694,1.2619236707687378
4000849284.0,-0.4776883125305176,0.143221378326416,10.27132511138916,-0.2971763610839844,0.2888132929801941,1.2278568744659424
4000857617.0,-0.4905705749988556,-0.0581955313682556,10.096338272094728,-0.4126453101634979,-0.0169566236436367,1.1980161666870115
4000865950.0,-0.5390453934669495,-0.0870572552084922,10.076152801513672,-0.2469468563795089,-0.3789370059967041,1.1968635320663452
4000874283.0,-0.5476860404014587,0.0960626825690269,10.242928504943848,-0.1394182741641998,-0.3258898854255676,1.1714028120040894
