SampleTimeFine,Acc_X,Acc_Y,Acc_Z,Gyr_X,Gyr_Y,Gyr_Z
2498126062.0,0.0,0.0,0.0,0.0,0.0,0.0
2498134395.0,-0.4388480186462402,-0.0617423988878726,9.953554153442385,2.295201778411865,-0.1237679943442344,0.2445006519556045
2498142728.0,-0.4589114785194397,0.0800295397639274,9.74745750427246,2.4294464588165283,0.0745502412319183,0.1453223675489425
2498151061.0,-0.5321534276008606,0.2533139586448669,9.84990119934082,2.49184250831604,0.5393461585044861,0.1153024807572364
2498159394.0,-0.567533552646637,0.1745363175868988,10.051657676696776,2.3058319091796875,0.6021778583526611,0.1027515158057212
2498167727.0,-0.5461123585700989,-0.0953475460410118,10.054637908935549,2.245638370513916,0.0599757321178913,0.1665565520524978
2498176060.0,-0.5684924125671387,-0.0699887201189994,9.816357612609863,2.2512478828430176,-0.2599076330661773,0.1681190282106399
2498184393.0,-0.5702911615371704,0.1939293891191482,9.802876472473145,2.506519556045532,0.1312857568264007,0.185178130865097
2498192726.0,-0.5221151113510132,0.3165542185306549,9.96201229095459,2.4876930713653564,0.4989525377750397,0.0543662197887897
2498201059.0,-0.4312794506549835,0.1239940077066421,10.123924255371094,2.1606502532958984,0.19583360850811,0.1379454582929611
2498209392.0,-0.4361778795719147,-0.0720234438776969,9.882930755615234,2.077404022216797,-0.309957891702652,0.1744457483291626
2498217725.0,-0.5049431920051575,0.0687592029571533,9.713126182556152,2.33221435546875,-0.1334757655858993,0.2245728075504303
2498226058.0,-0.5428008437156677,0.188935324549675,9.747127532958984,2.5652015209198,0.4824313223361969,0.1914023607969284
2498234391.0,-0.5498394966125488,0.1635252088308334,10.056029319763184,2.435235023498535,0.5343769788742065,0.1662492007017135
2498242724.0,-0.545301079750061,0.0272705983370542,10.134654998779297,2.198251962661743,0.0971419811248779,0.1304148733615875
2498251057.0,-0.5663143992424011,0.0728005468845367,9.949457168579102,2.142822742462158,-0.320408433675766,0.2321802228689193
2498259390.0,-0.5470582246780396,0.2072181850671768,9.83278465270996,2.289029359817505,-0.1546843945980072,0.1209888532757759
2498267723.0,-0.4677534103393554,0.1485528498888015,9.918124198913574,2.32212233543396,0.0970651432871818,0.0921984389424324
2498276056.0,-0.4049325287342071,-0.0372170954942703,9.952383041381836,2.11426305770874,-0.0782258808612823,0.3217020332813263
2498284389.0,-0.4327339231967926,-0.01680513843894,9.88945484161377,2.086932420730591,-0.2259431630373001,0.1700913161039352
2498292722.0,-0.5737573504447937,0.1793739050626754,9.813446044921877,2.201966047286988,-0.1559906899929046,0.0555700808763504
2498301055.0,-0.5356540679931641,0.2219912558794021,9.9216890335083,2.260674238204956,0.0108988583087921,0.1319261193275451
2498309388.0,-0.5296292304992676,-0.0219969265162944,9.995327949523926,2.105323553085327,0.0354116782546043,0.2551049590110779
2498317721.0,-0.5375570058822632,-0.1585616320371627,9.92863941192627,2.0604732036590576,-0.2329870909452438,0.2078723311424255
2498326054.0,-0.5770678520202637,0.0090852808207273,9.849028587341309,2.324683904647827,-0.3709709644317627,0.2741875946521759
2498334387.0,-0.5190727114677429,0.2499238699674606,9.886752128601074,2.3748366832733154,-0.3461251854896545,0.1403788179159164
2498342720.0,-0.3733284473419189,0.1637019366025924,10.024335861206056,2.145870923995972,-0.2171318680047989,0.1561571657657623
2498351053.0,-0.4127341508865356,-0.0422269813716411,9.956095695495604,1.9361672401428225,-0.5402042269706726,0.2553867399692535
2498359386.0,-0.474955141544342,-0.0623191148042678,9.777360916137695,2.0353453159332275,-0.6975524425506592,0.2485733479261398
2498367719.0,-0.5216534733772278,0.1032911464571952,9.798721313476562,2.1279921531677246,-0.5398712158203125,0.2312581241130828
2498376052.0,-0.5084423422813416,0.2100701481103897,9.850126266479492,2.3096227645874023,-0.1040450185537338,0.2839210033416748
2498384385.0,-0.5104978680610657,-0.0151544502004981,10.06381130218506,2.0763537883758545,-0.2253540307283401,0.3179110586643219
2498392718.0,-0.5086301565170288,0.0506218187510967,9.98422908782959,1.9217208623886108,-0.5362340211868286,0.2323083132505417
2498401051.0,-0.5757744908332825,0.107309453189373,9.96878433227539,2.0281479358673096,-0.5652292966842651,0.2580249905586242
2498409384.0,-0.4564907848834991,0.1526625156402588,9.881351470947266,2.115927696228028,-0.6656627058982849,0.330180287361145
2498417717.0,-0.3622361421585083,0.0173854492604732,9.949795722961426,1.9543532133102417,-0.6382554769515991,0.2647359073162079
2498426050.0,-0.3455327153205871,-0.042533989995718,10.016009330749512,1.8648314476013184,-0.748985767364502,0.3576131165027618
2498434383.0,-0.4319761097431183,0.065783217549324,9.834938049316406,1.869160294532776,-0.7991127967834473,0.3717265725135803
2498442716.0,-0.4842996001243591,0.2622266113758087,9.936699867248535,2.157371759414673,-0.549041211605072,0.3247757256031036
2498451049.0,-0.482555091381073,0.1094702258706092,9.937520027160645,1.939112663269043,-0.3579589426517486,0.4405519962310791
2498459382.0,-0.5453159213066101,-0.1509880721569061,10.048539161682127,1.8706713914871216,-0.6124107241630554,0.5463899970054626
2498467715.0,-0.519676923751831,-0.0622059367597103,9.83285140991211,2.004377841949463,-0.8103063106536865,0.4756691455841064
2498476048.0,-0.5160110592842102,0.2095114737749099,9.730663299560549,2.424092531204224,-0.5529857277870178,0.4134521782398224
2498484381.0,-0.3901048004627228,0.2538468241691589,9.79514217376709,2.532799482345581,0.0170462727546691,0.4640146791934967
2498492714.0,-0.3435324728488922,0.0104413051158189,9.976123809814451,2.4497838020324707,0.4139644205570221,0.3842775523662567
2498501047.0,-0.4036034047603607,-0.0782293379306793,9.998748779296877,2.2890288829803467,0.0780849903821945,0.4335080981254577
2498509380.0,-0.5298327803611755,0.0530154705047607,9.874427795410156,2.390896797180176,-0.2421057373285293,0.5068929195404053
2498517713.0,-0.5088415145874023,0.179063618183136,9.806015014648438,2.646757364273072,-0.0264338888227939,0.4121202528476715
2498526046.0,-0.4581342041492462,0.0814815014600753,9.918604850769045,2.613125801086426,0.3506204485893249,0.5214417576789856
2498534379.0,-0.4582383930683136,-0.0451448261737823,10.000276565551758,2.3629262447357178,0.4151427149772644,0.5021030306816101
2498542712.0,-0.5763903856277466,0.017779141664505,9.91922664642334,2.517303228378296,0.3298473358154297,0.4825850427150726
2498551045.0,-0.5854382514953613,0.1397695392370224,9.899786949157717,2.691838502883911,0.1748299747705459,0.3827663660049438
2498559378.0,-0.4178951382637024,0.0780501440167427,9.920856475830078,2.69278621673584,0.1790050864219665,0.2854834794998169
2498567711.0,-0.3599489331245422,-0.0560693964362144,9.94499969482422,2.473015546798706,0.02531966753304,0.3833042085170746
2498576044.0,-0.4043647050857544,-0.034360758960247,9.752498626708984,2.465818405151367,0.0763944610953331,0.3004165887832641
2498584377.0,-0.5049760937690735,0.1409807205200195,9.687126159667969,2.718835592269897,0.472134381532669,0.2199622243642807
2498592710.0,-0.4730167388916015,0.1096803694963455,9.768545150756836,2.74058198928833,0.8587556481361389,0.1824630051851272
2498601043.0,-0.457599937915802,-0.0844167843461036,10.002735137939451,2.724393844604492,1.016564965248108,0.1643025130033493
2498609376.0,-0.5571667551994324,-0.1314602643251419,9.968866348266602,2.60851526260376,0.6507936716079712,0.1191958338022232
2498617709.0,-0.5521649718284607,0.120146095752716,9.840169906616213,2.817091941833496,0.5002076029777527,0.1741127371788025
2498626042.0,-0.440992534160614,0.2573096454143524,9.768768310546877,2.887197971343994,0.6691334247589111,0.1151487901806831
2498634375.0,-0.3395441770553589,0.0967479720711708,9.872314453125,2.8969829082489014,1.0163345336914062,0.078187458217144
2498642708.0,-0.3624545633792877,-0.0819526761770248,9.808077812194824,2.7122271060943604,1.303597927093506,0.0034451144747436
2498651041.0,-0.4275442063808441,0.0436441376805305,9.799334526062012,2.9642460346221924,1.277471661567688,0.0536746270954608
2498659374.0,-0.508939802646637,0.2693266570568084,9.878543853759766,3.0462117195129395,1.6034897565841677,0.0234754495322704
2498667707.0,-0.4722515940666199,0.2129626721143722,10.113845825195312,2.85999608039856,1.660711646080017,0.0214263070374727
2498676040.0,-0.5001662373542786,0.04379228875041,10.203367233276367,2.5618205070495605,1.3943235874176023,0.0634592622518539
2498684373.0,-0.5314416885375977,0.0646030753850936,10.008217811584473,2.5825681686401367,0.7281487584114075,0.0377169623970985
2498692706.0,-0.5630078315734863,0.1538519263267517,9.852855682373049,2.6414809226989746,0.6869353652000427,0.0035219576675444
2498701039.0,-0.4598244130611419,0.0862613543868064,9.85440158843994,2.519915819168091,0.829529881477356,-0.0729237273335456
2498709372.0,-0.3872270584106445,-0.0860401093959808,9.93779182434082,2.506596326828003,0.7325287461280823,0.1271362602710724
2498717705.0,-0.4317066967487335,-0.082667589187622,9.816603660583496,2.547681331634521,0.4978767335414886,0.1022392138838768
2498726038.0,-0.500187337398529,0.0986882299184799,9.761216163635254,2.831794261932373,0.903939127922058,-0.0480010770261287
2498734371.0,-0.5029979348182678,0.1184289902448654,9.977581977844238,2.747498035430908,1.1766026020050049,0.0704007223248481
2498742704.0,-0.5110675096511841,-0.0120832361280918,10.094017028808594,2.6671719551086426,1.0054997205734253,-0.0331192091107368
2498751037.0,-0.493737131357193,-0.0514925681054592,10.102401733398438,2.571041822433472,0.638934314250946,0.0196333117783069
2498759370.0,-0.5317453742027283,0.1245741844177246,9.851202964782717,2.7444753646850586,0.638883113861084,-0.0124485176056623
2498767703.0,-0.4886855483055115,0.3276599645614624,9.98770809173584,2.8069489002227783,0.9208446145057678,0.0602318756282329
2498776036.0,-0.3908154666423797,0.176761046051979,10.12789535522461,2.516381025314331,0.7216683626174927,0.126137301325798
2498784369.0,-0.379453182220459,-0.0255729816854,10.099663734436035,2.266770124435425,0.2177338004112243,-0.0298661962151527
2498792702.0,-0.4320568144321441,0.0213896613568067,9.82076930999756,2.3710198402404785,0.2682706713676452,0.0142287062481045
2498801035.0,-0.5032586455345154,0.1429102718830108,9.720633506774902,2.4385650157928467,0.6923143863677979,0.0799548253417015
2498809368.0,-0.4675138890743255,0.0992781370878219,9.911015510559082,2.4737586975097656,1.050196409225464,0.0108988573774695
2498817701.0,-0.4696989059448242,-0.0029164510779082,10.06381893157959,2.346379280090332,0.709808886051178,0.0753442794084549
2498826034.0,-0.5616481900215149,0.0369730219244957,9.941821098327637,2.4620018005371094,0.4741835296154022,-0.01652118191123
2498834367.0,-0.5515344738960266,0.1940587610006332,9.851049423217772,2.4213521480560303,0.6340419054031372,0.0424812100827693
2498842700.0,-0.475157618522644,0.1594421416521072,9.887720108032228,2.448170185089112,0.828274667263031,0.0305962022393941
2498851033.0,-0.3848491907119751,0.0291948933154344,9.91224765777588,2.3502213954925537,0.5621171593666077,0.0007812341791577
2498859366.0,-0.3713227212429046,0.0319133065640926,9.77290153503418,2.3996315002441406,0.6467978954315186,0.0449914038181304
2498867699.0,-0.4421293437480926,0.1968206316232681,9.703697204589844,2.669707536697388,1.198630928993225,-0.0307883080095052
2498876032.0,-0.5286070108413696,0.2152131050825119,9.8834810256958,2.571477174758911,1.5305145978927612,-0.0522530376911163
2498884365.0,-0.5125283002853394,0.0209104791283607,10.17580223083496,2.3707125186920166,1.3264204263687134,0.0244231726974248
2498892698.0,-0.5538746118545532,-0.1066506132483482,10.081311225891112,2.1410040855407715,0.4054092764854431,-0.0668019205331802
2498901031.0,-0.5531956553459167,0.0356167703866958,9.923835754394531,2.316768884658813,-0.0071975993923842,-0.0994088426232338
2498909364.0,-0.4863151609897613,0.2177501618862152,9.761363983154297,2.4659974575042725,0.1865100413560867,-0.0092467386275529
2498917697.0,-0.384095698595047,0.1220973134040832,9.936383247375488,2.2942540645599365,0.3732890486717224,0.0032402009237557
2498926030.0,-0.350121408700943,-0.0421189293265342,9.91490364074707,2.0720250606536865,0.102674663066864,0.0356934368610382
2498934363.0,-0.4181815385818481,-0.0345899052917957,9.706140518188477,2.292948007583618,0.1010353490710258,0.0579265877604484
2498942696.0,-0.4446067810058594,0.0884290635585784,9.613563537597656,2.494967222213745,0.5463899970054626,0.0659438446164131
2498951029.0,-0.458925187587738,0.1212050840258598,9.885695457458496,2.4039597511291504,1.195531725883484,0.063817873597145
2498959362.0,-0.4586709141731262,0.0347031578421592,10.114863395690918,2.370687246322632,0.8739705681800842,-0.0812739729881286
2498967695.0,-0.4996356070041656,-0.0057259863242506,10.013769149780272,2.2440500259399414,0.4604798853397369,0.0370509885251522
2498976028.0,-0.4931121170520782,0.0989512056112289,9.836236000061035,2.484567880630493,0.5055866241455078,0.0041110846213996
2498984361.0,-0.433278888463974,0.0610206238925457,9.82679557800293,2.4504754543304443,0.8122146129608154,0.1345643997192382
2498992694.0,-0.3486940562725067,-0.0754198804497718,10.007145881652832,2.30739426612854,0.6426995992660522,0.1772633194923401
2499001027.0,-0.3575708866119385,-0.1052811592817306,9.879612922668455,2.2276573181152344,0.2120218425989151,0.1582319438457489
2499009360.0,-0.3928534090518951,0.0133611047640442,9.745976448059082,2.5038809776306152,0.259459376335144,0.2023652791976928
2499017693.0,-0.4647418856620788,0.0746284946799278,9.660564422607422,2.640891790390014,0.8166715502738953,0.0968090072274208
2499026026.0,-0.4405036568641662,-0.0695204362273216,9.882401466369627,2.5300333499908447,1.0925368070602417,0.0868194550275802
2499034359.0,-0.472726821899414,-0.2225606441497802,9.970022201538086,2.409851312637329,0.806297779083252,0.1593589931726455
2499042692.0,-0.5080523490905762,-0.050389040261507,9.896653175354004,2.6222445964813232,0.7644184231758118,0.121757261455059
2499051025.0,-0.4971337020397186,0.2207660675048828,10.020488739013672,2.7251882553100586,0.7984341979026794,0.1196056753396987
2499059358.0,-0.3941531777381897,0.1731287389993667,10.252979278564451,2.355754137039185,0.5022823214530945,0.1498304605484008
2499067691.0,-0.3373213410377502,-0.0309114921838045,10.27499771118164,2.0622661113739014,-0.3424879610538482,0.1191446185111999
2499076024.0,-0.3916794955730438,-0.1029197797179222,9.917597770690918,1.820800542831421,-0.8391735553741455,0.1797991096973419
2499084357.0,-0.4077876508235931,0.1111363098025322,9.798267364501951,2.152069568634033,-0.4143102169036865,0.121757261455059
2499092690.0,-0.4816378057003021,0.1418251097202301,9.941865921020508,2.0861384868621826,0.153595745563507,0.2703710496425628
2499101023.0,-0.4810413718223572,0.0377652533352375,10.19259262084961,1.8785862922668457,-0.1237423494458198,0.2294138967990875
2499109356.0,-0.5084755420684814,-0.0403908155858516,10.154358863830566,1.6418083906173706,-0.7367934584617615,0.3312048316001892
2499117689.0,-0.5172080397605896,0.0777988880872726,9.81869888305664,1.9804543256759644,-0.8856635093688965,0.2227286100387573
2499126022.0,-0.419154405593872,0.1807674467563629,9.69711208343506,2.491227865219116,-0.3815752863883972,0.3488018810749054
2499134355.0,-0.2643001675605774,0.0872347652912139,9.897223472595217,2.456033706665039,0.1761875003576278,0.5294846892356873
2499142688.0,-0.2396324127912521,0.0638622194528579,9.993173599243164,2.325221538543701,0.2819999158382416,0.9533745646476746
2499151021.0,-0.5353049635887146,-0.0404054336249828,9.922167778015137,2.3445863723754883,0.1194776073098182,0.9015058875083924
2499159354.0,-0.5846242308616638,0.1186447665095329,9.819571495056152,2.4239392280578613,0.305718719959259,0.4969033598899841
2499167687.0,-0.4785623848438263,0.0488674901425838,9.856038093566896,2.413565158843994,0.7434403300285339,0.4929074943065643
2499176020.0,-0.5176050066947937,-0.1372285038232803,10.161672592163086,2.223456621170044,0.8182851672172546,0.4514124989509582
2499184353.0,-0.6970465183258057,-0.0940526723861694,9.781777381896973,2.1277103424072266,0.2870458960533142,0.3807427883148193
2499192686.0,-0.5965621471405029,0.2358401268720626,10.14560890197754,2.6123831272125244,0.3912446200847626,0.1784928143024444
2499201019.0,-0.4317776560783386,0.2762971520423889,10.10948085784912,2.125686883926392,0.5044339299201965,0.143350064754486
2499209352.0,-0.3761447966098785,0.0500249303877353,10.039627075195312,2.0543770790100098,0.2850224077701568,0.1708085387945175
2499217685.0,-0.4359886348247528,0.0044646668247878,10.066805839538574,1.8397554159164429,0.2179131209850311,0.1953725963830948
2499226018.0,-0.4387209117412567,0.1074438467621803,9.78660488128662,2.0922091007232666,0.2259303629398346,0.1715513318777084
2499234351.0,-0.4443098306655884,0.1654871106147766,9.855714797973633,2.2905149459838867,0.8803229331970215,0.0102841164916753
2499242684.0,-0.4165391623973846,0.0908522829413414,10.1650390625,2.152658700942993,1.013363242149353,0.0799036100506782
2499251017.0,-0.5080633163452148,0.1008763909339904,10.152283668518066,2.077224969863892,0.9921802878379822,0.2319753468036651
2499259350.0,-0.6026879549026489,0.1485038697719574,10.10300064086914,1.9893935918807983,0.5776394009590149,0.1026746556162834
2499267683.0,-0.5412501692771912,0.1403563171625137,10.00408935546875,2.098100423812866,0.3529513478279114,0.1438879668712616
2499276016.0,-0.4043886959552765,-0.0113781057298183,10.037375450134276,1.922232985496521,0.2509042024612427,0.045785441994667
2499284349.0,-0.3589158356189728,-0.0643637925386428,9.902729034423828,1.9329909086227417,0.3985958993434906,0.0422762930393219
2499292682.0,-0.4582544863224029,0.0753503516316413,9.736329078674316,2.1049904823303223,0.499900221824646,0.1659930497407913
2499301015.0,-0.4896185100078583,0.1400300115346908,9.774818420410156,2.2859551906585693,0.802096962928772,0.1762899756431579
2499309348.0,-0.5395880341529846,-0.0216306336224079,9.997447967529297,2.146332025527954,0.8208466172218323,0.1092831417918205
2499317681.0,-0.5734208226203918,-0.1861211955547332,9.958070755004885,2.117439031600952,0.5817120671272278,0.1490876525640487
2499326014.0,-0.5798467993736267,-0.1301290392875671,9.776581764221191,2.281728744506836,0.2563600540161133,-0.010168851353228
2499334347.0,-0.5307956337928772,0.1060625687241554,9.810542106628418,2.549551248550415,0.2771844267845154,0.0410468094050884
2499342680.0,-0.4869900643825531,0.1034618318080902,9.840765953063965,2.3903844356536865,0.6713875532150269,-0.0345536023378372
2499351013.0,-0.3858372569084167,-0.1045076176524162,10.036703109741213,2.2379794120788574,0.2264938503503799,0.0845653936266899
2499359346.0,-0.4232155978679657,-0.1070723831653595,9.66843605041504,2.2503771781921387,0.0671733394265174,0.1237808018922805
2499367679.0,-0.4819680452346802,-0.0845849215984344,9.622575759887695,2.442458152770996,0.2436553984880447,0.0530855022370815
2499376012.0,-0.4394865930080414,0.0058873682282865,9.736773490905762,2.4772167205810547,0.7323750257492065,-0.0051228469237685
2499384345.0,-0.4400357902050018,-0.0993665382266044,9.966917991638184,2.4077510833740234,0.6288934946060181,0.0235522892326116
2499392678.0,-0.4829123020172119,-0.1091090366244316,9.890860557556152,2.441638469696045,0.2800532579421997,0.1262653768062591
2499401011.0,-0.4943123757839203,-0.0164008513092994,9.766736030578612,2.439896821975708,0.2487526684999466,0.0994216576218605
2499409344.0,-0.4758973717689514,-0.0129553144797682,9.766530990600586,2.547553539276123,0.4251322448253631,0.1012914851307869
2499417677.0,-0.3574431836605072,-0.1309718489646911,9.926994323730469,2.2364940643310547,0.3433459997177124,0.0357190482318401
2499426010.0,-0.3174421191215515,-0.1933444738388061,9.838006973266602,2.163570165634156,-0.0212598145008087,0.1700401157140731
2499434343.0,-0.3278422951698303,-0.0790060609579086,9.643267631530762,2.362848997116089,0.068582110106945,0.0924033522605896
2499442676.0,-0.3619844019412994,0.039016343653202,9.680052757263184,2.5542898178100586,0.5434955954551697,0.1186579465866088
2499451009.0,-0.3644161224365234,-0.1093542501330375,9.816817283630373,2.57654881477356,0.8516349792480469,0.1135863289237022
2499459342.0,-0.3984493911266327,-0.2691283226013183,9.953923225402832,2.3641297817230225,0.4561510980129242,0.0798523724079132
2499467675.0,-0.4297974109649658,-0.2370666265487671,9.773996353149414,2.651521682739258,0.2086919844150543,0.0637410283088684
2499476008.0,-0.4280498027801513,-0.0276021733880043,9.765909194946287,2.807896614074707,0.4074072241783142,-0.0214134994894266
2499484341.0,-0.3029311597347259,0.0028042735066264,9.865887641906738,2.812763214111328,0.5705955624580383,0.0144592374563217
2499492674.0,-0.2413232028484344,-0.1295048296451568,9.959111213684082,2.589739799499512,0.3359178900718689,-0.0201071742922067
2499501007.0,-0.2317921370267868,-0.2100803852081298,9.834187507629396,2.6146626472473145,0.089329645037651,0.1539799720048904
2499509340.0,-0.268948346376419,-0.1171926707029342,9.623562812805176,2.9197540283203125,0.4773341119289398,0.0540076158940792
2499517673.0,-0.3293671309947967,-0.0025326213799417,9.78464126586914,2.951387405395508,0.9112391471862792,0.0769835859537124
2499526006.0,-0.3656212091445923,-0.070411816239357,9.948625564575195,2.8404009342193604,0.9478676319122314,-0.0073512862436473
2499534339.0,-0.3930261731147766,-0.1593585461378097,10.042016983032228,2.803362846374512,0.6122955083847046,0.0886892974376678
2499542672.0,-0.3740381598472595,-0.0464472472667694,9.86471462249756,2.921520948410034,0.3464709222316742,-0.0169310085475444
2499551005.0,-0.366244226694107,0.0886323228478431,9.835281372070312,2.831948518753052,0.5269488096237183,0.1466030776500702
2499559338.0,-0.2956858277320862,0.0138885779306292,9.914481163024902,2.8645808696746826,0.7423133850097656,0.0809794142842292
2499567671.0,-0.2955982387065887,-0.150240883231163,9.984100341796877,2.7708580493927,0.6189808249473572,0.0851032957434654
2499576004.0,-0.2714570164680481,-0.0611068271100521,9.838794708251951,2.845421314239502,0.4558437764644623,0.1351022869348526
2499584337.0,-0.3398654758930206,0.1767547726631164,9.711483001708984,3.049823045730591,0.903503715991974,0.1737285405397415
2499592670.0,-0.4176378846168518,0.1730145961046219,9.84742259979248,2.9434468746185303,1.3932222127914429,0.1474739462137222
2499601003.0,-0.4549057185649872,-0.0090187098830938,10.031779289245604,2.725931167602539,1.1878985166549685,0.1832570433616638
2499609336.0,-0.4933484196662903,-0.100723348557949,9.96468734741211,2.7728304862976074,0.6756395101547241,0.1274436265230178
2499617669.0,-0.4825645685195923,0.0846294909715652,9.83042049407959,2.9477248191833496,0.7386249303817749,0.1520076990127563
2499626002.0,-0.4595044255256653,0.2644126713275909,9.865010261535645,3.0301003456115723,0.8641602993011475,0.1353328227996826
2499634335.0,-0.3984288275241852,0.1455179899930954,10.022125244140623,2.70574688911438,0.9486104249954224,0.0624346993863582
2499642668.0,-0.3587464392185211,-0.008630720898509,10.004353523254396,2.6183767318725586,0.7730247974395752,0.0940938964486122
2499651001.0,-0.4105757474899292,0.0278938822448253,9.762574195861816,2.6793129444122314,0.4263361692428589,0.0799292251467704
2499659334.0,-0.4889118075370788,0.1533127278089523,9.73677921295166,2.8621985912323,0.8715372085571289,0.144784465432167
2499667667.0,-0.5031348466873169,0.0950576737523078,10.015694618225098,2.69883131980896,1.226550579071045,0.15836001932621
2499676000.0,-0.5579535365104675,0.0248462371528148,10.038168907165527,2.7112796306610107,0.9379547834396362,0.0943500399589538
2499684333.0,-0.5679053068161011,0.054421741515398,9.983424186706545,2.753107786178589,0.4047177135944366,0.1515210121870041
2499692666.0,-0.547106921672821,0.1834212094545364,9.90124225616455,2.7482919692993164,0.6344005465507507,0.1011121943593025
2499700999.0,-0.5078768134117126,0.1703196763992309,9.945117950439451,2.7170424461364746,0.7643415331840515,0.0923521220684051
2499709332.0,-0.4227685630321502,-0.000871293246746,10.010420799255373,2.693016529083252,0.5245410799980164,-0.0014087829040363
2499717665.0,-0.3820301294326782,0.0209451206028461,9.90963077545166,2.6773664951324463,0.314734935760498,0.0852313786745071
2499725998.0,-0.4152377545833587,0.105717159807682,9.77088451385498,2.5961947441101074,0.4748494923114776,0.0360264219343662
2499734331.0,-0.4989867806434631,0.1864461004734039,9.851704597473145,2.712201833724976,0.9847520589828492,0.0745758414268493
2499742664.0,-0.5114915370941162,-0.0005274924915283,9.983004570007324,2.625164747238159,0.9346762895584106,-0.0265107359737157
2499750997.0,-0.521410346031189,-0.165846511721611,9.995197296142578,2.62398648262024,0.559145987033844,0.0475528314709663
2499759330.0,-0.5229907631874084,0.0041502071544528,9.864242553710938,2.7491884231567383,0.3045916855335235,0.050344780087471
2499767663.0,-0.4890963435173034,0.2106011807918548,9.859776496887209,2.8004939556121826,0.6959772109985352,0.1431963741779327
2499775996.0,-0.376516193151474,0.1877722740173339,10.068951606750488,2.6388168334960938,0.7229233384132385,0.0235522892326116
2499784329.0,-0.3377342224121094,-0.0177879612892866,10.000046730041504,2.35903263092041,0.418908029794693,-0.0528677850961685
2499792662.0,-0.3218126893043518,-0.0429314821958541,9.85883617401123,2.4896397590637207,0.3223167359828949,0.1208863854408264
2499800995.0,-0.3754056990146637,0.1122673153877258,9.711316108703612,2.704620122909546,0.5550733208656311,0.0729109197854995
2499809328.0,-0.3725670278072357,0.062638334929943,9.90896987915039,2.615841150283813,0.9849826693534852,0.0150995925068855
2499817661.0,-0.3897950351238251,-0.0829465389251709,10.065786361694336,2.4744760990142822,0.9376731514930724,0.1370489746332168
2499825994.0,-0.4165334403514862,-0.1252032667398452,9.953896522521973,2.4923291206359863,0.4647830724716186,0.1347436755895614
2499834327.0,-0.4096666276454925,0.0139676202088594,9.849905967712402,2.627213716506958,0.6398563981056213,0.1289804875850677
2499842660.0,-0.3644624352455139,0.0611907057464122,9.871631622314451,2.661639451980591,0.5842991471290588,0.0025998449418693
2499850993.0,-0.3289534449577331,-0.1145829111337661,9.951745986938477,2.5597970485687256,0.7361915111541748,0.0319537557661533
2499859326.0,-0.2801490128040313,-0.187998279929161,9.931349754333496,2.6114096641540527,0.4308699071407318,0.1163526624441146
2499867659.0,-0.3093559741973877,-0.0676497370004654,9.690624237060549,2.8170924186706543,0.3988776803016662,0.0684540420770645
2499875992.0,-0.407331258058548,0.053381435573101,9.76142406463623,2.717836856842041,0.8893902897834778,0.0706312507390976
2499884325.0,-0.4389342367649078,-0.0542167872190475,9.925662994384766,2.707744836807251,1.2414579391479492,0.1084890887141227
2499892658.0,-0.4918771982192993,-0.1991500854492187,10.00538444519043,2.7229599952697754,0.7457969188690186,0.0246793180704116
2499900991.0,-0.4992939531803131,-0.0791587233543396,9.890710830688477,2.903540134429932,0.390681117773056,-0.0206706896424293
2499909324.0,-0.4859568476676941,0.1554358601570129,9.865817070007324,2.9052562713623047,0.634477436542511,0.0552627183496952
2499917657.0,-0.4303272664546966,0.2247289270162582,9.98439598083496,2.8894267082214355,0.9553726315498352,0.0823625698685646
2499925990.0,-0.3872763812541961,-0.0046130288392305,10.000123977661133,2.5396387577056885,0.6902140378952026,0.1096673533320427
2499934323.0,-0.3911436796188354,-0.085672914981842,9.82206916809082,2.548091411590576,0.5648066997528076,0.0073897070251405
2499942656.0,-0.4385992288589477,0.0409140661358833,9.717852592468262,2.7295424938201904,0.685500979423523,0.0395611859858036
2499950989.0,-0.5101006627082825,0.1494768410921096,9.840731620788574,2.606184244155884,1.1605937480926514,0.0008068483439274
2499959322.0,-0.53572016954422,0.0792309865355491,10.054154396057127,2.599473476409912,1.0158734321594238,-0.0695426538586616
2499967655.0,-0.5438554883003235,-0.0414480157196521,10.0584135055542,2.596015453338623,0.6382939219474792,0.0095669170841574
2499975988.0,-0.5299881100654602,0.0033788168802857,9.881382942199709,2.582106828689575,0.3947025835514068,0.0348737798631191
2499984321.0,-0.4938505887985229,0.0785749331116676,9.819612503051758,2.6166348457336426,0.5127072930335999,0.0184806697070598
2499992654.0,-0.4264112412929535,-0.0245150476694107,9.939726829528809,2.611332893371582,0.7711294293403625,0.039433117955923
2500000987.0,-0.3775408267974853,-0.139627143740654,9.959604263305664,2.4871037006378174,0.3292069435119629,0.0963479429483413
2500009320.0,-0.356737732887268,-0.0758261382579803,9.828075408935549,2.70221209526062,0.3361996412277221,0.115507386624813
2500017653.0,-0.4464219510555267,0.0998954325914383,9.758729934692385,2.799802303314209,0.7659040689468384,0.012973609380424
2500025986.0,-0.4787994623184204,0.055472157895565,9.936956405639648,2.820498466491699,1.012056827545166,-0.0503832027316093
2500034319.0,-0.4845670163631439,-0.1589475870132446,10.061297416687012,2.707181215286255,0.8632893562316895,0.0563128963112831
2500042652.0,-0.4870716333389282,-0.1543986499309539,9.93117904663086,2.7067458629608154,0.3232132196426391,0.0967577770352363
2500050985.0,-0.4387509822845459,0.0895524099469184,9.85715389251709,2.917038917541504,0.4582771062850952,-0.0101176239550113
2500059318.0,-0.3915131390094757,0.2489392161369323,9.946112632751465,2.8323326110839844,0.7082719802856445,0.0896370187401771
2500067651.0,-0.3450300395488739,0.0918200016021728,10.050566673278809,2.625548839569092,0.8145454525947571,0.1525455713272094
2500075984.0,-0.3171734511852264,-0.0902770087122917,9.927565574645996,2.649830818176269,0.4345583319664001,0.1320541948080063
2500084317.0,-0.3278461396694183,-0.0116273667663335,9.771183013916016,2.6724741458892822,0.4523601830005646,0.1449125409126281
2500092650.0,-0.4053280651569366,0.1710936278104782,9.764544486999512,2.7595369815826416,0.8115229606628418,0.0942475721240043
2500100983.0,-0.4129838049411773,0.1375077664852142,10.016486167907717,2.671603202819824,1.111184000968933,0.0905079022049903
2500109316.0,-0.4158139526844024,-0.0153575036674737,10.071823120117188,2.4945318698883057,0.7350133061408997,0.0654059424996376
2500117649.0,-0.4526701867580414,-0.0253547765314579,9.897989273071287,2.608182191848755,0.4491072595119476,0.0680186003446579
2500125982.0,-0.442383348941803,0.100975714623928,9.798189163208008,2.605799913406372,0.7038151025772095,0.0265491548925638
2500134315.0,-0.392738938331604,0.0662217289209365,9.937925338745115,2.6137149333953857,0.8942570686340332,0.040790669620037
2500142648.0,-0.3342852294445038,-0.1039743423461914,9.96847915649414,2.5185582637786865,0.6191601157188416,0.0411748848855495
2500150981.0,-0.2887712121009826,-0.1065942421555519,9.87348747253418,2.637561798095703,0.356742262840271,0.0737049654126167
2500159314.0,-0.3457818329334259,0.0675808414816856,9.682732582092283,2.5693001747131348,0.5216467380523682,0.1538263112306594
2500167647.0,-0.4088231325149536,0.0935548394918441,9.826746940612791,2.808716297149658,1.0647965669631958,0.1573866754770279
2500175980.0,-0.4485378861427307,-0.1082988902926445,9.985252380371094,2.647166967391968,1.0609031915664673,0.0618967972695827
2500184313.0,-0.4767847061157226,-0.2319384217262268,10.009441375732422,2.727058172225952,0.5914967060089111,0.0955538973212242
2500192646.0,-0.4789235889911651,-0.0328533612191677,9.834709167480469,2.8311798572540283,0.4631694257259369,0.0896882489323616
2500200979.0,-0.4507107138633728,0.1613990515470504,9.871991157531738,2.840631484985352,0.7977938055992126,0.0845653936266899
2500209312.0,-0.4279479384422302,0.106278158724308,10.013259887695312,2.7353312969207764,0.8799130320549011,0.0641252323985099
2500217645.0,-0.4045474529266357,-0.1274099647998809,9.937029838562012,2.667607545852661,0.5547403693199158,0.1344875395298004
2500225978.0,-0.3766071200370788,-0.1432886123657226,9.77875804901123,2.65006160736084,0.4027966558933258,-0.0135243171826004
2500234311.0,-0.449811726808548,0.0618590712547302,9.733546257019045,2.7211410999298096,0.7879835367202759,0.0398173294961452
2500242644.0,-0.4875797033309936,0.1373294591903686,9.982449531555176,2.7985217571258545,1.2021913528442385,0.1099747270345687
2500250977.0,-0.5012158751487732,0.0124879106879234,10.149147987365724,2.6368703842163086,1.0215342044830322,0.0478345826268196
2500259310.0,-0.5137156844139099,-0.1070683076977729,9.97957992553711,2.584591627120972,0.4294867217540741,0.0222715772688388
2500267643.0,-0.5125425457954407,0.0081452094018459,9.82244110107422,2.6259074211120605,0.5064831376075745,0.1089245453476905
2500275976.0,-0.4794183373451233,0.0795766189694404,9.845019340515137,2.7951149940490723,0.8889548778533936,0.1945016980171203
2500284309.0,-0.4343953430652618,-0.0808178633451461,9.978124618530272,2.722139596939087,0.8274806141853333,0.0151252057403326
2500292642.0,-0.3725413680076599,-0.1389100104570388,9.950016021728516,2.7543115615844727,0.478768527507782,0.1491132825613021
2500300975.0,-0.373001754283905,0.0190144293010234,9.802530288696287,2.8636586666107178,0.5018469095230103,0.0084142768755555
2500309308.0,-0.4189102947711944,0.1714161485433578,9.764464378356934,2.836891889572144,0.9890040159225464,0.0173280294984579
2500317641.0,-0.4620626270771026,0.0193174313753843,9.964984893798828,2.637946128845215,1.1756293773651123,0.0381524041295051
2500325974.0,-0.4905852079391479,-0.209084928035736,10.020397186279297,2.638688802719116,0.761703372001648,0.0624603144824504
2500334307.0,-0.4792998433113098,-0.1342729926109314,9.883407592773438,2.8207805156707764,0.3899895250797272,0.1273924112319946
2500342640.0,-0.4347123801708221,0.1622470617294311,9.812061309814451,2.8643760681152344,0.6593488454818726,0.0188648849725723
2500350973.0,-0.4104884564876556,0.2951526939868927,9.992501258850098,2.7701668739318848,0.8473317623138428,0.1952445209026336
2500359306.0,-0.3757138848304748,0.0496009811758995,10.04489517211914,2.6737802028656006,0.7283023595809937,0.0770604237914085
2500367639.0,-0.3387240767478943,-0.0978243872523307,9.89372730255127,2.5895864963531494,0.363453209400177,0.0776239410042762
2500375972.0,-0.3917383849620819,-0.0093739768490195,9.686938285827637,2.6839749813079834,0.4375808238983154,0.0965272560715675
2500384305.0,-0.3957461714744568,0.1843398660421371,9.8280611038208,2.915527582168579,1.0796016454696655,0.1598968654870987
2500392638.0,-0.4427326321601867,0.1338098645210266,10.054893493652344,2.758307218551636,1.126245141029358,0.057593610137701
2500400971.0,-0.4603740274906158,-0.0046472703106701,10.073769569396973,2.574422836303711,0.6112196445465088,0.0166364461183547
2500409304.0,-0.4622732400894165,0.0428463406860828,9.891698837280272,2.586205244064331,0.4357109665870666,0.0047258264385163
2500417637.0,-0.4517439305782318,0.1621357798576355,9.817665100097656,2.608131170272827,0.6984874606132507,0.0271895118057727
2500425970.0,-0.3704552948474884,0.0575583390891552,9.93004322052002,2.5505247116088867,0.8267378807067871,0.0796730816364288
2500434303.0,-0.3266724646091461,-0.1115806251764297,9.97658348083496,2.494762420654297,0.5768454074859619,0.008926561102271
2500442636.0,-0.3253933787345886,-0.0292701739817857,9.818501472473145,2.6337711811065674,0.229695662856102,-0.0249994955956935
2500450969.0,-0.4122313857078552,0.1500003635883331,9.74915885925293,2.695014476776123,0.7381125688552856,-0.019671730697155
2500459302.0,-0.4608513712882995,0.1485838890075683,9.924726486206056,2.683565139770508,1.1166397333145142,0.0314414761960506
2500467635.0,-0.4747247397899627,-0.0975930467247963,10.05288791656494,2.506032705307007,0.8932324647903442,0.0873061120510101
2500475968.0,-0.4773251116275787,-0.1892427951097488,9.937949180603027,2.600933313369751,0.3918337523937225,-0.0152916982769966
2500484301.0,-0.4791798591613769,0.0137618640437722,9.797147750854492,2.765684127807617,0.4849415123462677,0.0208884086459875
2500492634.0,-0.4253678023815155,0.2117560803890228,9.86590576171875,2.8360724449157715,0.8420552611351013,0.1040578410029411
2500500967.0,-0.3654220104217529,0.0815838277339935,10.017370223999023,2.664712905883789,0.9798341989517212,0.0829517021775245
2500509300.0,-0.3725536465644836,-0.1555946320295334,9.974658012390137,2.628929853439331,0.5234909653663635,0.0744990110397338
2500517633.0,-0.4004077315330505,-0.1088903546333313,9.786462783813477,2.5301101207733154,0.34649658203125,0.0455293096601963
2500525966.0,-0.4781925082206726,0.0719939693808555,9.725483894348145,2.749931573867798,0.7338863015174866,-0.0191594455391168
2500534299.0,-0.4928954243659973,0.0909719094634056,9.978304862976074,2.724803924560547,1.15093731880188,0.121373064815998
2500542632.0,-0.4865242838859558,-0.0691191479563713,10.086517333984377,2.579187154769897,0.8146991729736328,0.1073620617389679
2500550965.0,-0.4859135448932647,-0.107798270881176,9.936212539672852,2.615610122680664,0.3789497911930084,0.0622810088098049
2500559298.0,-0.4558978378772735,0.031738344579935,9.75595474243164,2.6827199459075928,0.3893235623836517,0.043761920183897
2500567631.0,-0.4367342591285705,0.0626332908868789,9.867071151733398,2.6781604290008545,0.7611141800880432,0.0731926783919334
2500575964.0,-0.373094379901886,-0.1056014746427536,10.008666038513184,2.610154628753662,0.7350901365280151,-0.0322483256459236
2500584297.0,-0.3340857923030853,-0.1632234305143356,9.973341941833496,2.661844253540039,0.3632995188236236,-0.0347841344773769
2500592630.0,-0.3908420503139496,-0.0038537541404366,9.734058380126951,2.8216259479522705,0.4773085117340088,0.0355141349136829
2500600963.0,-0.4357157349586487,0.1235944703221321,9.81668186187744,2.7895824909210205,1.015130639076233,0.1450662314891815
2500609296.0,-0.498235672712326,-0.0340384468436241,10.040298461914062,2.789095640182495,1.0881567001342771,0.0800060704350471
2500617629.0,-0.487328827381134,-0.2724027931690216,9.971458435058594,2.625728130340576,0.5630905628204346,0.1697071343660354
2500625962.0,-0.4469323754310608,-0.1205366179347038,9.954526901245115,2.7258286476135254,0.3738525509834289,0.0197101533412933
2500634295.0,-0.4537906944751739,0.200997918844223,9.74760627746582,2.9621968269348145,0.6970273852348328,0.026779681444168
2500642628.0,-0.3636418581008911,0.1233685240149498,10.02171516418457,2.728799819946289,0.9791682362556458,0.0754979625344276
2500650961.0,-0.315064936876297,-0.0353224128484725,9.982137680053713,2.632464647293091,0.564191997051239,0.0612820535898208
2500659294.0,-0.3462188839912414,-0.1593901962041854,9.860345840454102,2.6496775150299072,0.3921923637390136,0.1276741623878479
2500667627.0,-0.3759433031082153,0.0230992119759321,9.693713188171388,2.824007987976074,0.5943655371665955,0.0941963568329811
2500675960.0,-0.4474899470806122,0.1609354615211486,9.871830940246582,2.792143583297729,1.161131739616394,0.1280071437358856
2500684293.0,-0.4747697710990906,0.0314511954784393,10.040111541748049,2.7180159091949463,1.010315179824829,0.1213474497199058
2500692626.0,-0.4717147052288055,-0.0698151290416717,10.039387702941896,2.549833297729492,0.6346824169158936,0.0916349291801452
2500700959.0,-0.4861153960227966,0.0390448756515979,9.79868507385254,2.725008726119995,0.4511306881904602,0.0850008353590965
2500709292.0,-0.4397090673446655,0.1381536126136779,9.832812309265137,2.7554898262023926,0.7767645120620728,0.0517535619437694
2500717625.0,-0.3920122683048248,0.0718839913606643,9.94884967803955,2.75200629234314,0.9451012015342712,0.0775727108120918
2500725958.0,-0.3444155156612396,-0.0932337939739227,9.97465991973877,2.6911211013793945,0.4539483189582824,0.0954770594835281
2500734291.0,-0.3522758483886719,0.0083840591832995,9.83279800415039,2.701981544494629,0.3939084708690643,-0.0122692175209522
2500742624.0,-0.4236429631710052,0.1976872682571411,9.707513809204102,2.723548650741577,0.890824556350708,0.0678136870265007
2500750957.0,-0.4744441211223602,0.1090492382645607,9.990787506103516,2.7007009983062744,1.2274214029312134,0.0821064338088035
2500759290.0,-0.4858304262161255,-0.1040496230125427,10.029240608215332,2.63769006729126,0.9834201335906982,0.0894321054220199
2500767623.0,-0.4945778846740722,-0.1349005997180938,9.940553665161133,2.7215254306793213,0.3321526050567627,0.1129203587770462
2500775956.0,-0.4589897096157074,0.1098403185606002,9.811749458312988,2.8553082942962646,0.5401401519775391,0.095400221645832
2500784289.0,-0.4432421624660492,0.2595058977603912,9.906819343566896,2.8253397941589355,0.8692574501037598,0.1308247148990631
2500792622.0,-0.3807742595672607,0.0714267119765281,10.0346040725708,2.6686062812805176,0.8443861603736877,-0.0181348770856857
2500800955.0,-0.382664144039154,-0.1305953860282898,9.912511825561523,2.498528003692627,0.4809457063674927,-0.0053789899684488
2500809288.0,-0.4069228768348694,-0.0336565598845481,9.74020004272461,2.747831106185913,0.4545886218547821,0.1258555352687835
2500817621.0,-0.4463566243648529,0.1715234667062759,9.797243118286133,2.8291561603546143,1.0025283098220823,0.0767018273472786
2500825954.0,-0.4776222109794616,0.109710469841957,10.005569458007812,2.79060697555542,1.210541605949402,0.0889198184013366
2500834287.0,-0.4861835539340973,-0.029704051092267,10.14589023590088,2.611128091812134,0.7147268652915955,0.0593353807926178
2500842620.0,-0.4753864407539367,-0.0443177558481693,9.911247253417969,2.5942223072052,0.3901176154613495,0.080134131014347
2500850953.0,-0.4753793776035309,0.1155702695250511,9.80457592010498,2.6863057613372803,0.629226565361023,0.1352559626102447
2500859286.0,-0.4207675457000732,0.1074355915188789,9.9177827835083,2.700547218322754,0.9581900835037231,0.0706312507390976
2500867619.0,-0.3642562925815582,-0.1155900284647941,10.007574081420898,2.4631032943725586,0.6661109924316406,0.0697603747248649
2500875952.0,-0.3391073048114776,-0.1107551977038383,9.88722038269043,2.6028032302856445,0.3367119431495666,0.1276229321956634
2500884285.0,-0.3971066474914551,0.0613863617181777,9.751399040222168,2.676239013671875,0.5245923399925232,0.0929668620228767
2500892618.0,-0.4505647718906402,0.1303386688232422,9.868870735168455,2.6425821781158447,1.0271437168121338,0.1214242726564407
2500900951.0,-0.4540491104125976,-0.1015127152204513,10.015165328979492,2.601266384124756,1.0046544075012207,0.0919166952371597
2500909284.0,-0.4541422426700592,-0.2257897853851318,10.002935409545898,2.604954957962036,0.4908840358257293,0.0903285965323448
2500917617.0,-0.4509137272834778,-0.0573950074613094,9.817549705505373,2.762251853942871,0.3271065950393677,0.0412261113524436
2500925950.0,-0.4331785142421722,0.1864127516746521,9.805645942687988,2.8885812759399414,0.7043274641036987,0.0640740096569061
2500934283.0,-0.3765857815742492,0.13479745388031,9.97392749786377,2.832947254180908,0.9770933389663696,-0.0398045219480991
2500942616.0,-0.3439761996269226,-0.1317200660705566,9.98878288269043,2.5598483085632324,0.5431882739067078,0.093888983130455
2500950949.0,-0.3550801277160644,-0.1506409645080566,9.802616119384766,2.617454767227173,0.30587238073349,0.0883306935429573
2500959282.0,-0.4301752746105194,0.0492791235446929,9.70598030090332,2.8023123741149902,0.6478480100631714,0.1025465801358223
2500967615.0,-0.4513904154300689,0.1285065710544586,9.979750633239746,2.878181934356689,1.1011431217193604,0.0687614157795906
2500975948.0,-0.4527129530906677,-0.0173643659800291,10.108226776123049,2.607875108718872,0.9661306142807008,0.0483212545514106
2500984281.0,-0.4546051323413849,-0.1093108728528022,10.034140586853027,2.610999822616577,0.4889117181301117,0.060359951108694
2500992614.0,-0.4554810523986816,0.0078358110040426,9.77961254119873,2.6776225566864014,0.4940345883369446,0.0486030168831348
2501000947.0,-0.4244425892829895,0.1160634830594062,9.852806091308594,2.791170597076416,0.9684358835220336,0.0924801900982856
2501009280.0,-0.3711409270763397,-0.0169250704348087,9.994587898254396,2.65669584274292,0.9131859540939332,0.0999083295464515
2501017613.0,-0.3353400528430938,-0.1415667831897735,9.951862335205078,2.625446319580078,0.5421380400657654,0.0838994234800338
2501025946.0,-0.3675699830055237,-0.0200321078300476,9.793659210205078,2.6951680183410645,0.4949822723865509,0.0997034013271331
2501034279.0,-0.4352546334266662,0.1376323252916336,9.761053085327148,2.838454484939575,0.9623141288757324,0.0859997943043708
2501042612.0,-0.4735057651996612,0.0335472337901592,9.970077514648438,2.6893794536590576,1.2136409282684326,0.0217080656439065
2501050945.0,-0.4765075743198395,-0.1938063204288482,10.078771591186523,2.623115301132202,0.7154183387756348,0.0316976159811019
2501059278.0,-0.4824451208114624,-0.1549450010061264,9.912500381469728,2.79288649559021,0.362223744392395,0.1404300481081009
2501067611.0,-0.4883287250995636,0.157038614153862,9.829764366149902,2.954819917678833,0.5249509215354919,0.0350786931812763
2501075944.0,-0.4058685004711151,0.2192134410142898,9.937359809875488,2.8227272033691406,0.9402089715003968,0.1438367366790771
2501084277.0,-0.382816731929779,-0.0029487530700862,10.042654037475586,2.656619071960449,0.7967180609703064,0.0977055057883262
2501092610.0,-0.3553963899612427,-0.1565544754266739,9.893462181091309,2.564253807067871,0.466883510351181,0.0931717827916145
2501100943.0,-0.397502988576889,0.0058890935033559,9.707876205444336,2.7926816940307617,0.5663178563117981,0.1121775358915329
2501109276.0,-0.4579315483570099,0.1826333701610565,9.78160572052002,2.9281811714172363,1.055626630783081,0.0712972208857536
2501117609.0,-0.4888096153736114,0.1103260964155197,10.087241172790527,2.823137283325196,1.1068552732467651,0.1099491119384765
2501125942.0,-0.5057324767112732,-0.0562596432864666,10.08306884765625,2.637356996536255,0.5627320408821106,0.0818246826529502
2501134275.0,-0.4537291526794433,0.0068873614072799,9.871490478515623,2.574064016342163,0.4260543584823608,0.0041623124852776
2501142608.0,-0.4641755223274231,0.1375864893198013,9.79363250732422,2.7860987186431885,0.4996440410614013,0.0991655066609382
2501150941.0,-0.4188539683818817,0.0702652856707573,9.904326438903809,2.6397647857666016,0.9039392471313475,0.1259323954582214
2501159274.0,-0.3538617491722107,-0.0807368829846382,10.035743713378906,2.670245409011841,0.6952599883079529,0.1169930323958396
2501167607.0,-0.3223564028739929,-0.0347474962472915,9.856514930725098,2.719604253768921,0.5286394357681274,0.062050487846136
2501175940.0,-0.3534106314182281,0.1495777070522308,9.740437507629396,2.753901720046997,0.6560190320014954,0.1424791812896728
2501184273.0,-0.4428593218326568,0.1749355643987655,9.865623474121094,2.7321553230285645,1.1376947164535522,0.0340797416865825
2501192606.0,-0.4797677099704742,-0.1005434691905975,10.058903694152832,2.632464647293091,1.0377479791641235,0.0291874203830957
2501200939.0,-0.46039879322052,-0.1947840452194214,9.941161155700684,2.6963465213775635,0.4163210093975067,-0.0051740761846303
2501209272.0,-0.4683408737182617,0.0320624038577079,9.829272270202637,2.7921950817108154,0.4576111435890198,0.016329076141119
2501217605.0,-0.4419406652450561,0.2450643628835678,9.852609634399414,2.801108837127685,0.8925665020942688,0.0680442228913307
2501225938.0,-0.3970591723918915,0.077935017645359,10.052133560180664,2.6261889934539795,0.8255851864814758,0.057337462902069
2501234271.0,-0.3434517979621887,-0.1418667733669281,9.970953941345217,2.534874200820923,0.4784611463546753,0.1422486454248428
2501242604.0,-0.3397702872753143,-0.1326388567686081,9.746698379516602,2.6320295333862305,0.3982629477977752,0.0558518432080745
2501250937.0,-0.4001986086368561,0.0821075811982154,9.70793914794922,2.7402234077453613,0.8551183938980103,0.1066960915923118
2501259270.0,-0.4506070613861084,0.1289573758840561,9.999189376831056,2.836020946502685,1.2001421451568604,0.0417127832770347
2501267603.0,-0.4343571662902832,-0.040605578571558,10.102846145629885,2.6074650287628174,0.861189067363739,-0.0021003673318773
2501275936.0,-0.4567534923553467,-0.0924552008509635,9.969075202941896,2.575472831726074,0.4831740856170654,0.0412261113524436
2501284269.0,-0.494941234588623,0.0621363595128059,9.77279567718506,2.6701691150665283,0.5877826809883118,-0.0149587150663137
2501292602.0,-0.4487500488758087,0.0880943685770034,9.88703441619873,2.663816213607788,0.8965878486633301,-0.0074793566018342
2501300935.0,-0.3823236227035522,-0.0896561443805694,9.98947048187256,2.567096948623657,0.8993285894393921,0.0633568093180656
2501309268.0,-0.3618760108947754,-0.1194052621722221,9.896563529968262,2.741581439971924,0.3485713303089142,0.0396636463701725
2501317601.0,-0.356738805770874,0.033851433545351,9.796425819396973,2.710588216781616,0.5265646576881409,0.0841811895370483
2501325934.0,-0.4265705943107605,0.1581213474273681,9.802572250366213,2.66074275970459,1.042358636856079,0.0955282971262931
2501334267.0,-0.4952435791492462,-0.0396028757095336,9.98343276977539,2.6787753105163574,1.025760531425476,0.0452731624245643
2501342600.0,-0.4785836935043335,-0.2510025203227997,10.012543678283691,2.6069014072418213,0.5441103577613831,0.1645586490631103
2501350933.0,-0.4853267669677734,-0.0759302824735641,9.837200164794922,2.770089864730835,0.3296424150466919,0.1457834243774414
2501359266.0,-0.4505570828914642,0.1538683027029037,9.79672622680664,2.8605339527130127,0.7148805856704712,0.1178382933139801
2501367599.0,-0.3860685229301452,0.156227245926857,10.00291347503662,2.789710760116577,0.8200525641441345,0.0164827611297369
2501375932.0,-0.372372418642044,-0.0740005671977996,10.01193904876709,2.5566208362579346,0.6607576012611389,0.0754979625344276
2501384265.0,-0.3720397055149078,-0.1781904250383377,9.807064056396484,2.579187154769897,0.4614020586013794,0.0758565664291381
2501392598.0,-0.4155634939670563,-0.0012266730191186,9.693431854248049,2.732590675354004,0.7648282647132874,0.1178126707673072
2501400931.0,-0.4665652811527252,0.1459445059299469,9.890992164611816,2.8454723358154297,1.111465573310852,0.0219385903328657
2501409264.0,-0.4724260568618774,0.0315191149711608,10.096235275268556,2.7469348907470703,0.982754111289978,0.1200411096215248
2501417597.0,-0.4656445384025574,-0.0552777163684368,10.030921936035156,2.5782392024993896,0.4306136965751648,0.0170974992215633
2501425930.0,-0.4799597859382629,0.046671200543642,9.829825401306152,2.682617425918579,0.4689582288265228,0.0727572366595268
2501434263.0,-0.4225952923297882,0.1082884445786476,9.8198881149292,2.719040632247925,0.9745832681655884,-0.0390104837715625
2501442596.0,-0.3629418909549713,0.035130251199007,9.998736381530762,2.653903722763061,1.0131326913833618,-0.0134218605235219
2501450929.0,-0.3460481464862823,-0.1276205629110336,9.946544647216797,2.718579769134521,0.4825082123279571,0.141403391957283
2501459262.0,-0.3098791837692261,-0.0108790900558233,9.825311660766602,2.811636447906494,0.4405776858329773,0.1773657798767089
2501467595.0,-0.41143998503685,0.1786949336528778,9.743084907531738,2.84578013420105,0.8742779493331909,-0.0198766477406024
2501475928.0,-0.4759153127670288,0.0740558803081512,9.961753845214844,2.7223961353302,1.1006308794021606,0.1597175747156143
2501484261.0,-0.4691545069217682,-0.1452408730983734,10.06883144378662,2.608438491821289,0.6933133006095886,0.0340541228652
2501492594.0,-0.4614309668540954,-0.1197172775864601,9.898293495178224,2.749316930770874,0.2979063689708709,0.0911994874477386
2501500927.0,-0.4656842947006225,0.1090302094817161,9.765966415405272,2.823470115661621,0.464962363243103,-0.0083246259018778
2501509260.0,-0.3776735365390777,0.2396695464849472,9.872714042663574,2.816861152648926,1.081881046295166,-0.0189289189875125
2501517593.0,-0.3565714061260223,0.0300070215016603,10.044042587280272,2.6469109058380127,0.9182831048965454,0.0340029001235961
2501525926.0,-0.3602647185325622,-0.133469745516777,9.8688325881958,2.569223165512085,0.4156293869018554,-0.0354757159948349
2501534259.0,-0.3782558143138885,-0.012975338846445,9.748427391052246,2.689866304397583,0.5966196060180664,0.0506009235978126
2501542592.0,-0.4615367352962494,0.1720134019851684,9.797067642211914,2.8131473064422607,1.0651295185089111,0.0697603747248649
2501550925.0,-0.4833612442016601,0.1222196072340011,10.085152626037598,2.701648712158203,1.1125415563583374,0.1305685639381408
2501559258.0,-0.4865610301494598,-0.0404428504407405,10.09074592590332,2.6097447872161865,0.643647313117981,0.1117677241563797
2501567591.0,-0.4905110895633697,-0.0280818976461887,9.87151050567627,2.6426076889038086,0.3217532336711883,0.0463233441114425
2501575924.0,-0.4646662175655365,0.128666490316391,9.799626350402832,2.716658353805542,0.6006154417991638,0.0785460546612739
2501584257.0,-0.3955062329769134,0.0676971301436424,9.960494995117188,2.7310025691986084,0.8034801483154297,0.0195564683526754
2501592590.0,-0.3433299958705902,-0.0888792723417282,10.005061149597168,2.525012731552124,0.6404455304145813,0.1020599156618118
2501600923.0,-0.3324169516563415,-0.0361842587590217,9.868144989013672,2.62854552268982,0.4719806909561157,-0.0299174264073371
2501609256.0,-0.3864145278930664,0.1426600366830825,9.717181205749512,2.736125469207764,0.744567334651947,0.0360008105635643
2501617589.0,-0.4606823325157165,0.1183919683098793,9.882367134094238,2.6359479427337646,1.3293403387069702,0.078879028558731
2501625922.0,-0.5079827904701233,-0.1124563813209533,10.015270233154297,2.5895094871521,0.996662735939026,0.0249866861850023
2501634255.0,-0.4997487664222717,-0.2018069922924041,9.942203521728516,2.6368188858032227,0.5070977807044983,0.0755748003721237
2501642588.0,-0.4894379377365112,0.0129583375528454,9.816298484802246,2.778081178665161,0.4322274029254913,0.1509574800729751
2501650921.0,-0.4451251029968261,0.2333679348230362,9.888747215270996,2.8750314712524414,0.7969997525215149,-0.0176225956529378
2501659254.0,-0.3840555846691131,0.0865500047802925,10.033206939697266,2.664149284362793,0.8222297430038452,0.0698115974664688
2501667587.0,-0.3441930413246155,-0.1525278687477111,9.946419715881348,2.529418468475342,0.4978766739368438,0.0882026255130767
2501675920.0,-0.359313428401947,-0.0980827137827873,9.747885704040527,2.800340175628662,0.440654456615448,0.1180944293737411
2501684253.0,-0.4272409677505493,0.085085853934288,9.722037315368652,2.7644803524017334,0.844642162322998,0.0708873942494392
2501692586.0,-0.4451837837696075,0.1057231277227401,9.996826171875,2.789966821670532,1.2450438737869265,0.0421482250094413
2501700919.0,-0.46798837184906,-0.0447092056274414,10.111894607543944,2.6862800121307373,0.9340102076530457,0.0110525423660874
2501709252.0,-0.4921215176582336,-0.0593716949224472,9.953631401062012,2.5771636962890625,0.3296936452388763,0.1604859977960586
2501717585.0,-0.4677728712558746,0.0582371540367603,9.807744979858398,2.7052602767944336,0.4242869913578033,0.0303912870585918
2501725918.0,-0.4215072691440582,0.1136460825800895,9.889808654785156,2.7127397060394287,0.9242512583732604,0.0885099917650222
2501734251.0,-0.3679978847503662,-0.0617249049246311,10.01801586151123,2.6293399333953857,0.7543008327484131,0.1381759941577911
2501742584.0,-0.3245323598384857,-0.120761290192604,9.926506996154783,2.6400463581085205,0.3371729254722595,0.0283677633851766
2501750917.0,-0.3571417331695556,0.0678641870617866,9.72988510131836,2.725162506103516,0.5425223112106323,0.1197849661111831
2501759250.0,-0.3953745365142822,0.1714559495449066,9.793588638305664,2.744424343109131,1.0424609184265137,0.134333848953247
2501767583.0,-0.4415104687213897,-0.0043579079210758,10.01667594909668,2.669349193572998,1.2512937784194946,0.0685564950108528
2501775916.0,-0.4576453566551208,-0.2137674242258072,9.998454093933104,2.5777270793914795,0.52943354845047,0.0877671763300895
2501784249.0,-0.4687931537628174,-0.0695669651031494,9.827570915222168,2.765402317047119,0.3648107647895813,0.0993704199790954
2501792582.0,-0.450542539358139,0.1969621926546096,9.80519676208496,2.8246994018554688,0.676177442073822,0.0764456838369369
2501800915.0,-0.4102203547954559,0.1753091514110565,9.972192764282228,2.763686418533325,1.078141689300537,0.0893808752298355
2501809248.0,-0.3650107085704803,-0.0736506953835487,10.053231239318848,2.7039029598236084,0.7387017011642456,0.0681722834706306
2501817581.0,-0.3396225571632385,-0.148505225777626,9.806182861328123,2.551626205444336,0.4254652857780456,0.0630494430661201
2501825914.0,-0.4144448041915893,0.0090710157528519,9.71383285522461,2.789326429367065,0.6539698839187622,0.1127154529094696
2501834247.0,-0.4380554854869842,0.1495381742715835,9.86741542816162,2.783921480178833,1.1157431602478027,0.041482251137495
2501842580.0,-0.4626722037792206,0.0250237379223108,10.117142677307127,2.7254443168640137,1.0937405824661257,0.1342314034700393
2501850913.0,-0.4728931784629822,-0.0825016275048255,10.054058074951172,2.64189076423645,0.4440355896949768,0.1611519604921341
2501859246.0,-0.4574332535266876,0.018864668905735,9.84596347808838,2.7127139568328857,0.3079215288162231,0.1100259572267532
2501867579.0,-0.4346698522567749,0.1349498927593231,9.789874076843262,2.718630790710449,0.7831936478614807,0.0481163375079631
2501875912.0,-0.3957118690013885,0.0093358745798468,9.999454498291016,2.6292884349823,0.8763269782066345,0.0698884427547454
2501884245.0,-0.3466007113456726,-0.1336179077625274,10.004284858703612,2.7047479152679443,0.4361207187175751,0.0675831586122512
2501892578.0,-0.3441028594970703,-0.0351567864418029,9.827141761779783,2.748420238494873,0.2728044092655182,0.0643813759088516
2501900911.0,-0.4170162975788116,0.1976056843996048,9.804738998413086,2.7604331970214844,0.7896996736526489,0.023321758955717
2501909244.0,-0.5067934989929199,0.1021870300173759,9.88035774230957,2.693042278289795,1.2688395977020264,0.0320562161505222
2501917577.0,-0.489586591720581,-0.1572524309158325,10.103849411010742,2.542276859283448,0.7459249496459961,-0.0491024889051914
2501925910.0,-0.4985599219799042,-0.1443503946065902,9.906550407409668,2.684999465942383,0.2815388739109039,0.0173024162650108
2501934243.0,-0.4746686220169067,0.0536976121366024,9.812995910644531,2.783690929412842,0.3918337225914001,0.069606676697731
2501942576.0,-0.4100793004035949,0.2721053659915924,9.884355545043944,2.805950164794922,1.0087014436721802,0.1095136702060699
2501950909.0,-0.3921096920967102,0.081366553902626,10.026890754699709,2.6576435565948486,0.81954026222229,0.1075926050543785
2501959242.0,-0.3520411849021911,-0.1358379274606704,9.929088592529297,2.6137149333953857,0.4174736142158508,0.0959893465042114
2501967575.0,-0.3734495639801025,-0.0897019505500793,9.69207000732422,2.667197704315185,0.4191385507583618,0.0413797944784164
2501975908.0,-0.4822578728199005,0.1596644669771194,9.75747013092041,2.79928994178772,1.056369423866272,0.0386903025209903
2501984241.0,-0.473619282245636,0.075511135160923,10.013144493103027,2.74324631690979,1.173375368118286,0.0571325533092021
2501992574.0,-0.463019460439682,-0.0347943641245365,10.10529899597168,2.5566208362579346,0.7508429288864136,0.0418920740485191
2502000907.0,-0.4570501446723938,-0.0652552545070648,9.915678024291992,2.651111602783203,0.3352775275707245,0.0359751917421817
2502009240.0,-0.4399490356445312,0.0996102020144462,9.779895782470703,2.67798113822937,0.5299713611602783,-0.0733335614204406
2502017573.0,-0.415308266878128,0.0736927315592765,9.8604154586792,2.67864727973938,0.8740730285644531,0.1362036913633346
2502025906.0,-0.3608168363571167,-0.0961256474256515,9.997620582580566,2.581825494766236,0.7565036416053772,-0.0334265790879726
2502034239.0,-0.3075912892818451,-0.1235335916280746,9.882109642028809,2.713610410690308,0.3108415603637695,0.185408666729927
2502042572.0,-0.4070678651332855,0.0835102945566177,9.798762321472168,2.6568493843078613,0.6256661415100098,0.1410447806119918
2502050905.0,-0.4439204037189483,0.165283590555191,9.845160484313965,2.6968328952789307,1.189435362815857,0.0953233763575553
2502059238.0,-0.4921009838581085,-0.069122239947319,10.086249351501465,2.66007661819458,1.0848524570465088,0.0698115974664688
2502067571.0,-0.4611392617225647,-0.2273496091365814,9.980233192443848,2.6353847980499268,0.466909110546112,0.0692480877041816
2502075904.0,-0.464343249797821,-0.0854542925953865,9.841878890991213,2.787174701690674,0.4121458828449249,0.0610003061592578
2502084237.0,-0.3946411609649658,0.2228704541921615,9.802252769470217,2.8588690757751465,0.7508429884910583,-0.0360648445785045
2502092570.0,-0.3560884892940521,0.1634827852249145,10.019455909729004,2.6631505489349365,0.8946411609649658,0.1257530897855758
2502100903.0,-0.3348560333251953,-0.1029104813933372,9.985557556152344,2.5456583499908447,0.6030743718147278,0.129748910665512
2502109236.0,-0.3393490016460418,-0.1513633877038955,9.793672561645508,2.5916099548339844,0.4370684921741485,0.2172471284866333
2502117569.0,-0.469905823469162,0.0112766344100236,9.715001106262209,2.739813804626465,0.7381638288497925,0.0890478938817977
2502125902.0,-0.5010190010070801,0.1145306080579757,9.91897201538086,2.7546701431274414,1.2342345714569092,0.0816965997219085
2502134235.0,-0.5120770931243896,-0.000317751429975,10.145596504211426,2.7227799892425537,1.12824285030365,0.1323615610599517
2502142568.0,-0.4737599790096283,-0.0808464661240577,10.013602256774902,2.574089765548706,0.4122739136219024,-0.0044056489132344
2502150901.0,-0.4221870303153991,0.0308034960180521,9.845352172851562,2.656900644302368,0.4055373966693878,-0.0033042361028492
2502159234.0,-0.3957092761993408,0.1156396716833114,9.802014350891112,2.75134015083313,0.9122381806373596,0.0218105223029851
2502167567.0,-0.3562870621681213,-0.0151319596916437,9.970836639404297,2.68026089668274,0.7538397312164307,-0.0127815036103129
2502175900.0,-0.3487618267536163,-0.1574460566043853,9.930147171020508,2.69949722290039,0.4817396998405456,0.0421226099133491
2502184233.0,-0.3815514743328094,-0.0307803209871053,9.793174743652344,2.8092029094696045,0.4422425627708435,0.1502402871847152
2502192566.0,-0.4462364614009857,0.1904948204755783,9.7592191696167,2.793424606323242,1.0002487897872925,0.054622359573841
2502200899.0,-0.5201542377471924,0.0887894481420517,9.99496841430664,2.747318983078003,1.1756806373596191,0.1947578489780426
2502209232.0,-0.5083141922950745,-0.1592640727758407,10.072443008422852,2.6112303733825684,0.7962570190429688,-0.0114495633170008
2502217565.0,-0.4644244015216827,-0.1653427332639694,9.88599681854248,2.701418161392212,0.2942691445350647,0.0632287338376045
2502225898.0,-0.4442364275455475,0.1289656609296798,9.814735412597656,2.845446825027466,0.5743095874786377,0.0483980923891067
2502234231.0,-0.3729817867279053,0.2317416816949844,9.906085968017578,2.80238938331604,0.9481748938560486,0.0966809317469596
2502242564.0,-0.3234112858772278,0.0577219314873218,10.051274299621582,2.545248031616211,0.8605486154556274,0.1528017073869705
2502250897.0,-0.3301713466644287,-0.1399316489696502,9.872666358947754,2.636742115020752,0.4344046115875244,0.0575423762202262
2502259230.0,-0.3922072052955627,-0.0180738680064678,9.734452247619627,2.705080986022949,0.6431094408035278,0.1001388505101203
2502267563.0,-0.4560655057430267,0.1278630942106247,9.76344108581543,2.854668140411377,1.1076492071151731,0.0598476640880107
2502275896.0,-0.4880696833133697,0.1116974651813507,10.053807258605955,2.749931812286377,1.093791961669922,0.1386626660823822
2502284229.0,-0.4841504693031311,-0.0599591881036758,10.136507987976074,2.6221418380737305,0.603714644908905,0.0317488424479961
2502292562.0,-0.4524851143360138,-0.0331076420843601,9.901437759399414,2.623013019561768,0.4032576978206634,0.0611283741891384
2502300895.0,-0.4407670497894287,0.1123314425349235,9.763534545898438,2.735433578491211,0.6245390772819519,0.0984482988715171
2502309228.0,-0.3908139765262604,0.0870182812213897,9.934683799743652,2.729901075363159,0.8398779034614563,0.0374352075159549
2502317561.0,-0.3146584033966064,-0.0952908471226692,10.02712345123291,2.646936655044556,0.7001779675483704,0.0457342118024826
2502325894.0,-0.3310580253601074,-0.0862747132778167,9.8580322265625,2.5786232948303223,0.3779508471488952,-0.009912708774209
2502334227.0,-0.406283974647522,0.141192615032196,9.739385604858398,2.7043635845184326,0.6737696528434753,0.0428141914308071
2502342560.0,-0.469109296798706,0.1757121235132217,9.883858680725098,2.703108549118042,1.208645939826965,0.1190165430307388
2502350893.0,-0.4789942502975464,-0.0310722272843122,10.105289459228516,2.5332350730896,1.0869016647338867,0.15812948346138
2502359226.0,-0.4775071442127228,-0.201855719089508,10.002004623413086,2.6522133350372314,0.3843031525611877,0.0060321521013975
2502367559.0,-0.4360694587230682,-0.0053345644846558,9.809480667114258,2.783178806304932,0.3865572214126587,0.0887917429208755
2502375892.0,-0.432153582572937,0.219204306602478,9.838497161865234,2.967704057693481,0.888954758644104,0.1043395847082138
2502384225.0,-0.3751693665981293,0.1411318182945251,10.02760887145996,2.7327444553375244,1.0792430639266968,0.0836432799696922
2502392558.0,-0.3674531579017639,-0.106093980371952,9.981172561645508,2.5629217624664307,0.6009995341300964,0.0454780720174312
2502400891.0,-0.3543735146522522,-0.0973772928118705,9.73534107208252,2.602214097976685,0.4106858670711517,0.0386646911501884
2502409224.0,-0.4402563273906708,0.095832385122776,9.768532752990724,2.8352270126342773,0.8561941981315613,0.141787588596344
2502417557.0,-0.4654667377471924,0.1545179188251495,9.91217803955078,2.7656073570251465,1.1949681043624878,0.0595146752893924
2502425890.0,-0.4622824192047119,-0.0158793423324823,10.152176856994627,2.681413173675537,0.8788884282112122,0.0601038038730621
2502434223.0,-0.4517208337783813,-0.1023382619023323,9.956184387207031,2.58597469329834,0.3534892797470093,0.0386390760540962
2502442556.0,-0.4429675042629242,0.0442856401205062,9.81629467010498,2.6325159072875977,0.4571245014667511,0.1377405524253845
2502450889.0,-0.4449169039726257,0.1332929730415344,9.844135284423828,2.728261947631836,0.8334231972694397,0.1672481447458267
2502459222.0,-0.3791261315345764,-0.0393877103924751,10.028874397277832,2.6271111965179443,0.9084472060203552,0.0256526544690132
2502467555.0,-0.3460953831672668,-0.1367199569940567,9.952635765075684,2.621399164199829,0.4289743900299072,0.0450170151889324
2502475888.0,-0.3330104053020477,-0.027006322517991,9.757187843322754,2.6998813152313232,0.4899362921714782,-0.0219513997435569
2502484221.0,-0.4290892481803894,0.1783285439014434,9.751014709472656,2.8251092433929443,0.989337146282196,0.1661723554134369
2502492554.0,-0.4706428945064544,0.0059181926771998,9.971834182739258,2.6619722843170166,1.2426875829696655,0.1626375913619995
2502500887.0,-0.4809216856956482,-0.2012026011943817,10.112218856811523,2.641455173492432,0.7723332643508911,-0.0253837071359157
2502509220.0,-0.4503152966499328,-0.1356095522642135,9.87740993499756,2.745244026184082,0.2706528604030609,-7.68427125876e-05
2502517553.0,-0.4530401825904846,0.1390377879142761,9.813352584838867,2.944471836090088,0.5851956009864807,-0.0387543402612209
2502525886.0,-0.3879620134830475,0.2083211243152618,9.913751602172852,2.801313638687134,0.9308341145515442,0.1151231750845909
2502534219.0,-0.3393680155277252,-0.015250027179718,10.066264152526855,2.682950496673584,0.7586040496826172,0.1227306202054023
2502542552.0,-0.3509367108345032,-0.1743519455194473,9.862279891967772,2.633873462677002,0.3948050141334533,0.1019830778241157
2502550885.0,-0.41519296169281,0.0004089646972715,9.709609031677246,2.804182529449463,0.5419076681137085,0.1454760730266571
2502559218.0,-0.4587114453315735,0.1527841687202453,9.815696716308594,2.782999277114868,1.1444823741912842,0.0723474025726318
2502567551.0,-0.4960485100746155,0.0820125788450241,10.106207847595217,2.706131219863892,1.0755802392959597,0.030365677550435
2502575884.0,-0.4724277555942535,-0.062252901494503,10.132040977478027,2.69247841835022,0.5258217453956604,0.1050567850470542
2502584217.0,-0.4426399767398834,-0.0407872907817363,9.859063148498535,2.677110433578491,0.3362252712249756,0.1147133633494377
2502592550.0,-0.4277290403842926,0.1136767119169235,9.74668312072754,2.6838724613189697,0.6814539432525635,0.10774627327919
2502600883.0,-0.3768964409828186,0.057750329375267,9.879480361938477,2.669528245925904,1.0033992528915403,-0.0118081616237759
2502609216.0,-0.3395231962203979,-0.1050786674022674,10.042264938354492,2.606722116470337,0.6514596343040466,0.14767886698246
2502617549.0,-0.3658501505851745,-0.0969345793128013,9.865853309631348,2.639969825744629,0.3186795115470886,0.0710154697299003
2502625882.0,-0.4104801118373871,0.1078382432460784,9.78582763671875,2.768911600112915,0.5717225074768066,0.0923264995217323
2502634215.0,-0.5120757222175598,0.1365659981966018,9.85895824432373,2.684333562850952,1.1414856910705566,0.0213494654744863
2502642548.0,-0.4862956702709198,-0.0826847553253173,10.110344886779783,2.574525117874145,0.9041953086853028,-0.0007684270385652
2502650881.0,-0.4606882631778717,-0.2229299247264862,9.98008632659912,2.680183887481689,0.362889677286148,-0.0288160145282745
2502659214.0,-0.4029562473297119,0.0167459622025489,9.853425979614258,2.950260639190674,0.3288483619689941,0.0391513593494892
2502667547.0,-0.3788990378379822,0.2582014203071594,9.848834991455078,2.874929189682007,0.9813198447227478,0.0522914603352546
2502675880.0,-0.3710517883300781,0.141515627503395,10.01058292388916,2.741863250732422,0.954885959625244,0.1259067803621292
2502684213.0,-0.3338371217250824,-0.1322233527898788,10.0433349609375,2.554187774658203,0.6242061853408813,-0.0081197125837206
2502692546.0,-0.3486897647380829,-0.1392587274312973,9.780282020568848,2.7024168968200684,0.3496727347373962,0.0270614419132471
2502700879.0,-0.4334902167320251,0.0860453993082046,9.696171760559082,2.739865303039551,0.755325436592102,0.0488335415720939
2502709212.0,-0.4880555868148803,0.1742529720067978,9.95994758605957,2.704901695251465,1.2761396169662476,0.1054153814911842
2502717545.0,-0.4826986193656921,0.0237034671008586,10.14912223815918,2.624063014984131,0.9249940514564514,-0.0529958494007587
2502725878.0,-0.4662932455539703,-0.0773455053567886,9.970705032348633,2.529649257659912,0.3887088298797607,0.0672757923603057
2502734211.0,-0.4651047587394714,0.029466226696968,9.810674667358398,2.6106412410736084,0.3555127680301666,0.052880585193634
2502742544.0,-0.441556304693222,0.1283881962299347,9.794408798217772,2.6934263706207275,0.8288382887840271,-0.0200815610587596
2502750877.0,-0.3839035034179687,-0.0274744145572185,10.009194374084473,2.633028030395508,0.9664891958236694,0.0032914294861257
2502759210.0,-0.34169402718544,-0.1317255795001983,9.962284088134766,2.647166967391968,0.3411687612533569,0.0570300929248333
2502767543.0,-0.3602963984012604,0.0094469543546438,9.769895553588867,2.740710020065308,0.4127349555492401,0.0045977551490068
2502775876.0,-0.4446020424365997,0.1780199408531189,9.760366439819336,2.709179162979126,1.0141315460205078,0.1562596261501312
2502784209.0,-0.4796899855136871,0.0570523850619792,10.011143684387209,2.697985887527466,1.1585959196090698,0.114457219839096
2502792542.0,-0.5074717998504639,-0.2071626335382461,10.056432723999023,2.6404049396514893,0.5954413414001465,0.0177890863269567
2502800875.0,-0.4637156128883362,-0.1670902967453003,9.912476539611816,2.721576452255249,0.3096376657485962,0.1285450309514999
2502809208.0,-0.4393278658390045,0.1362345665693283,9.77873706817627,2.8515431880950928,0.5579677224159241,-0.0090418253093957
2502817541.0,-0.3773454427719116,0.2202914804220199,9.904921531677246,2.821113348007202,1.0954054594039917,0.0432752519845962
2502825874.0,-0.3687543869018554,-0.017245041206479,10.034846305847168,2.569120407104492,0.755197286605835,0.0371534451842308
2502834207.0,-0.3311668932437897,-0.216610237956047,9.876002311706545,2.6089508533477783,0.507891833782196,-0.0203633178025484
2502842540.0,-0.3915973901748657,-0.0428312942385673,9.710064888000488,2.7209362983703613,0.6014350652694702,0.0192234851419925
2502850873.0,-0.4429510831832886,0.1373789310455322,9.810599327087402,2.8332290649414062,1.035391330718994,0.107899971306324
2502859206.0,-0.4767930805683136,0.076320894062519,10.088342666625977,2.6522645950317383,1.0391823053359983,0.1164039000868797
2502867539.0,-0.4762157499790191,-0.0747771635651588,10.099295616149902,2.577880859375,0.5419331789016724,0.1582319438457489
2502875872.0,-0.4381965696811676,-0.0451324135065078,9.8675537109375,2.581031084060669,0.2968305945396423,0.037665732204914
2502884205.0,-0.4439859986305237,0.1005647853016853,9.76427936553955,2.703416109085083,0.7172881960868835,0.0342846550047397
2502892538.0,-0.390792965888977,0.0571728870272636,9.934441566467283,2.861558437347412,1.0083684921264648,0.0483468696475029
2502900871.0,-0.3452007174491882,-0.1086103841662406,10.024004936218262,2.58200478553772,0.6354251503944397,0.0177890881896018
2502909204.0,-0.3522797524929046,-0.0806517750024795,9.85930347442627,2.656644582748413,0.4133497476577759,0.1238064095377922
2502917537.0,-0.4017547369003296,0.119165264070034,9.73496913909912,2.787917375564575,0.6823760271072388,0.0554420165717601
2502925870.0,-0.4764748513698578,0.1493458598852157,9.923293113708496,2.7252652645111084,1.1412551403045654,0.0901749208569526
2502934203.0,-0.4727276861667633,-0.0784568563103675,10.063936233520508,2.613330841064453,0.9610332250595092,0.0037524856161326
2502942536.0,-0.4672958552837372,-0.2056008875370025,10.018047332763672,2.725649118423462,0.4521040916442871,0.0751137360930442
2502950869.0,-0.4329918920993805,0.0061495983973145,9.789241790771484,2.7713701725006104,0.3801280558109283,0.0500886365771293
2502959202.0,-0.4128104746341705,0.2427035868167877,9.85440731048584,2.8509538173675537,0.7110127210617065,0.0571325533092021
2502967535.0,-0.3627589046955108,0.1409506946802139,9.97558307647705,2.654748678207397,0.935726523399353,0.0885099843144416
2502975868.0,-0.3517231047153473,-0.1429986804723739,10.031198501586914,2.6059536933898926,0.6202358603477478,-0.1025850102305412
2502984201.0,-0.3595752716064453,-0.144514188170433,9.778252601623535,2.695373296737671,0.3595854341983795,0.0161497760564088
2502992534.0,-0.44704070687294,0.0770029574632644,9.717411041259766,2.852311372756958,0.8101654052734375,0.1185042634606361
2503000867.0,-0.4605201184749603,0.1484899073839187,9.927350997924805,2.7609455585479736,1.1585191488265991,0.0683772042393684
2503009200.0,-0.4783294796943664,-0.0281448271125555,10.169801712036133,2.6530582904815674,0.9501217007637024,-0.0808641389012336
2503017533.0,-0.4698973894119262,-0.093328483402729,9.972887992858888,2.576676845550537,0.2791055142879486,0.1029820367693901
2503025866.0,-0.4547258913516998,0.0494438707828521,9.748887062072754,2.6692209243774414,0.3619675636291504,0.1285450458526611
2503034199.0,-0.4228354692459106,0.1114346161484718,9.829072952270508,2.735126256942749,0.943615734577179,0.1022904515266418
2503042532.0,-0.3909187018871307,-0.0272152759134769,10.021597862243652,2.6285712718963623,0.9066031575202942,0.1272643208503723
2503050865.0,-0.3734457492828369,-0.1314795762300491,9.940061569213867,2.6365885734558105,0.3396832048892975,0.0479114279150962
2503059198.0,-0.3523473143577575,0.0128732649609446,9.756389617919922,2.7785682678222656,0.4206241369247436,0.0545198991894722
2503067531.0,-0.432715356349945,0.1802643835544586,9.739446640014648,2.800852537155152,0.992256999015808,0.1763155907392501
2503075864.0,-0.4748621881008148,0.0474940836429595,10.006614685058594,2.6495749950408936,1.1740156412124634,0.1462700963020324
2503084197.0,-0.4742651879787445,-0.1958412081003189,10.07957363128662,2.665455818176269,0.7324519157409668,0.1174796968698501
2503092530.0,-0.4669678807258606,-0.1086287945508956,9.914644241333008,2.7554640769958496,0.2597923874855041,-0.0326837673783302
2503100863.0,-0.4374171495437622,0.1876961141824722,9.803091049194336,2.926874876022339,0.590523362159729,0.1404300481081009
2503109196.0,-0.3975660502910614,0.2602192461490631,9.952558517456056,2.87766981124878,1.0116469860076904,0.1013939529657363
2503117529.0,-0.3434002697467804,0.0140735944733023,10.045364379882812,2.633770704269409,0.7409557104110718,0.0706056356430053
2503125862.0,-0.3719425797462463,-0.1621210873126983,9.840883255004885,2.524449586868286,0.4082525074481964,0.0588230900466442
2503134195.0,-0.408847451210022,-0.0054373517632484,9.72426414489746,2.722447156906128,0.5807899236679077,0.069171242415905
2503142528.0,-0.4881605803966522,0.1755468100309372,9.864959716796877,2.824597120285034,1.057522177696228,0.0977311134338378
2503150861.0,-0.4776507318019867,0.0722413882613182,10.134041786193848,2.680927038192749,1.0755289793014526,0.0800060704350471
2503159194.0,-0.4708313643932342,-0.048811174929142,10.082033157348633,2.638022899627685,0.5175228714942932,0.0554420165717601
2503167527.0,-0.4321714341640472,-0.0177751425653696,9.849809646606444,2.51666259765625,0.3376596868038177,-0.056607462465763
2503175860.0,-0.4190731048583984,0.0820967331528663,9.720909118652344,2.6242682933807373,0.6931083798408508,0.0669940412044525
2503184193.0,-0.3679226040840149,0.0212423056364059,9.955421447753906,2.6873815059661865,0.9453830122947692,0.143683061003685
2503192526.0,-0.3514226973056793,-0.1346443444490432,10.01126480102539,2.744142770767212,0.6131919622421265,0.0101560447365045
2503200859.0,-0.3437547981739044,-0.0956206172704696,9.854357719421388,2.7380211353302,0.3574594855308532,0.0239621177315711
2503209192.0,-0.4219956696033478,0.1052081584930419,9.75998306274414,2.7408127784729004,0.638217031955719,0.1082585602998733
2503217525.0,-0.4605709016323089,0.0954036563634872,9.851299285888672,2.7102296352386475,1.192739725112915,0.1631242781877517
2503225858.0,-0.4679969847202301,-0.1395051330327987,10.067934036254885,2.71348237991333,0.8753537535667419,0.1381503790616989
2503234191.0,-0.4797520339488983,-0.2438878715038299,9.921825408935549,2.668426990509033,0.4842755198478699,0.0554420091211795
2503242524.0,-0.4334594905376434,-0.0040534231811761,9.837881088256836,2.7901971340179443,0.5083017349243164,-0.0501014478504657
2503250857.0,-0.4027115106582641,0.2677495181560516,9.866934776306152,2.731745481491089,0.8772748112678528,0.1225256994366645
2503259190.0,-0.3873082399368286,0.1108394488692283,10.037872314453123,2.69942045211792,0.8960500955581665,0.1316699683666229
2503267523.0,-0.3347028791904449,-0.1541981697082519,9.99820613861084,2.570119619369507,0.6217983961105347,0.1331043839454651
2503275856.0,-0.3812492489814758,-0.087288312613964,9.734600067138672,2.686971426010132,0.5003868937492371,0.0621785558760166
2503284189.0,-0.4485270977020263,0.0865542963147163,9.752150535583496,2.793757677078247,1.0130046606063845,0.0365899391472339
2503292522.0,-0.4725664258003235,0.1532749533653259,9.966768264770508,2.8429372310638428,1.3549034595489502,0.0372815206646919
2503300855.0,-0.5031470060348511,-0.0136842438951134,10.153961181640623,2.622807741165161,0.9558591842651368,0.1240625455975532
2503309188.0,-0.4883211553096771,-0.0625742748379707,9.960509300231934,2.688892602920532,0.4360183179378509,0.1277766078710556
2503317521.0,-0.4680263102054596,0.1061692461371421,9.790023803710938,2.704210042953491,0.5605291128158569,0.0207859519869089
2503325854.0,-0.4421400129795074,0.0964862257242202,9.881253242492676,2.698472738265991,0.961955428123474,0.1110761389136314
2503334187.0,-0.3680738806724548,-0.0911212339997291,10.034457206726074,2.651547431945801,0.7749715447425842,0.0486542396247386
2503342520.0,-0.3206230103969574,-0.1078356131911277,9.889408111572266,2.624370813369751,0.3529001772403717,0.0798523873090744
2503350853.0,-0.34543177485466,0.0741671100258827,9.79694366455078,2.8044896125793457,0.5061244368553162,0.0606929287314415
2503359186.0,-0.4274436831474304,0.1955284476280212,9.829001426696776,2.817450761795044,1.1859261989593506,0.0967065468430519
2503367519.0,-0.4678104817867279,0.006059288047254,10.081286430358888,2.6981141567230225,1.1571359634399414,-0.0607057400047779
2503375852.0,-0.4751215875148773,-0.2193271815776825,10.02076244354248,2.59496545791626,0.567726731300354,-0.0197485759854316
2503384185.0,-0.4750251471996307,-0.0938169881701469,9.842845916748049,2.7728817462921143,0.4136570990085602,0.0016777325654402
2503392518.0,-0.4432061016559601,0.1814116537570953,9.796269416809082,2.900107860565185,0.7296855449676514,0.106875404715538
2503400851.0,-0.3970755338668823,0.1734628826379776,10.010605812072754,2.779003858566284,1.0671275854110718,0.0564665831625461
2503409184.0,-0.3682456314563751,-0.0403017662465572,10.016349792480469,2.596579074859619,0.518086314201355,0.0405345298349857
2503417517.0,-0.3372531533241272,-0.1328251510858535,9.790533065795898,2.6995482444763184,0.2815644741058349,0.1274948418140411
2503425850.0,-0.3954113125801086,0.033546544611454,9.719006538391112,2.792399883270264,0.7227441072463989,0.0909177288413047
2503434183.0,-0.4297052025794983,0.1369197368621826,9.851905822753906,2.6946303844451904,1.249603271484375,0.0578753687441349
2503442516.0,-0.4402269423007965,0.008136449381709,10.12773323059082,2.7139692306518555,1.0890789031982422,0.0624603144824504
2503450849.0,-0.4642114341259002,-0.0407225601375103,10.02353572845459,2.615380048751831,0.5326352119445801,0.1365879029035568
2503459182.0,-0.4463403522968292,0.0382335036993026,9.83328914642334,2.618889331817627,0.4436001777648926,0.0323379747569561
2503467515.0,-0.4305475950241089,0.145436406135559,9.825543403625488,2.6772639751434326,0.7845255732536316,0.1190677806735038
2503475848.0,-0.404629111289978,0.0082836132496595,9.98461627960205,2.5601301193237305,0.9552445411682128,0.1354864984750747
2503484181.0,-0.349226713180542,-0.1670157760381698,9.961297988891602,2.6686575412750244,0.6542516350746155,0.1678372770547866
2503492514.0,-0.3224460482597351,-0.0239933114498853,9.819801330566406,2.66648006439209,0.2867129445075989,0.0716558247804641
2503500847.0,-0.4208531081676483,0.1994927674531936,9.784159660339355,2.792630672454834,1.0461751222610474,0.1488059014081955
2503509180.0,-0.5048094391822815,0.0907159969210624,9.904913902282717,2.747652053833008,1.2250134944915771,-0.011961848475039
2503517513.0,-0.4455586373806,-0.1855594664812088,10.062074661254885,2.5693254470825195,0.8367530107498169,0.0983970835804939
2503525846.0,-0.4841554164886474,-0.1399808824062347,9.929072380065918,2.7448089122772217,0.4366843104362488,-0.0253324806690216
2503534179.0,-0.4746569991111755,0.0643257573246955,9.759095191955566,2.789659261703491,0.5682646632194519,-0.0804799273610115
2503542512.0,-0.3821403980255127,0.2390472888946533,10.025096893310549,2.7517755031585693,0.9647472500801086,0.0845141634345054
2503550845.0,-0.3775262236595154,0.0524141117930412,9.955726623535156,2.667479515075684,0.7375747561454773,0.0535209439694881
2503559178.0,-0.3344059586524963,-0.1769854724407196,9.97282600402832,2.595298290252685,0.4156805872917175,0.1015988588333129
2503567511.0,-0.3553312122821808,-0.0510251112282276,9.67475414276123,2.6801071166992188,0.5526655912399292,0.0380243323743343
2503575844.0,-0.459250807762146,0.1302623301744461,9.828524589538574,2.857306241989136,1.0264776945114136,0.0341821983456611
2503584177.0,-0.4658288657665252,0.0499238669872283,10.040027618408203,2.749880075454712,1.1122084856033323,0.1450149863958358
2503592510.0,-0.4643845558166504,-0.0593114458024501,10.141693115234377,2.647013664245605,0.5966964364051819,0.0970651432871818
2503600843.0,-0.4807773530483246,-0.0349873788654804,9.857714653015137,2.5549561977386475,0.3639655113220215,-0.0131913321092724
2503609176.0,-0.4476084113121032,0.1134450584650039,9.72877311706543,2.733128547668457,0.648975133895874,0.1048262640833854
2503617509.0,-0.432568609714508,0.0583555959165096,9.92175579071045,2.811661720275879,0.9574984908103944,0.1311832964420318
2503625842.0,-0.3424245715141296,-0.1325501054525375,10.011869430541992,2.657003164291382,0.6744100451469421,0.0497556552290916
2503634175.0,-0.3247734904289245,-0.0778432860970497,9.852588653564451,2.5843095779418945,0.3219325244426727,0.0294947922229766
2503642508.0,-0.3688026964664459,0.0949078947305679,9.727577209472656,2.7546443939208984,0.685552179813385,0.1012146398425102
2503650841.0,-0.4332430064678192,0.151926040649414,9.928559303283691,2.74058198928833,1.2378463745117188,0.1054666191339492
2503659174.0,-0.4954312443733215,-0.0975086838006973,10.066061973571776,2.6516242027282715,1.014259696006775,0.1117421090602874
2503667507.0,-0.4583427011966705,-0.2266905158758163,9.969839096069336,2.63356614112854,0.4936247766017914,0.0903542190790176
2503675840.0,-0.482867568731308,-0.0176770891994237,9.78750705718994,2.802978515625,0.3718290328979492,0.018480671569705
2503684173.0,-0.4398060441017151,0.2205979377031326,9.864986419677734,2.8420658111572266,0.859677791595459,0.0874598026275634
2503692506.0,-0.3944801688194275,0.1272306144237518,10.029624938964844,2.7046968936920166,0.8733046054840088,0.0047770547680556
2503700839.0,-0.3329006433486938,-0.1137876212596893,9.959188461303713,2.6392266750335693,0.5207758545875549,-0.0360392294824123
2503709172.0,-0.3545730710029602,-0.0850257277488708,9.744946479797363,2.744987726211548,0.2989309132099151,0.102930799126625
2503717505.0,-0.4031772315502167,0.0935400873422622,9.71231460571289,2.768040418624878,0.808141827583313,0.0666866600513458
2503725838.0,-0.45136559009552,0.1381092518568039,9.96735668182373,2.717811346054077,1.2475029230117798,0.102905198931694
2503734171.0,-0.4455346763134002,-0.0096595371142029,10.108664512634276,2.7138919830322266,0.9189746379852296,0.0891503393650055
2503742504.0,-0.4486855566501617,-0.0569436848163604,9.990352630615234,2.527881860733032,0.4285133779048919,0.1377405524253845
2503750837.0,-0.4503134191036224,0.0726205334067344,9.76826286315918,2.6729094982147217,0.559299647808075,0.1009072884917259
2503759170.0,-0.4158175885677337,0.1419727057218551,9.889094352722168,2.770346164703369,0.9324734210968018,0.1279815435409546
2503767503.0,-0.3630465865135193,-0.0516828335821628,10.001822471618652,2.773599147796631,0.6929035186767578,0.0938377454876899
2503775836.0,-0.3430186808109283,-0.1238814070820808,9.932158470153809,2.677135944366455,0.3537710011005401,-0.0287904012948274
2503784169.0,-0.3484194278717041,0.0326260700821876,9.768080711364746,2.790043354034424,0.4985682666301727,0.1374075561761856
2503792502.0,-0.4401951134204864,0.1727737188339233,9.8014497756958,2.8517990112304688,1.0043212175369265,0.042148221284151
2503800835.0,-0.4703352153301239,0.0095109418034553,10.03483772277832,2.6029062271118164,1.245556354522705,-0.0172383803874254
2503809168.0,-0.4921178817749023,-0.1818680614233017,10.034796714782717,2.644682645797729,0.5917272567749023,-0.0046874051913619
2503817501.0,-0.4382469654083252,-0.0942497104406356,9.86777687072754,2.750392436981201,0.2826915085315704,0.0162266176193952
2503825834.0,-0.4612019956111908,0.1566748023033142,9.805569648742676,2.8617122173309326,0.58570796251297,-0.0012807117309421
2503834167.0,-0.4082706272602081,0.1842608302831649,9.975607872009276,2.7173502445220947,1.1179972887039185,-0.0385750383138656
2503842500.0,-0.3689817190170288,-0.0512361750006675,10.05985164642334,2.558772325515747,0.6168035268783569,0.0276761837303638
2503850833.0,-0.359001487493515,-0.1664611995220184,9.828656196594238,2.6209895610809326,0.309253454208374,0.030698662623763
2503859166.0,-0.3961977958679199,0.024480065330863,9.743807792663574,2.672243595123291,0.7023295164108276,0.1143035367131233
2503867499.0,-0.4600039422512054,0.1363755017518997,9.878195762634276,2.80635952949524,1.191253900527954,0.1221670880913734
2503875832.0,-0.4603738188743591,0.0284397285431623,10.10361385345459,2.6686062812805176,0.9850082993507384,0.1020599231123924
2503884165.0,-0.4520176351070404,-0.072224736213684,10.043462753295898,2.546708106994629,0.4674213230609894,0.100394994020462
2503892498.0,-0.467913419008255,0.0272144190967082,9.83204746246338,2.6775457859039307,0.3976225852966308,0.1636621505022049
2503900831.0,-0.4409219920635223,0.1285667270421981,9.813385009765623,2.736074209213257,0.8827305436134338,0.0952977538108825
2503909164.0,-0.4105609357357025,0.0419312231242656,10.033910751342772,2.8102786540985107,0.9521196484565736,0.0491409115493297
2503917497.0,-0.3429666757583618,-0.1309521049261093,9.964458465576172,2.673421621322632,0.4271301627159118,0.0392538160085678
2503925830.0,-0.3177708089351654,-0.0546112209558486,9.793283462524414,2.641199111938477,0.3257234692573547,0.1289804875850677
2503934163.0,-0.4236615300178528,0.1702984422445297,9.732067108154297,2.7675540447235107,0.9513766169548036,0.0272407382726669
2503942496.0,-0.450234591960907,0.0768175199627876,9.945055961608888,2.6574130058288574,1.179906964302063,0.0827467888593673
2503950829.0,-0.4771968722343445,-0.1328864097595214,10.076281547546388,2.624908447265625,0.7839365005493164,-0.013703616335988
2503959162.0,-0.4916678071022033,-0.155167743563652,9.898385047912598,2.7118687629699707,0.2929628193378448,0.0662256032228469
2503967495.0,-0.4851421117782593,0.0617692656815052,9.803678512573242,2.8149657249450684,0.4958531558513641,0.0334137678146362
2503975828.0,-0.409304141998291,0.2498456090688705,9.91549301147461,2.8221635818481445,0.8461534976959229,0.0450170189142227
2503984161.0,-0.3786178827285766,0.0590812750160694,10.074946403503418,2.492636680603028,0.8165690898895264,-0.0616022385656833
2503992494.0,-0.3315490782260895,-0.166421428322792,9.95118808746338,2.6385865211486816,0.4271558225154876,-0.0132169462740421
2504000827.0,-0.3495942652225494,-0.0534283481538295,9.713857650756836,2.739890813827514,0.5172154903411865,0.2225493043661117
2504009160.0,-0.4634499847888946,0.1306512802839279,9.768070220947266,2.7607409954071045,1.0464311838150024,-0.0892400071024894
2504017493.0,-0.4614815413951874,0.0878059640526771,10.066128730773926,2.6870484352111816,1.1531656980514526,0.1113578900694847
2504025826.0,-0.4530995190143585,-0.0580054186284542,10.122872352600098,2.6489598751068115,0.6747941374778748,-0.008606381714344
2504034159.0,-0.467919111251831,-0.0683215260505676,9.914448738098145,2.644247055053711,0.3404771983623504,0.1226281523704528
2504042492.0,-0.4440003633499145,0.0784511566162109,9.758522033691406,2.7907605171203613,0.5549708604812622,0.0605648607015609
2504050825.0,-0.4082129299640655,0.1014282628893852,9.93135929107666,2.599447965621948,0.9085497260093688,0.0949647724628448
2504059158.0,-0.34595787525177,-0.1115220934152603,10.028395652770996,2.6435301303863525,0.6971298456192017,0.1954750418663025
2504067491.0,-0.328893631696701,-0.102020762860775,9.89243984222412,2.7304904460906982,0.4004145264625549,0.1401995122432708
2504075824.0,-0.3811530172824859,0.09217319637537,9.755945205688477,2.76409649848938,0.6328125,0.0624090880155563
2504084157.0,-0.4464329183101654,0.1434138417243957,9.836142539978027,2.784229040145874,1.184389591217041,0.1261629164218902
2504092490.0,-0.4742186963558197,-0.063922680914402,10.078195571899414,2.6185050010681152,1.1036789417266846,0.0218617506325244
2504100823.0,-0.4725840389728546,-0.2206359207630157,9.98324489593506,2.6348979473114014,0.4420120120048523,-0.0117569342255592
2504109156.0,-0.4446516036987304,-0.0217874720692634,9.81766414642334,2.8456003665924072,0.4472885131835937,0.065867006778717
2504117489.0,-0.4060489237308502,0.2212377190589904,9.824880599975586,2.947340488433838,0.7817080020904541,0.0529318153858184
2504125822.0,-0.378525048494339,0.1433945000171661,10.02419376373291,2.7078986167907715,0.9185649156570436,-0.0036372216418385
2504134155.0,-0.3689457178115845,-0.1059639006853103,9.988269805908203,2.582414627075196,0.6341444849967957,0.1536213755607605
2504142488.0,-0.3443797528743744,-0.134844496846199,9.787714958190918,2.703083038330078,0.2869690954685211,0.105441004037857
2504150821.0,-0.414458155632019,0.0855874493718147,9.717432975769045,2.7596137523651123,0.979526698589325,0.0396380312740802
2504159154.0,-0.4537976682186126,0.1672887802124023,9.948158264160156,2.699676275253296,1.2519854307174685,0.0581827349960804
2504167487.0,-0.4709044098854065,-0.0058432812802493,10.163321495056152,2.6437089443206787,1.0127739906311035,0.0019851031247526
2504175820.0,-0.4573200643062591,-0.0995909422636032,9.998297691345217,2.635282516479492,0.2367908209562301,0.0852569937705993
2504184153.0,-0.4580963850021362,0.025279639288783,9.79727554321289,2.6019835472106934,0.4609409868717193,0.114892654120922
2504192486.0,-0.4300703406333923,0.1223519295454025,9.809490203857422,2.7714731693267822,0.8191817402839661,0.1706292331218719
2504200819.0,-0.3947198688983917,-0.0479034483432769,9.98633861541748,2.613330841064453,0.872382402420044,0.1445539444684982
2504209152.0,-0.3465186059474945,-0.1673853695392608,9.918987274169922,2.6727559566497803,0.4089697301387787,0.0960149616003036
2504217485.0,-0.3338101804256439,0.0053129056468605,9.785815238952637,2.796293497085572,0.5089676380157471,0.1737285703420639
2504225818.0,-0.4399643838405609,0.1640945822000503,9.772727012634276,2.8149147033691406,0.9220996499061584,0.15789894759655
2504234151.0,-0.4706826508045196,0.0223104935139417,9.974528312683104,2.8213441371917725,1.188615798950195,0.1474739611148834
2504242484.0,-0.5026558637619019,-0.2031168043613433,10.052921295166016,2.693580389022827,0.7539166808128357,0.1320541948080063
2504250817.0,-0.4777429401874542,-0.1533049196004867,9.882162094116213,2.827466011047364,0.2636601328849792,0.191223070025444
2504259150.0,-0.4606832861900329,0.1265700459480285,9.79677677154541,2.960813283920288,0.564601719379425,0.0694529935717582
2504267483.0,-0.3990933895111084,0.220132440328598,9.955629348754885,2.857024669647217,0.9506338238716124,0.124677300453186
2504275816.0,-0.3683214485645294,0.0157278310507535,10.052741050720217,2.7549262046813965,0.7693363428115845,0.1452711373567581
2504284149.0,-0.3486193418502807,-0.1368256658315658,9.848389625549316,2.696218490600586,0.4295379519462585,0.0746526941657066
2504292482.0,-0.4097182750701904,-0.0099434098228812,9.72294807434082,2.7557969093322754,0.6073262691497803,0.040278386324644
2504300815.0,-0.4597024917602539,0.1484129875898361,9.835960388183594,2.747037172317505,1.1110047101974487,0.0440949089825153
2504309148.0,-0.4898577928543091,0.0991483107209205,10.08607006072998,2.7141482830047607,1.041615605354309,0.0476552806794643
2504317481.0,-0.497770220041275,-0.0421400256454944,10.073543548583984,2.649446964263916,0.4575343132019043,0.031492706388235
2504325814.0,-0.4879269301891327,0.0358252115547657,9.858927726745604,2.6504201889038086,0.2958571910858154,0.1263422220945358
2504334147.0,-0.4547497928142547,0.164120078086853,9.79458999633789,2.642044305801392,0.6953624486923218,0.0985763818025589
2504342480.0,-0.4057956337928772,0.0768525525927543,9.94981575012207,2.6351027488708496,0.9536306858062744,0.101240262389183
2504350813.0,-0.3641101419925689,-0.0825875699520111,9.962346076965332,2.4732468128204346,0.5426760315895081,0.1529041826725006
2504359146.0,-0.3413824141025543,-0.059870358556509,9.834453582763672,2.6789801120758057,0.2939105331897735,0.0856924355030059
2504367479.0,-0.3932814002037048,0.1521339118480682,9.734501838684082,2.715352296829224,0.8006369471549988,0.1030332595109939
2504375812.0,-0.4548795819282532,0.1389315128326416,9.921143531799316,2.6510350704193115,1.113642930984497,0.1438367366790771
2504384145.0,-0.4908652305603027,-0.0977378711104393,10.0768404006958,2.552471160888672,0.9889784455299376,0.0854106619954109
2504392478.0,-0.4537221193313598,-0.1785783171653747,9.971487998962402,2.6371266841888428,0.3516194522380829,0.0252684447914361
2504400811.0,-0.4642989635467529,0.0470177493989467,9.818010330200195,2.7638914585113525,0.4918317496776581,0.0042135417461395
2504409144.0,-0.3919390141963959,0.2366121411323547,9.886012077331545,2.7653255462646484,0.8993029594421387,0.1265471279621124
2504417477.0,-0.3459937572479248,0.0510411113500595,10.025588989257812,2.700111627578736,0.8446677923202515,0.1014707833528518
2504425810.0,-0.3316373825073242,-0.1270291954278946,9.962947845458984,2.604109525680542,0.5237982869148254,0.0494482778012752
2504434143.0,-0.336804986000061,-0.0894642546772956,9.728084564208984,2.5817482471466064,0.5207758545875549,0.0761383101344108
2504442476.0,-0.4143253564834595,0.1179627701640129,9.76636028289795,2.775648355484009,0.9037087559700012,0.0546223558485507
2504450809.0,-0.4357207417488098,0.105226069688797,9.993826866149902,2.757077932357788,1.224501371383667,0.1076438277959823
2504459142.0,-0.4382580518722534,-0.0443334430456161,10.105502128601074,2.5448131561279297,0.7943358421325684,0.1845633685588836
2504467475.0,-0.4656479656696319,-0.0614695101976394,9.941001892089844,2.468149185180664,0.4854281544685364,0.0362825617194175
2504475808.0,-0.4575891196727752,0.0703311190009117,9.749821662902832,2.597834348678589,0.5867581367492676,0.1242162361741066
2504484141.0,-0.3838077783584595,0.0882880836725235,9.948737144470217,2.683257818222046,1.0115445852279663,0.0447352603077888
2504492474.0,-0.3832722008228302,-0.0630886852741241,10.0068359375,2.6362555027008057,0.6919814348220825,0.2064635455608368
2504500807.0,-0.3208995163440704,-0.1853622496128082,9.863869667053224,2.580288410186768,0.4119665324687958,0.1065167933702468
2504509140.0,-0.310032844543457,0.0748747289180755,9.774611473083496,2.7145326137542725,0.5636028051376343,0.0666866600513458
2504517473.0,-0.4325463771820068,0.1353203952312469,9.775033950805664,2.729798555374145,1.006703495979309,0.0826443210244178
2504525806.0,-0.4500470757484436,-0.0697315782308578,10.074869155883787,2.597808599472046,1.1792666912078855,-0.0092723527923226
2504534139.0,-0.4885161519050598,-0.2281315773725509,9.96153163909912,2.682386875152588,0.6079155206680298,-0.0442613996565341
2504542472.0,-0.5194822549819946,-0.0889786407351493,9.838520050048828,2.804720163345337,0.2529789805412292,0.0049819685518741
2504550805.0,-0.4635771811008453,0.1281890422105789,9.799884796142578,2.8519275188446045,0.7822971940040588,0.093658447265625
2504559138.0,-0.4299696683883667,0.152900218963623,9.9996919631958,2.7245988845825195,1.0189727544784546,0.0822857320308685
2504567471.0,-0.3728373050689697,-0.1418725252151489,10.039088249206545,2.6403284072875977,0.5893707871437073,0.0321330577135086
2504575804.0,-0.3321769535541534,-0.1545659750699997,9.776227951049805,2.59201979637146,0.364503413438797,0.0444791205227375
2504584137.0,-0.3918423354625702,0.0255370792001485,9.683894157409668,2.798137187957764,0.7461298704147339,0.0414054095745086
2504592470.0,-0.4382046163082123,0.1251881420612335,9.868492126464844,2.790069103240967,1.247605323791504,0.0209140218794345
2504600803.0,-0.4612819850444793,-0.006920029874891,10.14910125732422,2.8036444187164307,1.180444836616516,0.051932867616415
2504609136.0,-0.459145724773407,-0.0977633967995643,10.0090913772583,2.5792126655578613,0.3996205031871795,0.0359495803713798
2504617469.0,-0.4827121794223785,0.0502363108098506,9.802504539489746,2.7615344524383545,0.3502362370491028,0.0416103228926658
2504625802.0,-0.4991392493247986,0.1218002364039421,9.826629638671877,2.556288003921509,0.7422621250152588,0.0331576317548751
2504634135.0,-0.4236728847026825,-0.0045031090267002,10.007954597473145,2.68666410446167,0.8173374533653259,0.0673014000058174
2504642468.0,-0.4007477760314941,-0.1525172889232635,9.982556343078612,2.645066738128662,0.4439586997032165,0.0719119608402252
2504650801.0,-0.3285478353500366,0.0019667346496134,9.800620079040527,2.8461387157440186,0.3139152526855469,0.0790583491325378
2504659134.0,-0.4189217984676361,0.1698426306247711,9.753130912780762,2.8031578063964844,0.8000990152359009,0.0226814039051532
2504667467.0,-0.4325650036334991,0.0876051038503646,9.961000442504885,2.7144813537597656,1.2142043113708496,0.0741660147905349
2504675800.0,-0.4590470194816589,-0.16880963742733,10.07514190673828,2.587639808654785,0.7083745002746582,0.0779825374484062
2504684133.0,-0.469014823436737,-0.1455288976430893,9.87265968322754,2.711740732192993,0.3341505229473114,0.1501122415065765
2504692466.0,-0.4437834322452545,0.1201646849513053,9.78981876373291,2.889477729797364,0.5559954643249512,0.0495763532817363
2504700799.0,-0.4087688028812408,0.2506889998912811,9.887872695922852,2.797574043273926,1.0463544130325315,0.0410468131303787
2504709132.0,-0.356020987033844,0.0472880937159061,10.07538604736328,2.6678123474121094,0.8816803693771362,0.1000620126724243
2504717465.0,-0.3403562009334564,-0.1240923926234245,9.868087768554688,2.5877678394317627,0.4043847620487213,0.0168925896286964
2504725798.0,-0.3604738712310791,-0.0098759066313505,9.750493049621582,2.656823873519897,0.6254867911338806,0.0544430539011955
2504734131.0,-0.4239855110645294,0.1992654353380203,9.822510719299316,2.7485740184783936,1.109621524810791,0.0190697982907295
2504742464.0,-0.4293771386146545,0.0911744460463523,10.101899147033691,2.736842632293701,1.1292420625686646,0.0919935256242752
2504750797.0,-0.4753143787384033,-0.037415325641632,10.079910278320312,2.627777099609375,0.6210043430328369,0.1279815286397934
2504759130.0,-0.4403001070022583,-0.0002009181771427,9.894537925720217,2.58016037940979,0.4599420726299286,-0.0107835941016674
2504767463.0,-0.4571923315525055,0.1698404848575592,9.761150360107422,2.6856138706207275,0.7158281803131104,0.1219621822237968
2504775796.0,-0.3855606913566589,0.0540556833148002,9.972955703735352,2.716402530670166,1.0381834506988523,0.0790583416819572
2504784129.0,-0.3531574308872223,-0.0945520848035812,10.015762329101562,2.610922813415528,0.5590434670448303,0.0842836275696754
2504792462.0,-0.3437139391899109,-0.093591921031475,9.834108352661133,2.669400453567505,0.3572545349597931,0.0337979830801487
2504800795.0,-0.3919231295585632,0.1222277581691742,9.754305839538574,2.7211153507232666,0.8030959367752075,0.0839250460267067
2504809128.0,-0.4389317035675049,0.1312100887298584,9.87690544128418,2.6724741458892822,1.150143265724182,0.2052084356546402
2504817461.0,-0.48593270778656,-0.0833996832370758,10.084744453430176,2.5520615577697754,0.9428471922874452,0.0566971153020858
2504825794.0,-0.4716865420341491,-0.2236953228712082,9.987935066223145,2.606491804122925,0.5157554149627686,0.0940682813525199
2504834127.0,-0.4786482751369476,-0.0275511611253023,9.825029373168944,2.6876888275146484,0.508634626865387,0.1311832964420318
2504842460.0,-0.4158836603164673,0.2276147007942199,9.87232780456543,2.77219033241272,0.934727430343628,0.0357446633279323
2504850793.0,-0.3791223764419555,0.0605193860828876,10.046856880187988,2.5629475116729736,0.900301992893219,0.1226537749171257
2504859126.0,-0.3506989777088165,-0.1762344986200332,9.959959983825684,2.535694122314453,0.4686508774757385,0.0922752916812896
2504867459.0,-0.3560387790203094,-0.153778851032257,9.758986473083496,2.670168876647949,0.498696357011795,0.1717818826436996
2504875792.0,-0.4475736021995544,0.0755761340260505,9.722232818603516,2.81086802482605,0.7979474067687988,0.1212705969810485
2504884125.0,-0.4718495905399322,0.0827856138348579,10.007448196411133,2.71399474143982,1.1121315956115725,0.1465006172657013
2504892458.0,-0.4887688159942627,-0.0585608929395675,10.110939025878906,2.755233764648437,0.9022998809814452,0.1385858207941055
2504900791.0,-0.4711755514144897,-0.120103120803833,9.973509788513184,2.648524284362793,0.3944463729858398,0.1373563259840011
2504909124.0,-0.4527323544025421,0.0437246635556221,9.757722854614258,2.637766599655152,0.590087890625,0.1094112023711204
2504917457.0,-0.4500938355922699,0.0775147899985313,9.858210563659668,2.712764978408813,0.9181550145149232,0.060539249330759
2504925790.0,-0.3712226450443268,-0.0561871156096458,10.022314071655272,2.6210145950317383,0.7449514865875244,0.0625627636909484
2504934123.0,-0.3308912813663482,-0.1383676081895828,9.923030853271484,2.7518012523651123,0.3388122916221618,0.0604623965919017
2504942456.0,-0.361100286245346,0.069173589348793,9.743542671203612,2.733692169189453,0.4046664834022522,0.1211681440472602
2504950789.0,-0.4194954633712768,0.1620941311120987,9.823134422302246,2.71238112449646,1.1008870601654053,0.0724242478609085
2504959122.0,-0.4675912857055664,-0.0057915318757295,10.022802352905272,2.631260871887207,1.2009363174438477,-0.0662128031253814
2504967455.0,-0.4669786095619201,-0.2281052470207214,10.076265335083008,2.638432741165161,0.549105167388916,0.059873279184103
2504975788.0,-0.4988474547863006,-0.0770866721868515,9.840876579284668,2.731642961502075,0.2966256737709045,-0.0170590821653604
2504984121.0,-0.4310244619846344,0.1877774149179458,9.837420463562012,2.924722671508789,0.6560189723968506,0.0477833524346351
2504992454.0,-0.3916585743427276,0.207489475607872,9.995285034179688,2.7866368293762207,0.991719126701355,0.0531879588961601
2505000787.0,-0.3443823456764221,-0.0452580600976944,10.029374122619627,2.553597927093506,0.6420592069625854,0.0504984594881534
2505009120.0,-0.3398897647857666,-0.1281531751155853,9.81291961669922,2.6452207565307617,0.3169121742248535,0.0364618636667728
2505017453.0,-0.3657886385917663,0.0330724790692329,9.71743869781494,2.819422483444214,0.7505866885185242,0.1358194649219513
2505025786.0,-0.4297870099544525,0.1547655612230301,9.849108695983888,2.837916374206543,1.3431975841522217,0.14744833111763
2505034119.0,-0.4726796746253967,0.0476514399051666,10.136434555053713,2.7284927368164062,1.0608007907867432,0.0129223829135298
2505042452.0,-0.4792151749134063,-0.0729381516575813,10.06300449371338,2.5352587699890137,0.5034093260765076,0.0488847680389881
2505050785.0,-0.4597033858299255,0.0387312769889831,9.837366104125977,2.678596019744873,0.4414229393005371,0.1416595429182052
2505059118.0,-0.4347668290138244,0.1512973308563232,9.801315307617188,2.7110748291015625,0.7886494994163513,0.0963991805911064
2505067451.0,-0.3731429874897003,0.0189798455685377,9.982608795166016,2.6384072303771973,0.9164133071899414,0.1010865792632103
2505075784.0,-0.3503129184246063,-0.1420813500881195,9.99691104888916,2.6168911457061768,0.5260011553764343,0.09370968490839
2505084117.0,-0.3311256468296051,-0.012141628190875,9.831249237060549,2.700496196746826,0.381460040807724,0.0738586485385894
2505092450.0,-0.4310190379619598,0.1734502166509628,9.758319854736328,2.8244175910949707,0.8645444512367249,0.1050055548548698
2505100783.0,-0.4584129154682159,0.112890638411045,9.97540283203125,2.7442193031311035,1.3290585279464722,0.0751137360930442
2505109116.0,-0.5102612972259521,-0.1623748689889907,10.089492797851562,2.6648919582366943,0.8670034408569336,0.0315951593220233
2505117449.0,-0.4579315185546875,-0.1633951216936111,9.888324737548828,2.6389451026916504,0.4534615874290466,0.0956307426095008
2505125782.0,-0.4365763068199157,0.0747948065400123,9.792680740356444,2.9372482299804688,0.5191365480422974,0.0818502902984619
2505134115.0,-0.4268490374088287,0.2691198289394378,9.87720775604248,2.9164493083953857,0.9339333176612854,0.0688382536172866
2505142448.0,-0.3734959363937378,0.0442925654351711,10.070571899414062,2.6233456134796143,0.8672083020210266,0.0998314768075943
2505150781.0,-0.3659725487232208,-0.1334000378847122,9.89401626586914,2.5312116146087646,0.5127329230308533,0.1134582459926605
2505159114.0,-0.3719037771224975,-0.0525421909987926,9.753473281860352,2.6983954906463623,0.4962373673915863,0.0894577130675315
2505167447.0,-0.4632249176502228,0.1350973099470138,9.77298355102539,2.7508022785186768,1.0995807647705078,0.1064911857247352
2505175780.0,-0.4643554985523224,0.0615293122828006,10.040387153625488,2.806206226348877,1.2966055870056152,0.0609490722417831
2505184113.0,-0.4783615171909332,-0.0419693700969219,10.100530624389648,2.637254476547241,0.7410838603973389,0.0883306935429573
2505192446.0,-0.477047324180603,-0.0452528186142444,9.914692878723145,2.576087951660156,0.4371966123580932,0.0380755625665187
2505200779.0,-0.4891141653060913,0.146040454506874,9.77995777130127,2.65830945968628,0.6178281307220459,0.0637154132127761
2505209112.0,-0.3956238627433777,0.0605245903134346,9.9342622756958,2.648319721221924,0.9469966888427734,0.0957588106393814
2505217445.0,-0.3543854057788849,-0.1021276265382766,10.024314880371094,2.656746864318848,0.7527894973754883,0.1107943654060363
2505225778.0,-0.3087696731090545,-0.1225354149937629,9.86114501953125,2.6876375675201416,0.2105361968278885,0.0506521500647068
2505234111.0,-0.382436066865921,0.0712808966636657,9.731497764587402,2.725316047668457,0.7176212072372437,0.0782899111509323
2505242444.0,-0.4482135474681854,0.1282777190208435,9.89944839477539,2.7823846340179443,1.13428795337677,0.0800060629844665
2505250777.0,-0.4968159794807434,-0.0869206562638282,10.057640075683594,2.599550485610962,0.9996851682662964,0.1530578583478927
2505259110.0,-0.4692562222480774,-0.240191638469696,10.02255630493164,2.63062047958374,0.5542024374008179,0.0913019403815269
2505267443.0,-0.4383389353752136,-0.0414350591599941,9.78823471069336,2.84216856956482,0.3626591563224792,0.0103097297251224
2505275776.0,-0.400576651096344,0.1962066143751144,9.819509506225586,2.8464457988739014,0.8989443778991699,0.0298277772963047
2505284109.0,-0.3677669167518616,0.0858981162309646,9.975581169128418,2.6213223934173584,0.8787603378295898,0.1274180114269256
2505292442.0,-0.3349487483501434,-0.1161995977163314,10.006325721740724,2.4943525791168213,0.5626807808876038,0.0233729891479015
2505300775.0,-0.3582246005535126,-0.1394555121660232,9.809314727783203,2.62759780883789,0.3942159116268158,0.2111509591341018
2505309108.0,-0.4317271709442138,0.0755811631679534,9.729093551635742,2.853976488113404,0.8217942714691162,0.1585905253887176
2505317441.0,-0.4668518006801605,0.1187411025166511,9.964879035949709,2.7364327907562256,1.278060793876648,-0.0030224795918911
2505325774.0,-0.4711203873157501,-0.0236581079661846,10.129351615905762,2.620836019515991,0.8466145396232605,-0.0082221692427992
2505334107.0,-0.4485353231430053,-0.0775177031755447,9.979904174804688,2.6233456134796143,0.4496194720268249,-0.0180324204266071
2505342440.0,-0.4200853407382965,0.0664207264780998,9.785011291503906,2.72416353225708,0.5063549876213074,0.1241906210780143
2505350773.0,-0.4052852690219879,0.1400431841611862,9.88047695159912,2.652238845825196,0.8677206635475159,0.1556449085474014
2505359106.0,-0.3685850501060486,-0.021995710209012,10.022037506103516,2.7040820121765137,0.7854732871055603,0.0622041746973991
2505367439.0,-0.3256502449512481,-0.1383261084556579,9.983930587768556,2.640021085739136,0.455741286277771,0.0976286605000495
2505375772.0,-0.3524968028068542,0.0375231802463531,9.7659330368042,2.7468576431274414,0.6192113161087036,0.0715021416544914
2505384105.0,-0.436100035905838,0.1509450674057006,9.785101890563965,2.788813829421997,1.0443307161331177,0.0873829647898674
2505392438.0,-0.4701460897922516,0.0493980087339878,9.981343269348145,2.637817859649658,1.2997814416885376,0.1186067163944244
2505400771.0,-0.491144597530365,-0.200722649693489,10.094097137451172,2.592352867126465,0.6726170182228088,0.0106427147984504
2505409104.0,-0.4589993953704834,-0.0783231109380722,9.89104175567627,2.777056932449341,0.2772356867790222,0.1251127272844314
2505417437.0,-0.4490075409412384,0.169918417930603,9.814913749694824,2.905717134475708,0.4883994460105896,-0.0103993797674775
2505425770.0,-0.3917944729328155,0.2373486310243606,9.954984664916992,2.762585163116455,0.9979947209358216,0.0720912665128707
2505434103.0,-0.327306181192398,-0.0348319001495838,10.046704292297363,2.7000863552093506,0.7652893662452698,0.0934791564941406
2505442436.0,-0.3623647391796112,-0.1308538317680359,9.826671600341797,2.5540850162506104,0.4441380202770233,0.0343358814716339
2505450769.0,-0.4162605404853821,0.0014069937169551,9.738775253295898,2.694963455200196,0.5885511040687561,0.0838738158345222
2505459102.0,-0.4686950445175171,0.1631480455398559,9.850752830505373,2.7534661293029785,1.22076153755188,0.0644838362932205
2505467435.0,-0.4761752188205719,0.0395115427672863,10.097756385803224,2.6806447505950928,1.1300103664398191,-0.0674678981304168
2505475768.0,-0.4900802969932556,-0.0630579888820648,10.075023651123049,2.565176248550415,0.607479989528656,0.0847959220409393
2505484101.0,-0.4563003778457641,0.0099558103829622,9.86240577697754,2.637305736541748,0.4280779361724853,0.0450938679277896
2505492434.0,-0.4599464535713196,0.1352530419826507,9.773341178894045,2.7136871814727783,0.9005579948425293,0.0597451999783515
2505500767.0,-0.3962595164775848,0.047082994133234,9.979328155517578,2.61676287651062,0.8778126239776611,0.0048282830975949
2505509100.0,-0.338157594203949,-0.1024283692240715,10.00291919708252,2.574294328689575,0.5429577231407166,0.1192214488983154
2505517433.0,-0.3384328186511993,-0.0305744744837284,9.82613754272461,2.6622796058654785,0.3650925457477569,0.0997546389698982
2505525766.0,-0.4135483801364898,0.1729895770549774,9.707769393920898,2.736970901489258,0.7887007594108582,0.0754211172461509
2505534099.0,-0.4664629697799682,0.103822611272335,9.927306175231934,2.823188304901123,1.1915614604949951,0.1785184144973755
2505542432.0,-0.4830076396465301,-0.1522721648216247,10.091079711914062,2.5990636348724365,0.8809376358985901,0.0613076724112033
2505550765.0,-0.4495047330856323,-0.1875452101230621,9.947075843811035,2.719809293746948,0.3937036097049713,0.0940170586109161
2505559098.0,-0.4404656589031219,0.056534506380558,9.816266059875488,2.9688308238983154,0.5879107713699341,0.0761895477771759
2505567431.0,-0.4023663103580475,0.2300183922052383,9.89664363861084,2.8317432403564453,0.8759427666664124,0.0989862084388732
2505575764.0,-0.360860675573349,0.0525616034865379,10.073324203491213,2.6375107765197754,0.956576406955719,0.1199898943305015
2505584097.0,-0.3473172485828399,-0.1546444743871688,9.898675918579102,2.5526251792907715,0.4689837992191314,0.0414822548627853
2505592430.0,-0.3405236601829529,-0.0663291811943054,9.75698471069336,2.720449686050415,0.5328657627105713,0.1070290952920913
2505600763.0,-0.4207172691822052,0.1379249840974807,9.74643898010254,2.817476272583008,1.0583418607711792,0.097679890692234
2505609096.0,-0.4257071614265442,0.089613601565361,10.025453567504885,2.594606876373291,1.0654369592666626,-0.0158295985311269
2505617429.0,-0.4655018746852875,-0.0535345897078514,10.101126670837402,2.6019835472106934,0.7215402126312256,0.0262930132448673
2505625762.0,-0.4505905508995056,-0.0819197744131088,9.893080711364746,2.68881630897522,0.304642915725708,0.0755748003721237
2505634095.0,-0.4569593071937561,0.0903713256120681,9.734918594360352,2.7699365615844727,0.6705422401428223,0.0568507984280586
2505642428.0,-0.4017201662063598,0.0587893761694431,9.959657669067385,2.759178400039673,1.0199973583221436,0.0977311134338378
2505650761.0,-0.3491851389408111,-0.1162291318178176,10.025341987609863,2.6409428119659424,0.742210865020752,0.033541839569807
2505659094.0,-0.3199919164180755,-0.1256780475378036,9.869712829589844,2.724727153778076,0.3784119188785553,0.0791095718741417
2505667427.0,-0.371454507112503,0.107799507677555,9.750561714172363,2.747267484664917,0.6741282343864441,0.0312109440565109
2505675760.0,-0.4473711848258972,0.141100987792015,9.870527267456056,2.7803869247436523,1.127372145652771,0.0528293624520301
2505684093.0,-0.5016621947288513,-0.0809319242835044,10.062627792358398,2.671679973602295,1.1596204042434692,0.0312109440565109
2505692426.0,-0.4841650128364563,-0.1958883851766586,10.011415481567385,2.7087693214416504,0.4536921679973602,-0.0171359237283468
2505700759.0,-0.4921460747718811,-0.0125276874750852,9.824685096740724,2.779003858566284,0.4853513240814209,0.1408910900354385
2505709092.0,-0.4330723285675049,0.2298111170530319,9.845585823059082,2.835304021835327,0.8163385391235352,0.0788790434598922
2505717425.0,-0.3959751427173614,0.1390438675880432,10.02206802368164,2.725239515304565,0.926146686077118,0.0461696609854698
2505725758.0,-0.3424098491668701,-0.1120916754007339,9.974909782409668,2.709256172180176,0.5691611170768738,0.019325939938426
2505734091.0,-0.3379059433937073,-0.1225163042545318,9.80898380279541,2.763455629348755,0.4280266761779785,0.0369485355913639
2505742424.0,-0.4072144031524658,0.0759976953268051,9.728121757507324,2.862685203552246,0.8609841465950012,-0.0413926057517528
2505750757.0,-0.4413633048534393,0.1359439492225647,9.977076530456545,2.790555715560913,1.1808801889419556,0.1220646351575851
2505759090.0,-0.4826611876487732,-0.0058603012003004,10.143844604492188,2.6356918811798096,1.1213783025741575,0.1509062498807907
2505767423.0,-0.4862983226776123,-0.0687955915927887,9.975762367248535,2.660256147384644,0.3620188236236572,0.0450938642024993
2505775756.0,-0.4607048034667969,0.047561090439558,9.818896293640137,2.7240099906921387,0.4849671423435211,0.027420038357377
2505784089.0,-0.4845115542411804,0.1533092409372329,9.913848876953123,2.703646421432495,0.8495857119560242,0.0940682813525199
2505792422.0,-0.415822684764862,-0.0484297908842563,9.945767402648926,2.695885419845581,0.8212564587593079,-0.0344511494040489
2505800755.0,-0.2857243120670318,-0.135777473449707,9.976319313049316,2.722959518432617,0.3906298577785492,0.0778800770640373
2505809088.0,-0.3558377027511596,0.0860475450754165,9.698531150817873,2.6680939197540283,0.5155505537986755,0.0649705082178115
2505817421.0,-0.4018971025943756,0.1586047410964965,9.851552963256836,2.783024787902832,1.021149754524231,0.0480138808488845
2505825754.0,-0.4326124787330627,0.0338334068655967,9.949640274047852,2.648601531982422,1.184620022773743,-0.0674422830343246
2505834087.0,-0.4697678387165069,-0.192449539899826,10.052215576171877,2.5135631561279297,0.6783033013343811,0.0330807827413082
2505842420.0,-0.482625663280487,-0.0958116874098777,9.854093551635742,2.799802303314209,0.2553867399692535,0.0387415327131748
2505850753.0,-0.438952773809433,0.1696808338165283,9.844234466552734,2.7913498878479004,0.603074312210083,0.0742684677243232
2505859086.0,-0.4191460907459259,0.2032681405544281,9.966885566711426,2.759101390838623,1.013798713684082,0.1096417382359504
2505867419.0,-0.3613875210285187,-0.0564760565757751,10.025404930114746,2.617069959640503,0.7121909856796265,0.0155350333079695
2505875752.0,-0.3481369018554687,-0.1326347589492797,9.8002347946167,2.50252366065979,0.236432209610939,0.1521613746881485
2505884085.0,-0.3480067253112793,0.0076826424337923,9.701756477355955,2.8063597679138184,0.5755390524864197,0.1096417382359504
2505892418.0,-0.3900179862976074,0.1550966650247573,9.874428749084473,2.819089651107788,1.196479320526123,0.0277530252933502
2505900751.0,-0.4427410960197449,0.0232672728598117,10.10550308227539,2.691735982894897,1.1802397966384888,0.0062626800499856
2505909084.0,-0.460258275270462,-0.0730398669838905,10.014813423156738,2.639047384262085,0.5744632482528687,0.0423275232315063
2505917417.0,-0.4748265743255615,0.0027796365320682,9.821592330932615,2.706489562988281,0.3979043364524841,0.0299302358180284
2505925750.0,-0.4691523015499115,0.1378655433654785,9.811023712158203,2.7948076725006104,0.8070405125617981,0.1560291051864624
2505934083.0,-0.426070362329483,-0.014903163537383,9.973505973815918,2.601548433303833,0.8957683444023132,0.0720912665128707
2505942416.0,-0.3294655978679657,-0.1441219002008438,9.960177421569824,2.594069004058838,0.620107889175415,0.0903542190790176
2505950749.0,-0.3434572517871856,-0.0123614957556128,9.796714782714844,2.632925748825073,0.3375572264194488,0.0440692901611328
2505959082.0,-0.3870202600955963,0.1539527475833892,9.7600679397583,2.819192409515381,0.8407489061355591,0.1255737841129303
2505967415.0,-0.4174590110778808,0.0465642251074314,9.96715259552002,2.6483967304229736,1.3013696670532229,-0.0619864501059055
2505975748.0,-0.4578410387039184,-0.2025041431188583,10.075438499450684,2.6565423011779785,0.9209982752799988,0.0039573996327817
2505984081.0,-0.4765795469284057,-0.1713586747646331,9.901835441589355,2.7656328678131104,0.2706784307956695,0.0996777936816215
2505992414.0,-0.4555798768997192,0.0897266790270805,9.781414985656738,2.786303758621216,0.5643969178199768,-0.0037396787665784
2506000747.0,-0.4156913459300995,0.2293792366981506,9.927334785461426,2.8007500171661377,0.913954257965088,0.0642276927828788
2506009080.0,-0.3889728784561157,-0.0206128805875778,10.046299934387209,2.667940139770508,0.7185689210891724,0.0324660427868366
2506017413.0,-0.3613229095935821,-0.1498614698648452,9.843734741210938,2.632285594940185,0.503230094909668,0.1071315482258796
2506025746.0,-0.3957886397838592,-0.0491712242364883,9.690959930419922,2.6933753490448,0.5598119497299194,0.1070034727454185
