SampleTimeFine,Acc_X,Acc_Y,Acc_Z,Gyr_X,Gyr_Y,Gyr_Z
2498117729.0,0.0,0.0,0.0,0.0,0.0,0.0
2498126062.0,-0.4709958136081695,-0.0864314064383506,9.687710762023926,1.944261193275452,0.150573268532753,1.3039822578430176
2498134395.0,-0.4473772644996643,-0.2092038691043853,9.85478401184082,1.803843975067139,-0.2673613727092743,1.265125393867493
2498142728.0,-0.4355968832969665,-0.0767590552568435,10.071453094482422,1.92353904247284,-0.0636769831180572,1.3314661979675293
2498151061.0,-0.5207859873771667,0.1173808500170707,10.00303077697754,1.9408290386199951,0.4717757999897003,1.2921228408813477
2498159394.0,-0.5552301406860352,-0.0096969455480575,9.73544692993164,1.863089680671692,0.6140884160995483,1.3442989587783811
2498167727.0,-0.561728835105896,-0.2701538801193237,9.725150108337402,1.789909839630127,-0.1215395331382751,1.410076379776001
2498176060.0,-0.5754886269569397,-0.2236574441194534,10.032851219177246,1.773004412651062,-0.409443587064743,1.3259849548339844
2498184393.0,-0.5471400022506714,0.0686422288417816,10.137795448303224,1.9980512857437127,-0.0440052598714828,1.3313384056091309
2498192726.0,-0.4994500875473022,0.1539290249347686,9.896858215332031,2.044028759002685,0.2131232321262359,1.3038029670715332
2498201059.0,-0.4864391088485718,-0.0497134067118167,9.61499309539795,1.8226962089538568,0.0367180071771144,1.4981125593185425
2498209392.0,-0.4353358149528503,-0.2402302920818328,9.844833374023438,1.7353259325027466,-0.3979683518409729,1.438252091407776
2498217725.0,-0.4929487109184265,-0.0711563602089881,10.1068754196167,1.8693139553070068,-0.1872400641441345,1.424061894416809
2498226058.0,-0.5307848453521729,0.0947215929627418,10.041359901428224,2.0123183727264404,0.2638138234615326,1.3645343780517578
2498234391.0,-0.5345692038536072,0.0328423492610454,9.773507118225098,1.855994820594788,0.4487997889518738,1.2754993438720703
2498242724.0,-0.5683928728103638,-0.1615059971809387,9.741436958312988,1.7424979209899902,0.0445303469896316,1.2545467615127563
2498251057.0,-0.5689014792442322,-0.081288069486618,9.947927474975586,1.776923418045044,-0.3206389844417572,1.441223382949829
2498259390.0,-0.5575781464576721,0.0867467895150184,10.035048484802246,1.7799460887908936,-0.3266583681106567,1.35608172416687
2498267723.0,-0.4597623646259308,0.004964143037796,9.830265998840332,1.8831969499588013,0.0091314744204282,1.3825410604476929
2498276056.0,-0.424825370311737,-0.1969853490591049,9.762944221496582,1.7469292879104614,-0.2043247669935226,1.4052352905273438
2498284389.0,-0.4344732165336609,-0.1585884541273117,9.971304893493652,1.7863494157791138,-0.4137211143970489,1.4576419591903689
2498292722.0,-0.5264372825622559,0.0679494589567184,10.01206111907959,1.9425196647644043,-0.1853189915418625,1.3662248849868774
2498301055.0,-0.5487414002418518,0.0727535709738731,9.896391868591309,1.7065610885620115,-0.0193899776786565,1.350318431854248
2498309388.0,-0.5272388458251953,-0.1896877288818359,9.765510559082031,1.7229286432266235,-0.0059681162238121,1.3763424158096311
2498317721.0,-0.5238534212112427,-0.306333839893341,9.900464057922363,1.7640395164489746,-0.3100346624851227,1.3675566911697388
2498326054.0,-0.5571931004524231,-0.0973877981305122,9.998734474182127,1.921182870864868,-0.4765784740447998,1.366942048072815
2498334387.0,-0.5065011978149414,0.1223009824752807,9.953582763671877,2.053967237472534,-0.3311152458190918,1.3815679550170898
2498342720.0,-0.4023831784725189,-0.0218182709068059,9.719858169555664,1.85842764377594,-0.4773980975151062,1.3498060703277588
2498351053.0,-0.4316560924053192,-0.2052952051162719,9.790218353271484,1.6038223505020142,-0.6032664179801941,1.3810298442840576
2498359386.0,-0.4873192012310028,-0.2274862825870514,9.895276069641112,1.7194197177886963,-0.795680582523346,1.508588790893555
2498367719.0,-0.5077047348022461,-0.0130713926628232,9.987709045410156,1.844032645225525,-0.5433547496795654,1.3697084188461304
2498376052.0,-0.5259473919868469,0.064925841987133,9.907050132751465,1.8032037019729608,-0.3373138606548309,1.2833116054534912
2498384385.0,-0.4967366456985473,-0.1744858026504516,9.76556396484375,1.6507476568222046,-0.3525542914867401,1.447882890701294
2498392718.0,-0.5292820334434509,-0.1181342303752899,9.885296821594238,1.692626953125,-0.544353723526001,1.411792516708374
2498401051.0,-0.5242473483085632,0.0051997867412865,9.959911346435549,1.5224204063415527,-0.9212158918380736,1.5431934595108032
2498409384.0,-0.4749551713466644,0.0089159607887268,9.89731216430664,1.7474926710128784,-0.9633513689041138,1.4220893383026123
2498417717.0,-0.3832465708255768,-0.1408487260341644,9.852127075195312,1.4875081777572632,-0.8399675488471985,1.42767333984375
2498426050.0,-0.414143443107605,-0.2234568893909454,9.821158409118652,1.5091522932052612,-0.9605082869529724,1.5315392017364502
2498434383.0,-0.4580812454223633,-0.072779431939125,10.005193710327148,1.5248538255691528,-0.9640430212020874,1.5572558641433716
2498442716.0,-0.5321661233901978,0.1116049885749816,10.021241188049316,1.533332109451294,-0.91135436296463,1.6230586767196655
2498451049.0,-0.5249357223510742,-0.0671876594424247,9.805013656616213,1.4875082969665527,-0.8385075926780701,1.60607647895813
2498459382.0,-0.5087831020355225,-0.2457271665334701,9.77484130859375,1.115973711013794,-1.10077166557312,1.6464959383010864
2498467715.0,-0.4839300513267517,-0.1925905048847198,9.975194931030272,1.3769830465316772,-1.4342435598373413,1.5953187942504885
2498476048.0,-0.4801774621009826,0.0685144886374473,10.245126724243164,1.746365666389465,-1.0390413999557495,1.6026185750961304
2498484381.0,-0.4102234244346618,0.0961554124951362,9.997604370117188,1.7586095333099363,-0.5510646104812622,1.5503913164138794
2498492714.0,-0.353048712015152,-0.1047616302967071,9.776061058044434,1.6755166053771973,-0.2789389789104461,1.644574522972107
2498501047.0,-0.4310061931610107,-0.2389970272779464,9.80127239227295,1.560175895690918,-0.4956353902816772,1.5865328311920166
2498509380.0,-0.5054656267166138,-0.0533905215561389,9.987409591674805,1.5665794610977173,-0.6715796589851379,1.6715466976165771
2498517713.0,-0.5070559978485107,0.0701658129692077,10.07792854309082,1.6993638277053833,-0.5027562379837036,1.737528920173645
2498526046.0,-0.485064297914505,-0.0577191784977912,9.931087493896484,1.8531259298324585,-0.3240457475185394,1.6399898529052734
2498534379.0,-0.4719873368740082,-0.1876678764820099,9.896434783935549,1.7610682249069214,-0.0964888259768486,1.7095324993133545
2498542712.0,-0.5256602168083191,-0.1167595908045768,9.947914123535156,1.7847870588302612,-0.1730241626501083,1.7056646347045898
2498551045.0,-0.5157990455627441,0.03522539883852,9.9500150680542,1.8590937852859497,-0.3967644572257995,1.6650404930114746
2498559378.0,-0.3725247383117676,-0.0384851731359958,9.842668533325195,1.923155307769776,-0.3539631068706512,1.5605344772338867
2498567711.0,-0.334266722202301,-0.2139567881822586,9.7803955078125,1.7749511003494265,-0.1914920061826706,1.4443225860595703
2498576044.0,-0.3858599960803985,-0.1533351987600326,9.978387832641602,1.8207237720489504,-0.0533288344740867,1.5288752317428589
2498584377.0,-0.445226103067398,0.0414621271193027,10.042168617248535,2.050483703613281,0.0874085798859596,1.3922746181488037
2498592710.0,-0.4419374167919159,-0.0077013545669615,9.84229564666748,2.0547356605529785,0.6427764892578125,1.451520323753357
2498601043.0,-0.461210161447525,-0.2210707366466522,9.732263565063477,1.9957972764968872,0.7713342905044556,1.407950520515442
2498609376.0,-0.5018011331558228,-0.2550475299358368,9.884342193603516,2.00745177268982,0.4455468654632568,1.2902019023895264
2498617709.0,-0.5261064171791077,-0.0012974005658179,10.073406219482422,2.1858036518096924,0.2186558991670608,1.340251922607422
2498626042.0,-0.4219275414943695,0.1538251638412475,9.938085556030272,2.306241512298584,0.4472629427909851,1.2539321184158323
2498634375.0,-0.3378929495811462,-0.0379900336265563,9.757704734802246,2.1309890747070312,0.792696475982666,1.3856405019760132
2498642708.0,-0.3421509563922882,-0.2158561199903488,9.910968780517578,1.941827893257141,0.7599872350692749,1.2289071083068848
2498651041.0,-0.4142919182777405,-0.0699764043092727,10.068370819091797,2.131577730178833,0.9643374681472778,1.2829272747039795
2498659374.0,-0.4684704840183258,0.1363434791564941,9.989027976989746,2.2400290966033936,1.3178139925003052,1.2215557098388672
2498667707.0,-0.4572809040546417,0.059213250875473,9.79177474975586,2.125610113143921,1.2900224924087524,1.2483739852905271
2498676040.0,-0.5146574378013611,-0.1175361573696136,9.80557918548584,1.856174111366272,0.9042977690696716,1.2825431823730469
2498684373.0,-0.5524623990058899,-0.0913039669394493,10.00094985961914,1.7996689081192017,0.5360419154167175,1.2105159759521484
2498692706.0,-0.5503556132316589,0.0240209344774484,10.040766716003418,1.8888064622879028,0.4167051911354065,1.1871814727783203
2498701039.0,-0.4441133737564087,-0.0355960987508297,9.807522773742676,1.931505560874939,0.5500273108482361,1.275345802307129
2498709372.0,-0.3728258907794952,-0.2280549108982086,9.811151504516602,1.8453649282455444,0.4721856713294983,1.2722463607788086
2498717705.0,-0.434061586856842,-0.2161101400852203,10.04654026031494,2.0108838081359863,0.4936247169971466,1.2183282375335691
2498726038.0,-0.481858491897583,-0.0207132399082183,10.04053783416748,2.151890277862549,0.589883029460907,1.2548028230667114
2498734371.0,-0.4924631416797638,0.0058589363470673,9.836405754089355,2.148714065551758,0.94722718000412,1.318172574043274
2498742704.0,-0.4992096126079559,-0.1680486649274826,9.845269203186035,1.9435954093933103,0.735986590385437,1.2431230545043943
2498751037.0,-0.4898291528224945,-0.216742143034935,10.029884338378906,1.925255537033081,0.1899423450231552,1.2676868438720703
2498759370.0,-0.5376360416412354,-0.0029483477119356,10.159502029418944,2.1070144176483154,0.2618671357631683,1.1702247858047483
2498767703.0,-0.4970709085464477,0.1824801713228225,9.981122970581056,2.028942108154297,0.627766489982605,1.2548799514770508
2498776036.0,-0.4060482978820801,0.0444708727300167,9.703330039978027,1.8775874376297,0.5898317694664001,1.298167705535889
2498784369.0,-0.3796903789043426,-0.1437117457389831,9.858609199523926,1.687657594680786,0.1707572788000106,1.2116684913635254
2498792702.0,-0.4392521977424621,-0.1327768862247467,10.064478874206545,1.7337636947631836,0.002984058111906,1.2545981407165527
2498801035.0,-0.4978882074356079,0.0229562371969223,9.966368675231934,1.8953638076782229,0.4015415906906128,1.291790008544922
2498809368.0,-0.4757960736751556,-0.0167229939252138,9.780077934265137,1.7805862426757812,0.7492547631263733,1.2252185344696045
2498817701.0,-0.4925120770931244,-0.1346882730722427,9.851173400878906,1.7387326955795288,0.5108887553215027,1.2188149690628052
2498826034.0,-0.5185586810112,-0.0798757076263427,10.060242652893066,1.7510277032852173,0.172575905919075,1.220582365989685
2498834367.0,-0.5124519467353821,0.0467711575329303,9.9971284866333,1.8028963804244995,0.3207798898220062,1.228240966796875
2498842700.0,-0.453130692243576,0.0368997082114219,9.797882080078123,1.780842661857605,0.5128609538078308,1.227779984474182
2498851033.0,-0.3792904615402221,-0.1135973781347274,9.765332221984863,1.6939589977264404,0.3130955696105957,1.2469394207000732
2498859366.0,-0.3555306196212768,-0.1111534833908081,10.0718412399292,1.7726970911026,0.2815644741058349,1.240100383758545
2498867699.0,-0.4242187440395355,0.0421152859926223,10.095356941223145,1.855046987533569,0.7290707230567932,1.1617207527160645
2498876032.0,-0.5154707431793213,0.0657704174518585,9.832216262817385,1.975996971130371,1.3122555017471311,1.2498079538345337
2498884365.0,-0.5066813230514526,-0.1424655318260193,9.603968620300291,1.6852502822875977,1.07919180393219,1.104319453239441
2498892698.0,-0.5311831831932068,-0.238284483551979,9.793834686279297,1.564299702644348,0.3780276775360107,1.162181735038757
2498901031.0,-0.5141934156417847,-0.0932352915406227,10.044113159179688,1.8574546575546265,-0.1314778625965118,1.1687134504318235
2498909364.0,-0.4975259602069855,0.0850034579634666,9.953303337097168,1.9277658462524407,-0.0044568772427737,1.1274745464324951
2498917697.0,-0.3927134871482849,-0.0357149876654148,9.681962013244627,1.7483125925064087,0.3160412907600403,1.227677583694458
2498926030.0,-0.3536018133163452,-0.201284646987915,9.749581336975098,1.5855594873428345,0.1109992787241935,1.314227819442749
2498934363.0,-0.4016217589378357,-0.1713732182979583,10.032257080078123,1.6856343746185305,-0.104070633649826,1.2888953685760498
2498942696.0,-0.4388190507888794,-0.04767756909132,10.02899932861328,1.873156189918518,0.5104276537895203,1.2424055337905884
2498951029.0,-0.4377350807189941,-0.0257731061428785,9.830565452575684,1.9064804315567017,0.8712553381919861,1.260130763053894
2498959362.0,-0.4701957106590271,-0.1657092124223709,9.769609451293944,1.6858136653900146,0.6137298345565796,1.1648457050323486
2498967695.0,-0.509634256362915,-0.1475181132555008,9.961532592773438,1.779510498046875,0.1218084841966629,1.200526475906372
2498976028.0,-0.5008730292320251,-0.0551071465015411,10.01217269897461,1.801999807357788,0.1601530015468597,1.3003705739974976
2498984361.0,-0.4475574493408203,-0.0792130082845687,9.844307899475098,1.776513695716858,0.5005916953086853,1.3354876041412354
2498992694.0,-0.3367083966732025,-0.2253482639789581,9.740757942199709,1.7345318794250488,0.3066664338111877,1.3458102941513062
2499001027.0,-0.3546673357486725,-0.2514838874340057,9.915449142456056,1.736786127090454,0.1232685074210167,1.2577486038208008
2499009360.0,-0.4101208448410034,-0.1240394860506057,10.00999641418457,1.746365666389465,0.1390468776226043,1.292609453201294
2499017693.0,-0.437872976064682,-0.0532948262989521,9.853222846984863,1.8347091674804688,0.556763768196106,1.288664937019348
2499026026.0,-0.4192923903465271,-0.2198561280965805,9.768021583557127,1.805303931236267,0.693210780620575,1.342992663383484
2499034359.0,-0.4584233164787292,-0.329104870557785,9.9264554977417,1.886705994606018,0.3834835290908813,1.3161746263504028
2499042692.0,-0.5074058771133423,-0.1795213371515274,10.094331741333008,1.986575961112976,0.4096612334251404,1.3272911310195925
2499051025.0,-0.4941087365150451,0.0400941297411918,9.975105285644531,2.133396863937378,0.5099153518676758,1.284412860870361
2499059358.0,-0.4334149062633514,0.0119124250486493,9.687838554382324,1.9008196592330933,0.4134521782398224,1.2692238092422483
2499067691.0,-0.3860193490982055,-0.217750146985054,9.71881103515625,1.4752646684646606,-0.2878271341323852,1.3654308319091797
2499076024.0,-0.3956632018089294,-0.2320443838834762,10.00978660583496,1.5098437070846558,-0.8761348724365234,1.2485530376434326
2499084357.0,-0.4517132341861725,-0.0615260675549507,10.135318756103516,1.788450002670288,-0.4928435087203979,1.3156368732452393
2499092690.0,-0.478734940290451,0.0248129498213529,9.793869972229004,1.5525426864624023,-0.1769943535327911,1.495755910873413
2499101023.0,-0.4900256693363189,-0.1243671029806137,9.751120567321776,1.3166354894638062,-0.457137256860733,1.3323626518249512
2499109356.0,-0.5647135972976685,-0.1892871856689453,9.966110229492188,1.126936674118042,-1.0339441299438477,1.414840579032898
2499117689.0,-0.5772570967674255,-0.0716912001371383,10.087896347045898,1.1145137548446655,-1.6342393159866333,1.4263925552368164
2499126022.0,-0.5329176187515259,-0.0439285710453987,10.05359935760498,1.3848977088928225,-1.3677233457565308,1.6446517705917358
2499134355.0,-0.4440732598304748,-0.1928690522909164,9.894015312194824,1.2473491430282593,-1.0563054084777832,1.7114534378051758
2499142688.0,-0.460102379322052,-0.2416436076164245,10.001262664794922,1.3182238340377808,-0.8454234004020691,2.071308135986328
2499151021.0,-0.2804337441921234,-0.0329142734408378,10.20262622833252,1.5793352127075195,-0.5396407246589661,2.147996664047241
2499159354.0,-0.4215585589408874,0.1172142252326011,10.084176063537598,1.764372706413269,0.1210400760173797,1.8316612243652344
2499167687.0,-0.475876897573471,-0.0938596948981285,9.81051254272461,1.7696233987808228,0.5054329037666321,1.7818670272827148
2499176020.0,-0.4722676277160644,-0.2218302339315414,9.79974365234375,1.5108428001403809,0.370522677898407,1.664374589920044
2499184353.0,-0.5181357860565186,-0.136472687125206,10.071455955505373,1.5016729831695557,0.0554163940250873,1.4813607931137085
2499192686.0,-0.5114233493804932,0.1096787378191948,10.193266868591309,1.969260573387146,0.1686056852340698,1.2863595485687256
2499201019.0,-0.4774585962295532,0.1195737197995185,9.839560508728027,1.6781293153762815,0.2180923968553543,1.3746006488800049
2499209352.0,-0.3617929518222809,-0.0505258291959762,9.777458190917969,1.476494073867798,-0.0200559459626674,1.4188109636306765
2499217685.0,-0.3585585653781891,-0.13865827023983,9.995444297790527,1.2375646829605105,-0.1230251789093017,1.4022897481918335
2499226018.0,-0.4199526309967041,-0.0222599450498819,10.198324203491213,1.453927993774414,-0.0971035659313201,1.273936748504639
2499234351.0,-0.4289322793483734,0.0445606186985969,10.1666841506958,1.6186020374298096,0.4624266028404236,1.331620216369629
2499242684.0,-0.4417591989040375,-0.0409962125122547,9.990498542785645,1.5309244394302368,0.8409537076950073,1.2328771352767944
2499251017.0,-0.5377990007400513,-0.0609012581408023,9.94985580444336,1.3580029010772705,0.6886003613471985,1.3524956703186035
2499259350.0,-0.5605114102363586,0.0315446928143501,9.990427017211914,1.4870729446411133,0.2928859889507293,1.350472331047058
2499267683.0,-0.5291135907173157,-0.0042633870616555,9.902198791503906,1.4864836931228638,0.0936840623617172,1.3205034732818604
2499276016.0,-0.428550511598587,-0.1727433055639267,9.869756698608398,1.2909189462661743,-0.0326069183647632,1.3133058547973633
2499284349.0,-0.3593973517417907,-0.2156537026166916,10.019624710083008,1.2000139951705933,0.1050567850470542,1.2956831455230713
2499292682.0,-0.423577219247818,-0.0497341230511665,10.06970500946045,1.5359959602355957,0.0771628841757774,1.4290052652359009
2499301015.0,-0.4990984499454498,0.0112460423260927,9.87608528137207,1.7061768770217896,0.5323534607887268,1.30974543094635
2499309348.0,-0.5199762582778931,-0.1695020794868469,9.7249116897583,1.5440902709960938,0.6777655482292175,1.3230137825012207
2499317681.0,-0.5649387836456299,-0.2954939007759094,9.882880210876465,1.4699113368988037,0.3186282813549042,1.3414814472198486
2499326014.0,-0.5576773285865784,-0.2400201261043548,10.0022554397583,1.698262095451355,0.0393050424754619,1.305775165557861
2499334347.0,-0.5085387825965881,-0.0277317333966493,9.91628646850586,1.9489744901657104,0.1152512356638908,1.163027286529541
2499342680.0,-0.4861212968826294,-0.0361863151192665,9.723430633544922,1.7510530948638916,0.3330490589141845,1.1401535272598269
2499351013.0,-0.4061003923416137,-0.255191832780838,9.69394874572754,1.4808741807937622,0.1263678222894668,1.227703094482422
2499359346.0,-0.4086679518222809,-0.2446524947881698,9.874015808105469,1.6094574928283691,-0.1937460750341415,1.2877428531646729
2499367679.0,-0.450640320777893,-0.1961645931005478,9.897177696228027,1.816394925117493,-0.0205938443541526,1.2610270977020264
2499376012.0,-0.4567442238330841,-0.1464589685201645,9.722407341003418,1.9086319208145144,0.4516173303127289,1.275140643119812
2499384345.0,-0.4327556490898132,-0.2091485857963562,9.7373046875,1.6742359399795532,0.382894366979599,1.2660986185073853
2499392678.0,-0.5026726126670837,-0.2467336058616638,9.862935066223145,1.740269660949707,0.1584368646144867,1.288255214691162
2499401011.0,-0.4824533462524414,-0.1594115197658538,9.87918186187744,1.810939073562622,0.0868194475769996,1.306031346321106
2499409344.0,-0.4702312350273132,-0.1251947730779647,9.731945991516112,1.7822258472442627,0.0560311451554298,1.2727842330932615
2499417677.0,-0.3708748519420624,-0.2804364860057831,9.68929958343506,1.7190096378326416,-0.0034323071595281,1.2623846530914309
2499426010.0,-0.3057028949260711,-0.3386394381523132,9.862730026245115,1.630179762840271,-0.0790711417794227,1.3171992301940918
2499434343.0,-0.2972237467765808,-0.1802295744419098,9.951570510864258,1.8485407829284668,-0.215825542807579,1.1809827089309692
2499442676.0,-0.3654138147830963,-0.0966164171695709,9.821118354797363,1.9561461210250848,0.1987280547618866,1.2829017639160156
2499451009.0,-0.3566824197769165,-0.2467588484287262,9.684202194213867,1.7675998210906982,0.5464412569999695,1.3004729747772217
2499459342.0,-0.3711583316326141,-0.3992531299591064,9.803624153137209,1.7271552085876465,0.1383552998304367,1.2131799459457395
2499467675.0,-0.4049276709556579,-0.3723689913749695,10.022302627563477,1.9561461210250848,0.007697076536715,1.2679941654205322
2499476008.0,-0.3945910930633545,-0.1710643768310547,9.948481559753418,2.140338182449341,0.0828748643398284,1.2694799900054932
2499484341.0,-0.3190214037895202,-0.1409332901239395,9.765861511230469,2.1964590549468994,0.3095096349716186,1.2111819982528689
2499492674.0,-0.2525370419025421,-0.2564008831977844,9.75747299194336,1.9582465887069704,0.0332088582217693,1.2733219861984253
2499501007.0,-0.237923726439476,-0.3475117981433868,9.918367385864258,2.1202821731567383,-0.1819123029708862,1.3417633771896362
2499509340.0,-0.2717179656028747,-0.2646621167659759,9.983929634094238,2.272046566009521,0.0786485075950622,1.3201704025268557
2499517673.0,-0.327272355556488,-0.1415850222110748,9.870346069335938,2.370687246322632,0.5196487307548523,1.2205053567886353
2499526006.0,-0.3570781648159027,-0.2083789259195327,9.836003303527832,2.31144118309021,0.6542003154754639,1.2577229738235474
2499534339.0,-0.3812260925769806,-0.2784862220287323,9.90591526031494,2.2558071613311768,0.3916032314300537,1.2915849685668943
2499542672.0,-0.3814961910247803,-0.1863615363836288,9.963236808776855,2.251478672027588,0.2148137986660003,1.3314664363861084
2499551005.0,-0.4003124237060547,-0.0629073828458786,9.946470260620115,2.344151020050049,0.403206467628479,1.2457356452941897
2499559338.0,-0.3251932263374328,-0.1333370804786682,9.805215835571287,2.311928033828736,0.6619358658790588,1.2176622152328491
2499567671.0,-0.2594705522060394,-0.2985957562923431,9.837191581726074,2.145435571670532,0.3821772336959839,1.2843362092971802
2499576004.0,-0.2606855034828186,-0.2383554279804229,10.00594425201416,2.2741215229034424,0.3907580077648163,1.3414560556411743
2499584337.0,-0.3411787748336792,0.0094358585774898,9.993624687194824,2.396327018737793,0.6422128677368164,1.2640241384506226
2499592670.0,-0.405902236700058,0.0395050942897796,9.823308944702148,2.3288846015930176,1.1001441478729248,1.302291750907898
2499601003.0,-0.444048136472702,-0.1493962854146957,9.786230087280272,2.080528974533081,0.8441299200057983,1.3384332656860352
2499609336.0,-0.487113893032074,-0.2450390756130218,9.978988647460938,2.145998954772949,0.3927302658557892,1.29258394241333
2499617669.0,-0.5044971108436584,-0.0558008961379528,10.052414894104004,2.195639371871948,0.401977002620697,1.2494239807128906
2499626002.0,-0.4656348824501037,0.109832689166069,9.865697860717772,2.290616989135742,0.7259202003479004,1.3002169132232666
2499634335.0,-0.4086001515388489,0.0354086607694625,9.730298042297363,2.1557326316833496,0.7398543953895569,1.404210925102234
2499642668.0,-0.3656038343906402,-0.1756179481744766,9.872970581054688,2.10711669921875,0.3102011680603027,1.3129472732543943
2499651001.0,-0.4183453023433685,-0.1217740252614021,10.0067720413208,2.129042625427246,0.2442701607942581,1.3105652332305908
2499659334.0,-0.4678348898887634,0.0163856539875268,9.985339164733888,2.294689893722534,0.5494126081466675,1.472882628440857
2499667667.0,-0.4918345510959625,-0.0301492474973201,9.80397891998291,2.049945592880249,0.8742523193359375,1.38384747505188
2499676000.0,-0.5388314723968506,-0.0975143611431121,9.854971885681152,2.020847797393799,0.5687512755393982,1.2442755699157717
2499684333.0,-0.5441106557846069,-0.1021603867411613,9.942042350769045,2.126404285430908,0.2500846087932586,1.2743208408355713
2499692666.0,-0.5602930784225464,0.0256440285593271,9.99408721923828,2.0810415744781494,0.3161437213420868,1.2795718908309937
2499700999.0,-0.4953243136405945,0.0165021773427724,9.89116668701172,2.035268783569336,0.5838380455970764,1.3358209133148191
2499709332.0,-0.4104834198951721,-0.1504894345998764,9.805517196655272,1.9377554655075075,0.3088180720806122,1.3678642511367798
2499717665.0,-0.3933044672012329,-0.1285788863897323,9.934550285339355,2.042492151260376,0.0625883862376213,1.2781375646591189
2499725998.0,-0.4254454672336578,-0.0148589108139276,10.044137954711914,2.163365602493286,0.2405560910701751,1.2341322898864746
2499734331.0,-0.4725689888000488,0.0553339384496212,9.944449424743652,2.2154905796051025,0.6845276355743408,1.216099977493286
2499742664.0,-0.5053539276123047,-0.1285870820283889,9.759889602661133,2.062419891357422,0.687217116355896,1.19660747051239
2499750997.0,-0.5065661072731018,-0.2946604490280151,9.839069366455078,1.8154215812683103,0.3114306628704071,1.1595178842544556
2499759330.0,-0.5030303597450256,-0.1470492929220199,10.05587673187256,2.146357774734497,0.1371514201164245,1.145302176475525
2499767663.0,-0.4683504998683929,0.0755514949560165,10.013693809509276,2.220536470413208,0.3857119679450989,1.1699429750442505
2499775996.0,-0.3917833566665649,0.0446653664112091,9.809332847595217,2.0685415267944336,0.4086879193782806,1.221453309059143
2499784329.0,-0.3176535665988922,-0.1699267029762268,9.778308868408203,1.814858317375183,0.145015001296997,1.3521884679794312
2499792662.0,-0.3055728673934936,-0.1744048595428466,9.953351974487305,1.874155044555664,0.0262930113822221,1.1478890180587769
2499800995.0,-0.3773714601993561,-0.0365123338997364,10.044012069702148,2.0636236667633057,0.3317939341068268,1.278726577758789
2499809328.0,-0.3788182735443115,-0.0839978605508804,9.877120971679688,2.0062477588653564,0.8505847454071045,1.271708369255066
2499817661.0,-0.3897192776203155,-0.2063170224428177,9.767961502075195,1.831276774406433,0.6251025199890137,1.3225525617599487
2499825994.0,-0.4011740684509277,-0.2547288537025451,9.923157691955566,1.816087365150452,0.2397108078002929,1.2123088836669922
2499834327.0,-0.4171771109104156,-0.1446404755115509,10.032672882080078,1.9374992847442627,0.1853061765432357,1.324934720993042
2499842660.0,-0.3778479397296905,-0.0732739642262458,9.936196327209473,1.870133757591248,0.5065855383872986,1.264946222305298
2499850993.0,-0.3089960813522339,-0.2492334097623825,9.78851318359375,1.914753675460816,0.430869847536087,1.2431997060775757
2499859326.0,-0.2800335884094238,-0.3494278192520141,9.90211582183838,1.988906979560852,0.1421461850404739,1.271631360054016
2499867659.0,-0.3357424139976501,-0.2076317965984344,10.015515327453612,2.1182334423065186,0.1615873873233795,1.323064923286438
2499875992.0,-0.3807188868522644,-0.0658667609095573,9.969141960144045,2.2757863998413086,0.639087975025177,1.332055687904358
2499884325.0,-0.4463817179203033,-0.15936379134655,9.801015853881836,2.120333671569824,0.8790420889854431,1.278598666191101
2499892658.0,-0.4577289223670959,-0.3424786329269409,9.802929878234863,2.116645097732544,0.5720299482345581,1.2338504791259766
2499900991.0,-0.4805870652198791,-0.23054139316082,9.964540481567385,2.300708770751953,0.3268247842788696,1.2398697137832642
2499909324.0,-0.4658147692680359,0.0132069392129778,9.990655899047852,2.4068288803100586,0.4802541434764862,1.2606430053710938
2499917657.0,-0.4381765723228454,0.085246205329895,9.883127212524414,2.2074990272521973,0.6524330377578735,1.2956063747406006
2499925990.0,-0.3953805863857269,-0.1432217955589294,9.746063232421877,2.044464349746704,0.5240032076835632,1.321271896362305
2499934323.0,-0.3881369233131408,-0.2506802678108215,9.860832214355469,2.028071165084839,0.2486758232116699,1.1772431135177612
2499942656.0,-0.4346176385879516,-0.0831387266516685,9.988340377807615,2.0847296714782715,0.5204684138298035,1.2801353931427002
2499950989.0,-0.4925659000873565,0.0100888926535844,9.95163917541504,2.1107027530670166,0.8136489987373352,1.2650742530822754
2499959322.0,-0.5247074961662292,-0.0804346948862075,9.802027702331545,2.025458335876465,0.711678683757782,1.2575691938400269
2499967655.0,-0.5314375758171082,-0.1944348216056823,9.894047737121582,1.89651620388031,0.4113005399703979,1.15027117729187
2499975988.0,-0.4966039359569549,-0.1469096541404724,9.98682975769043,1.8598365783691408,0.1336935013532638,1.2099523544311523
2499984321.0,-0.499658465385437,-0.0548603683710098,9.953262329101562,1.980607867240905,0.3691907525062561,1.1697380542755127
2499992654.0,-0.4094202518463135,-0.1308290064334869,9.836722373962402,1.952124834060669,0.5108886957168579,1.2024986743927002
2500000987.0,-0.3471434712409973,-0.2828714251518249,9.802852630615234,1.9916987419128416,0.2275952696800232,1.177422285079956
2500009320.0,-0.379224568605423,-0.2253759503364563,10.017253875732422,2.0543770790100098,0.0446584187448024,1.2047784328460691
2500017653.0,-0.438092291355133,-0.0517244711518287,10.027458190917969,2.1754040718078613,0.413272887468338,1.1738876104354858
2500025986.0,-0.4655150473117828,-0.0855625346302986,9.859086036682127,2.0417490005493164,0.8469730615615845,1.2508071660995483
2500034319.0,-0.4833513796329498,-0.2776769697666168,9.81224250793457,1.9849624633789065,0.6774068474769592,1.230392575263977
2500042652.0,-0.4704513847827911,-0.3055263459682464,9.982016563415527,2.13024640083313,0.2060281038284301,1.170814037322998
2500050985.0,-0.4366192817687988,-0.0546494163572788,10.052778244018556,2.198866844177246,0.2393010109663009,1.1998093128204346
2500059318.0,-0.3910066485404968,0.1063433587551117,9.926137924194336,2.149508476257324,0.4978255033493042,1.3217841386795044
2500067651.0,-0.3343563377857208,-0.0644877329468727,9.749136924743652,1.9958229064941408,0.4828667938709259,1.246760010719299
2500075984.0,-0.3169202208518982,-0.2481285184621811,9.848624229431152,2.0890841484069824,0.177878051996231,1.2395367622375488
2500084317.0,-0.3653389811515808,-0.1587172001600265,10.002057075500488,2.042799234390259,0.2847662568092346,1.334437608718872
2500092650.0,-0.4206911325454712,0.0348522663116455,9.983760833740234,2.155553102493286,0.5955437421798706,1.2492189407348633
2500100983.0,-0.4066400825977325,0.0018975816201418,9.820895195007324,2.07153844833374,0.8915160894393921,1.2251927852630615
2500109316.0,-0.4058309495449066,-0.145438864827156,9.819334030151367,1.803843975067139,0.4684971272945404,1.2635372877120972
2500117649.0,-0.4430577754974365,-0.1616836637258529,9.99853801727295,1.9876774549484253,0.2289016246795654,1.3663272857666016
2500125982.0,-0.4393809139728546,-0.0387366525828838,10.019639015197754,2.073946237564087,0.3824845850467682,1.2860779762268066
2500134315.0,-0.3768277764320373,-0.0493192002177238,9.826041221618652,1.960987210273743,0.7406226992607117,1.2621797323226929
2500142648.0,-0.314079076051712,-0.23375104367733,9.74545192718506,1.914933204650879,0.316579133272171,1.3619986772537231
2500150981.0,-0.2760310173034668,-0.242041990160942,9.92950439453125,1.9866529703140257,-0.038805566728115,1.3403801918029783
2500159314.0,-0.3382942974567413,-0.0693240091204643,10.031461715698242,2.092952013015747,0.4086623191833496,1.3218353986740112
2500167647.0,-0.4068730473518371,-0.056985855102539,9.876629829406738,2.070795774459839,0.9356496930122375,1.304725170135498
2500175980.0,-0.4317112863063812,-0.2453834116458892,9.769767761230469,2.011319637298584,0.9120845794677734,1.2096962928771973
2500184313.0,-0.4571694135665893,-0.3547245264053345,9.886855125427246,2.0093727111816406,0.3847130239009857,1.319171667098999
2500192646.0,-0.4701184928417206,-0.1919387727975845,10.08995246887207,2.120692253112793,0.1277253776788711,1.1784982681274414
2500200979.0,-0.4690426886081695,0.0372468829154968,9.974693298339844,2.3141307830810547,0.4894496500492096,1.2049832344055176
2500209312.0,-0.4171646237373352,-0.0171862207353115,9.744759559631348,2.102711200714112,0.7018429040908813,1.2146655321121216
2500217645.0,-0.4006209075450897,-0.283803641796112,9.752083778381348,1.9146770238876345,0.2579994201660156,1.2875123023986816
2500225978.0,-0.3799627423286438,-0.2951726615428924,9.957438468933104,2.069592237472534,0.1950139850378036,1.2474772930145264
2500234311.0,-0.4369004964828491,-0.0985678657889366,10.02572536468506,2.1405177116394043,0.4839938282966614,1.3709890842437744
2500242644.0,-0.4866938889026642,-0.003018925897777,9.896907806396484,2.2469704151153564,0.9336516261100768,1.3227063417434692
2500250977.0,-0.4876851141452789,-0.1553784161806106,9.780733108520508,2.012523412704468,0.614575207233429,1.1939691305160522
2500259310.0,-0.505778968334198,-0.2494140416383743,9.883442878723145,1.918775200843811,0.1207583174109458,1.2785217761993408
2500267643.0,-0.5324456691741943,-0.1450645476579666,10.037418365478516,2.056759119033813,0.2331023514270782,1.2916618585586548
2500275976.0,-0.4946725964546203,-0.066971831023693,9.989543914794922,2.18718695640564,0.616291344165802,1.285104751586914
2500284309.0,-0.4064833223819732,-0.1906713992357254,9.776522636413574,2.0922858715057373,0.6374486088752747,1.1648200750350952
2500292642.0,-0.3594144582748413,-0.2756845951080322,9.887269973754885,2.039289951324463,0.1686569303274154,1.125912070274353
2500300975.0,-0.3916087448596954,-0.1285911947488784,10.003374099731444,2.073075294494629,0.1122800111770629,1.2112587690353394
2500309308.0,-0.4398888051509857,0.0116489650681614,10.001385688781738,2.099663019180298,0.6519975662231445,1.242405652999878
2500317641.0,-0.4638338088989258,-0.1138399839401245,9.80736255645752,2.1863927841186523,0.8221272826194763,1.202088713645935
2500325974.0,-0.4638212025165558,-0.3355588018894195,9.797367095947266,2.0558624267578125,0.4388614892959595,1.2391525506973269
2500334307.0,-0.4537104666233063,-0.2647599875926971,9.95366096496582,2.2290658950805664,0.0775727108120918,1.2094401121139526
2500342640.0,-0.4580058455467224,0.035529438406229,10.043009757995604,2.399272918701172,0.2553611397743225,1.286308526992798
2500350973.0,-0.4118954241275787,0.1429209411144256,9.87108325958252,2.3090851306915283,0.6777399182319641,1.243225336074829
2500359306.0,-0.368861049413681,-0.0908720940351486,9.732260704040527,2.0319645404815674,0.3868134021759033,1.2234256267547607
2500367639.0,-0.348426342010498,-0.2563417255878448,9.852526664733888,1.977944016456604,0.0123332543298602,1.2964516878128052
2500375972.0,-0.3695657253265381,-0.1158840656280517,10.032770156860352,2.083730697631836,0.1748299598693847,1.3147659301757812
2500384305.0,-0.3771390318870544,0.0426281914114952,10.02008819580078,2.1805014610290527,0.7753813862800598,1.300524353981018
2500392638.0,-0.4051789045333862,-0.0266218446195125,9.804890632629396,2.1484835147857666,0.9390051364898682,1.1798813343048096
2500400971.0,-0.4387048780918121,-0.1341930627822876,9.819233894348145,2.029326200485229,0.2953193485736847,1.2998840808868408
2500409304.0,-0.4574267566204071,-0.0873912796378135,10.008312225341797,1.9079914093017576,0.0643045380711555,1.2309048175811768
2500417637.0,-0.4355623424053192,0.0382822677493095,9.998711585998535,2.0718202590942383,0.3970078825950622,1.2945818901062012
2500425970.0,-0.3606750071048736,-0.0571285039186477,9.804078102111816,1.9720271825790403,0.6343749761581421,1.2309560775756836
2500434303.0,-0.3292232155799866,-0.2407595217227935,9.807888984680176,1.916674852371216,0.323930412530899,1.340559482574463
2500442636.0,-0.3251989483833313,-0.1990063786506652,9.971364974975586,1.9589126110076904,0.0963479429483413,1.1356711387634275
2500450969.0,-0.3914016187191009,0.0093345493078231,10.026482582092283,2.112982273101806,0.5325583219528198,1.1795995235443115
2500459302.0,-0.4294147193431854,0.0146148232743144,9.861568450927734,1.9635233879089355,1.0112372636795044,1.2928913831710815
2500467635.0,-0.4517756998538971,-0.2261362820863723,9.730391502380373,1.926689863204956,0.5686231851577759,1.2204028367996216
2500475968.0,-0.4567157328128814,-0.340692788362503,9.888779640197754,1.921464800834656,0.1500097960233688,1.2073655128479004
2500484301.0,-0.4492092728614807,-0.1411143094301223,10.057061195373535,2.172791719436645,0.1782622635364532,1.1286016702651978
2500492634.0,-0.4134753346443176,0.0848835781216621,9.967988014221191,2.1231257915496826,0.6928265690803528,1.1991688013076782
2500500967.0,-0.3743099272251129,-0.045004591345787,9.737455368041992,2.0561442375183105,0.5996164083480835,1.2332613468170166
2500509300.0,-0.3751699030399322,-0.2662411630153656,9.820810317993164,1.896669864654541,0.3410919308662414,1.282901644706726
2500517633.0,-0.4001593887805938,-0.2419172525405883,10.023432731628418,1.999306082725525,0.1499329060316085,1.1499894857406616
2500525966.0,-0.4503766596317291,-0.0742921605706214,10.038216590881348,2.2385175228118896,0.5681620836257935,1.2766518592834473
2500534299.0,-0.4728545546531677,-0.0371628925204277,9.854236602783203,2.153043031692505,0.9454086422920228,1.2281129360198977
2500542632.0,-0.4783831238746643,-0.207472950220108,9.75304889678955,1.9128071069717407,0.502000629901886,1.286948800086975
2500550965.0,-0.4782905876636505,-0.2317015826702118,9.91082000732422,1.9377039670944207,0.1919402629137039,1.2803659439086914
2500559298.0,-0.4728965759277344,-0.0795663893222808,10.019301414489746,2.0596280097961426,0.1380735486745834,1.3394325971603394
2500567631.0,-0.4220996499061584,-0.0488092675805091,9.91409683227539,2.0847043991088867,0.5693660378456116,1.2985007762908936
2500575964.0,-0.3773626089096069,-0.2385045289993286,9.793919563293455,1.940778017044068,0.5409854650497437,1.2923023700714111
2500584297.0,-0.3584880828857422,-0.308883398771286,9.893613815307615,2.014777183532715,0.0528037436306476,1.2378718852996826
2500592630.0,-0.391101598739624,-0.1510232537984848,10.035407066345217,2.0168519020080566,0.1460395753383636,1.248732328414917
2500600963.0,-0.4313602447509765,-0.0101844323799014,9.988466262817385,2.028609037399292,0.8603949546813965,1.3744215965270996
2500609296.0,-0.4861721992492676,-0.1562059074640274,9.769387245178224,2.0290186405181885,0.9405418038368224,1.2440961599349976
2500617629.0,-0.4746645092964172,-0.3710438907146454,9.840301513671877,2.083782196044922,0.3315378725528717,1.1817001104354858
2500625962.0,-0.4122059345245361,-0.2867352664470672,10.012434005737305,2.1040942668914795,-0.0124485194683074,1.2662781476974487
2500634295.0,-0.4492491781711578,0.0604035668075084,10.061248779296877,2.225198268890381,0.3715216815471649,1.207006812095642
2500642628.0,-0.3602829277515411,-0.0201745014637708,9.82966423034668,2.130220413208008,0.7594747543334961,1.250781536102295
2500650961.0,-0.299449473619461,-0.1915170699357986,9.718060493469238,1.959450483322144,0.2980856597423553,1.357848882675171
2500659294.0,-0.3439364433288574,-0.2993147671222687,9.95656967163086,2.120359182357788,0.0893296524882316,1.2750896215438845
2500667627.0,-0.4106954932212829,-0.1154059097170829,10.04955005645752,2.041595458984375,0.4069462120532989,1.3180444240570068
2500675960.0,-0.4255878329277038,0.0417359061539173,9.955510139465332,2.289029121398926,0.797486424446106,1.2808783054351809
2500684293.0,-0.439525157213211,-0.0946248173713684,9.771340370178224,2.084627389907837,0.745207667350769,1.167330265045166
2500692626.0,-0.4603785276412964,-0.2330782860517501,9.818808555603027,2.0276870727539062,0.1337959617376327,1.2803916931152344
2500700959.0,-0.4561918079853058,-0.0970339626073837,10.0106201171875,1.9915707111358645,0.1675811260938644,1.2304437160491943
2500709292.0,-0.4265541136264801,-0.0067011513747274,9.960567474365234,2.146690607070923,0.4551777839660644,1.3550313711166382
2500717625.0,-0.3680673241615295,-0.0719157606363296,9.813780784606934,2.0777368545532227,0.6512291431427002,1.3567476272583008
2500725958.0,-0.3214053213596344,-0.2454115003347396,9.783059120178224,1.9543790817260744,0.2568467557430267,1.31571364402771
2500734291.0,-0.3651322722434997,-0.1848251223564148,9.991654396057127,2.1106770038604736,0.0803646668791771,1.106291651725769
2500742624.0,-0.4318052530288696,0.0487008355557918,10.013120651245115,2.1300413608551025,0.6012557148933411,1.2264479398727417
2500750957.0,-0.4449249505996704,-0.0271047744899988,9.835467338562012,2.119744300842285,0.9799877405166626,1.3376905918121338
2500759290.0,-0.4784169495105743,-0.2537148594856262,9.78766918182373,1.98918890953064,0.5109655857086182,1.2426106929779053
2500767623.0,-0.4658112823963165,-0.2639333605766296,9.92280101776123,2.0544283390045166,0.1140217781066894,1.2070837020874023
2500775956.0,-0.4650840163230896,-0.0377557687461376,10.09115219116211,2.1574742794036865,0.1769815534353256,1.2421752214431765
2500784289.0,-0.4534645080566406,0.1278086453676223,9.951148986816406,2.1116504669189453,0.7373954653739929,1.3398423194885254
2500792622.0,-0.393293023109436,-0.0693734288215637,9.723233222961426,1.92914879322052,0.5386545658111572,1.316020965576172
2500800955.0,-0.356150358915329,-0.2718934118747711,9.834606170654297,1.97002911567688,0.2631478309631347,1.2491676807403564
2500809288.0,-0.3791669607162475,-0.1726463586091995,10.04630184173584,1.9962581396102903,0.2562832236289978,1.2755248546600342
2500817621.0,-0.4372499287128448,0.0213178377598524,10.048068046569824,2.1670284271240234,0.5551245212554932,1.2986290454864502
2500825954.0,-0.4681672751903534,0.0025770529173314,9.82652187347412,2.0879573822021484,0.8691551089286804,1.2623080015182495
2500834287.0,-0.4680241048336029,-0.1859493106603622,9.77540397644043,1.936013460159301,0.4119665324687958,1.2332100868225098
2500842620.0,-0.4888468980789184,-0.186518520116806,9.957669258117676,1.9536616802215576,0.0899187624454498,1.2450182437896729
2500850953.0,-0.4688165783882141,-0.0276726782321929,10.066861152648926,2.0953855514526367,0.3359178900718689,1.2943003177642822
2500859286.0,-0.4071428477764129,-0.0812774077057838,9.870306015014648,1.934912204742432,0.6591694951057434,1.159492254257202
2500867619.0,-0.3486260771751404,-0.2515484690666199,9.757488250732422,1.9541226625442505,0.3183977305889129,1.1988612413406372
2500875952.0,-0.3222472071647644,-0.2672856748104095,9.92298412322998,2.012113571166992,0.0709386244416236,1.2338249683380127
2500884285.0,-0.3941651582717895,-0.0823043808341026,10.03976821899414,2.098407745361328,0.3655278980731964,1.2759090662002563
2500892618.0,-0.4414726495742798,-0.0158751606941223,9.915606498718262,1.9950798749923704,0.8094738721847534,1.1996299028396606
2500900951.0,-0.4389625191688537,-0.2278202325105667,9.755865097045898,1.9473862648010247,0.9672574400901794,1.2996277809143066
2500909284.0,-0.4450076520442962,-0.376988023519516,9.858182907104492,2.00517201423645,0.2401718646287918,1.227703094482422
2500917617.0,-0.4426090121269226,-0.1924853920936584,10.070728302001951,2.2192304134368896,0.1147133633494377,1.1158201694488523
2500925950.0,-0.4408285617828369,0.0510652884840965,9.991729736328123,2.249070644378662,0.4183445274829864,1.2346190214157104
2500934283.0,-0.3763428032398224,-0.0287449359893798,9.764567375183104,2.0637004375457764,0.7632914185523987,1.310693383216858
2500942616.0,-0.3821379244327545,-0.2517687082290649,9.781742095947266,1.9563512802124023,0.2473951131105423,1.3564404249191284
2500950949.0,-0.3701664209365845,-0.303255558013916,9.978707313537598,1.960065126419068,0.027291964739561,1.1625148057937622
2500959282.0,-0.4125289618968963,-0.0879358202219009,10.057777404785156,2.0947959423065186,0.447800874710083,1.2227596044540403
2500967615.0,-0.4174152612686157,-0.0140659185126423,9.905668258666992,2.214363574981689,0.8657996654510498,1.3652772903442385
2500975948.0,-0.456432968378067,-0.1602541953325271,9.750236511230469,2.0410830974578857,0.6200309991836548,1.2114380598068235
2500984281.0,-0.4510687291622162,-0.2417500615119934,9.889575958251951,1.9400347471237185,0.2454227805137634,1.3023172616958618
2500992614.0,-0.4407287240028381,-0.1184915676712989,10.030385971069336,2.043875217437744,0.2087944447994232,1.1708906888961792
2501000947.0,-0.4241428077220917,-0.0262663457542657,9.955998420715332,2.0423383712768555,0.6973603963851929,1.2955553531646729
2501009280.0,-0.3702720999717712,-0.1561111509799957,9.75350284576416,2.0532755851745605,0.5628600716590881,1.2851046323776243
2501017613.0,-0.3324275910854339,-0.2806639075279236,9.874996185302734,2.023178815841675,0.1742152273654937,1.2567241191864014
2501025946.0,-0.3740198314189911,-0.1547212600708007,10.023472785949709,2.143130302429199,0.2551561892032623,1.3258569240570068
2501034279.0,-0.4375404715538025,0.0091025680303573,10.01540756225586,2.173482894897461,0.6110404133796692,1.2704789638519287
2501042612.0,-0.4575594663619995,-0.0795912519097328,9.808971405029297,2.064673900604248,0.9096255898475648,1.243122935295105
2501050945.0,-0.4689210653305053,-0.343472421169281,9.79338836669922,2.01534104347229,0.3901944756507873,1.244839072227478
2501059278.0,-0.4617893695831299,-0.2622101008892059,9.978546142578123,2.163698196411133,-0.0198254156857728,1.2832090854644775
2501067611.0,-0.4569439589977264,0.003496628254652,10.064981460571287,2.279782056808472,0.2257510423660278,1.2789571285247805
2501075944.0,-0.4277050495147705,0.0815351456403732,9.889857292175291,2.201223134994507,0.769105851650238,1.3080804347991943
2501084277.0,-0.3833276033401489,-0.1421470493078231,9.723482131958008,2.091261386871338,0.5018725395202637,1.2436095476150513
2501092610.0,-0.3670452535152435,-0.3079079389572143,9.888764381408691,1.915931940078736,0.0219642035663127,1.274269700050354
2501100943.0,-0.3985403776168823,-0.1481964737176895,10.06872272491455,2.177709579467773,0.2051316052675247,1.1838515996932983
2501109276.0,-0.4449712634086609,0.0378045663237571,10.021615982055664,2.2553205490112305,0.8207442164421082,1.2491679191589355
2501117609.0,-0.473636656999588,-0.0275029670447111,9.773724555969238,2.1615726947784424,0.8600364327430725,1.240971326828003
2501125942.0,-0.4834266304969787,-0.1859823316335678,9.791686058044434,1.871593952178955,0.3416811227798462,1.21310293674469
2501134275.0,-0.4838971197605133,-0.1571867316961288,10.013081550598145,2.063239336013794,-0.0195436645299196,1.2589781284332275
2501142608.0,-0.4779477715492248,-0.0033873913343995,10.019795417785645,2.1159024238586426,0.2756219804286957,1.222042441368103
2501150941.0,-0.3939331471920013,-0.0408805385231971,9.804709434509276,2.07632827758789,0.5357344746589661,1.1856956481933594
2501159274.0,-0.3559690117835998,-0.2083351612091064,9.76707935333252,1.9705159664154053,0.3105597794055938,1.2475541830062866
2501167607.0,-0.3440568745136261,-0.1932923942804336,9.951323509216309,2.0399560928344727,-0.0143951987847685,1.0852365493774414
2501175940.0,-0.3759657740592956,0.018619505688548,10.030832290649414,2.08465313911438,0.4384004771709442,1.2084412574768066
2501184273.0,-0.4141246676445007,0.0291953459382057,9.87475872039795,2.0683367252349854,0.8978428840637207,1.201422929763794
2501192606.0,-0.4405452609062195,-0.2362390011548996,9.755078315734863,1.916290521621704,0.7400080561637878,1.2240402698516846
2501200939.0,-0.4468990862369537,-0.3270017802715301,9.886763572692873,2.110600233078003,0.0894833281636238,1.1636162996292114
2501209272.0,-0.4563732147216797,-0.1143408492207527,10.094778060913086,2.1887238025665283,0.1166344210505485,1.2017815113067627
2501217605.0,-0.4361915588378906,0.1152955815196037,9.999115943908691,2.161674737930298,0.5491563677787781,1.2694542407989502
2501225938.0,-0.3674740791320801,-0.0293830968439579,9.736741065979004,1.9846549034118648,0.583223283290863,1.2741416692733765
2501234271.0,-0.3400090336799621,-0.2748377323150635,9.756597518920898,1.8414713144302368,0.18702232837677,1.3671724796295166
2501242604.0,-0.3269041180610657,-0.2640439867973327,10.012011528015137,1.965546607971192,0.1563621014356613,1.2792131900787354
2501250937.0,-0.3954782485961914,-0.0403843745589256,10.075971603393556,2.032707452774048,0.6515108346939087,1.3848977088928225
2501259270.0,-0.4271199107170105,-0.003889491315931,9.912652015686035,2.231319665908813,0.9737891554832458,1.232749104499817
2501267603.0,-0.4614616632461548,-0.1764044612646103,9.75947093963623,2.0079894065856934,0.6680576801300049,1.2699154615402222
2501275936.0,-0.4917696416378021,-0.2195016592741012,9.90790843963623,1.917570948600769,0.1494974642992019,1.3221427202224731
2501284269.0,-0.4873428642749786,-0.0784175023436546,10.04822826385498,2.0764307975769043,0.2789262235164642,1.2603356838226318
2501292602.0,-0.4444299936294555,-0.0604802779853343,9.90052604675293,2.028865337371826,0.5854517817497253,1.273706316947937
2501300935.0,-0.3544074892997741,-0.1944283843040466,9.763052940368652,1.965367317199707,0.4837119877338409,1.1755523681640625
2501309268.0,-0.3477513790130615,-0.2666431367397308,9.86404037475586,2.035857915878296,0.1646867394447326,1.307363510131836
2501317601.0,-0.3712857663631439,-0.1311855763196945,10.028875350952148,2.138929605484009,0.3182440400123596,1.2836958169937134
2501325934.0,-0.4327905774116516,0.0200928393751382,10.00292682647705,2.09525728225708,0.7849610447883606,1.256800889968872
2501334267.0,-0.4735886752605438,-0.1638422906398773,9.789316177368164,1.983272075653076,0.9472784996032716,1.2530099153518677
2501342600.0,-0.473772644996643,-0.3851170837879181,9.812255859375,2.005453586578369,0.3337918817996979,1.344990611076355
2501350933.0,-0.4713245034217834,-0.230601891875267,10.002057075500488,2.134498357772827,0.0821832790970802,1.2551615238189695
2501359266.0,-0.4675720036029815,0.0126616489142179,10.031933784484863,2.3559844493865967,0.4953152537345886,1.2404847145080566
2501367599.0,-0.4107762277126312,0.0025628614239394,9.832847595214844,2.201120615005493,0.6892918944358826,1.3465019464492798
2501375932.0,-0.3601966798305511,-0.1989258676767349,9.747486114501951,1.9994853734970093,0.3198064863681793,1.2441216707229614
2501384265.0,-0.3801982402801513,-0.3331335783004761,9.967693328857422,2.051431179046631,0.0429934933781623,1.2645108699798584
2501392598.0,-0.4050945341587066,-0.1059838160872459,10.103546142578123,2.2168736457824707,0.3477773070335388,1.304469108581543
2501400931.0,-0.4482470750808716,0.0340179875493049,9.965100288391112,2.300068616867065,0.9069872498512268,1.2576204538345337
2501409264.0,-0.4669074714183807,-0.154584601521492,9.747153282165527,2.062342882156372,0.8435919880867004,1.253086805343628
2501417597.0,-0.4401047825813293,-0.2076372653245926,9.847078323364258,1.945490837097168,0.1530066430568695,1.2701972723007202
2501425930.0,-0.4400733113288879,-0.1033717468380928,10.02155876159668,2.036447048187256,0.1705524027347564,1.274039387702942
2501434263.0,-0.4141087234020233,-0.0201719924807548,9.968990325927734,2.1133923530578613,0.5878338813781738,1.2798025608062744
2501442596.0,-0.3467457592487335,-0.1171429455280304,9.784452438354492,2.1124446392059326,0.6655219197273254,1.3088490962982178
2501450929.0,-0.321075975894928,-0.253736674785614,9.812041282653809,1.9939531087875368,0.2783627212047577,1.2643827199935913
2501459262.0,-0.3498115241527557,-0.1853107959032058,9.990189552307127,2.1095244884490967,0.0104378014802932,1.204547882080078
2501467595.0,-0.4357113838195801,0.0351257398724556,10.016073226928713,2.0085017681121826,0.6485396027565002,1.2500643730163574
2501475928.0,-0.4546085596084595,-0.0605380088090896,9.841060638427734,2.059781551361084,1.0848780870437622,1.3105137348175049
2501484261.0,-0.4598492980003357,-0.2975230813026428,9.782645225524902,2.0319645404815674,0.5468511581420898,1.2850021123886108
2501492594.0,-0.4311330318450928,-0.2429929077625274,9.97002410888672,2.0656726360321045,0.0444022715091705,1.2164839506149292
2501500927.0,-0.4469015002250671,-0.0371886901557445,10.07855224609375,2.250812768936157,0.3599696755409241,1.2816978693008425
2501509260.0,-0.3926398158073425,0.0858495756983757,9.911266326904297,2.1317062377929688,0.7009719610214233,1.3173530101776123
2501517593.0,-0.3436245024204254,-0.1086814701557159,9.721586227416992,1.998717188835144,0.6366291046142578,1.3939393758773804
2501525926.0,-0.3391497433185577,-0.3124923408031463,9.873668670654297,1.9428268671035769,0.1501890569925308,1.3080804347991943
2501534259.0,-0.3726821541786194,-0.155536949634552,10.04993724822998,2.13562536239624,0.3021583557128906,1.2620774507522583
2501542592.0,-0.4408777058124542,0.0507690049707889,10.013639450073242,2.2016844749450684,0.7117555737495422,1.194507122039795
2501550925.0,-0.471187949180603,-0.02402238920331,9.787070274353027,2.1917974948883057,0.8287101984024048,1.1570334434509275
2501559258.0,-0.4848882555961609,-0.1794900447130203,9.793213844299316,1.9283291101455688,0.344370573759079,1.286948800086975
2501567591.0,-0.4708763360977173,-0.1647187322378158,9.997393608093262,1.9800701141357424,0.0893552601337432,1.1969660520553589
2501575924.0,-0.4555351734161377,0.0020790509879589,10.035152435302734,2.1496362686157227,0.5172410607337952,1.208056926727295
2501584257.0,-0.37471604347229,-0.0629729256033897,9.848085403442385,2.052250862121582,0.5809180736541748,1.2204798460006714
2501592590.0,-0.3450514674186706,-0.2393823862075805,9.790886878967283,1.983937740325928,0.3581254482269287,1.2492189407348633
2501600923.0,-0.3496826291084289,-0.2212078273296356,9.967129707336426,2.0524559020996094,0.0881770104169845,1.3301087617874146
2501609256.0,-0.4024174213409424,-0.0199905540794134,10.044877052307127,2.0003821849823,0.4556131660938263,1.1936874389648438
2501617589.0,-0.4488086998462677,0.006721019744873,9.860886573791504,1.9707465171813965,1.0361342430114746,1.3141512870788574
2501625922.0,-0.4501828253269195,-0.2420291900634765,9.74239730834961,1.9964120388031008,0.696463942527771,1.2749614715576172
2501634255.0,-0.4681072235107422,-0.3296017050743103,9.90563678741455,2.0498945713043213,0.1695790290832519,1.2903810739517212
2501642588.0,-0.4828751385211944,-0.1294345408678054,10.079704284667969,2.1330127716064453,0.2014943957328796,1.2800074815750122
2501650921.0,-0.4559232890605926,0.0758211389183998,9.949326515197754,2.1993024349212646,0.661679744720459,1.3112823963165283
2501659254.0,-0.379006415605545,-0.0445041619241237,9.719603538513184,2.072998523712158,0.6093754768371582,1.2570059299468994
2501667587.0,-0.3652448058128357,-0.2936226725578308,9.778202056884766,1.9059169292449951,0.259254515171051,1.2255003452301023
2501675920.0,-0.3356452286243438,-0.2714731991291046,9.994394302368164,1.991621971130371,0.2264170050621032,1.2485530376434326
2501684253.0,-0.3960369527339935,-0.0576597675681114,10.07910442352295,2.178605794906616,0.7018172740936279,1.2235023975372314
2501692586.0,-0.4300382435321808,-0.0277145467698574,9.879334449768066,2.1329870223999023,1.0107247829437256,1.183364748954773
2501700919.0,-0.4579529166221618,-0.2065850049257278,9.790403366088867,1.974691152572632,0.7257922291755676,1.235899806022644
2501709252.0,-0.4815936386585235,-0.217786356806755,9.94632053375244,2.015007972717285,0.1219878047704696,1.2764214277267456
2501717585.0,-0.4716116786003113,-0.0641776099801063,10.04725170135498,2.041390419006348,0.3909629285335541,1.2237842082977295
2501725918.0,-0.415690153837204,-0.0390609093010425,9.88385772705078,2.146024465560913,0.6848862171173096,1.2721694707870483
2501734251.0,-0.3675549626350403,-0.2125684171915054,9.769180297851562,1.9126790761947632,0.5852981209754944,1.359001636505127
2501742584.0,-0.3232162892818451,-0.2748084962368011,9.886216163635254,2.060678005218506,0.161741092801094,1.2439168691635132
2501750917.0,-0.3476541638374328,-0.0950763002038002,10.020387649536133,2.0927982330322266,0.1355633288621902,1.1757829189300537
2501759250.0,-0.4003413319587707,0.0004276921390555,9.940533638000488,2.1000471115112305,0.8561173677444458,1.217098832130432
2501767583.0,-0.4477500021457672,-0.1746746003627777,9.773625373840332,1.959194540977478,0.9424116611480712,1.2626665830612185
2501775916.0,-0.4700784981250763,-0.3433151841163635,9.810295104980469,1.913267970085144,0.4379137456417084,1.1925603151321411
2501784249.0,-0.4528278112411499,-0.2316428273916244,10.000616073608398,2.162187099456787,-0.0482572205364704,1.3076450824737549
2501792582.0,-0.4424609839916229,0.0220027789473533,10.020811080932615,2.2749414443969727,0.4285133779048919,1.1923298835754397
2501800915.0,-0.3823004364967346,0.0332485698163509,9.805425643920898,2.116568326950073,0.6711058020591736,1.221760630607605
2501809248.0,-0.3581033945083618,-0.2047475427389145,9.74649715423584,1.9627803564071653,0.4193434417247772,1.1951217651367188
2501817581.0,-0.3583788573741913,-0.2959500849246979,9.951679229736328,1.93276047706604,0.1095905005931854,1.193328619003296
2501825914.0,-0.4011459648609161,-0.0839114189147949,10.085371971130373,2.109652280807495,0.4846085011959076,1.2356947660446167
2501834247.0,-0.4260137677192688,0.0137556139379739,9.981740951538086,2.233471632003784,0.8961524963378906,1.245556354522705
2501842580.0,-0.4625877439975738,-0.1161455288529396,9.78488063812256,2.0187220573425293,0.7866004109382629,1.248041033744812
2501850913.0,-0.4622117280960083,-0.2393587231636047,9.85531997680664,2.0289673805236816,0.2459094673395156,1.3423523902893066
2501859246.0,-0.4523215889930725,-0.1006505116820335,10.011658668518066,2.0048136711120605,0.1723966151475906,1.1616183519363403
2501867579.0,-0.4345044791698456,-0.0060218041762709,9.979368209838867,2.0697712898254395,0.4897314012050628,1.2170220613479614
2501875912.0,-0.3659929931163788,-0.1307037323713302,9.822550773620604,2.0059659481048584,0.6440058946609497,1.2690956592559814
2501884245.0,-0.345142513513565,-0.2740108370780945,9.825888633728027,2.080247163772583,0.1814128309488296,1.2605661153793335
2501892578.0,-0.3335019648075104,-0.1835903376340866,9.963797569274902,2.012548923492432,0.1495230942964553,1.3163540363311768
2501900911.0,-0.4090384542942047,0.0552972927689552,10.03200626373291,2.0590643882751465,0.7470006942749023,1.191996932029724
2501909244.0,-0.4817927181720733,-0.0349162556231021,9.84385108947754,2.0409038066864014,1.0294489860534668,1.2192760705947876
2501917577.0,-0.4458294212818146,-0.3244230449199676,9.73686981201172,1.9543790817260744,0.5940069556236267,1.2438145875930786
2501925910.0,-0.4852052927017212,-0.2685405313968658,9.94092082977295,2.0896990299224854,0.0283933766186237,1.283516526222229
2501934243.0,-0.4697902500629425,-0.0868827775120735,10.090429306030272,2.237262487411499,0.203748419880867,1.2416115999221802
2501942576.0,-0.4128707945346832,0.1278450638055801,9.925267219543455,2.225069999694824,0.7144962549209595,1.3144328594207764
2501950909.0,-0.3494414687156677,-0.062928669154644,9.707935333251951,1.895799279212952,0.7707451581954956,1.3068768978118896
2501959242.0,-0.347223162651062,-0.2850086987018585,9.826027870178224,1.9475910663604736,0.112305611371994,1.2971174716949463
2501967575.0,-0.3690508902072906,-0.2348342388868332,10.084749221801758,1.926895022392273,0.2256485819816589,1.3113080263137815
2501975908.0,-0.4351696968078613,0.0278935544192791,10.067241668701172,2.189671277999878,0.6287398338317871,1.2353618144989014
2501984241.0,-0.4486923515796661,-0.0545954331755638,9.817187309265137,2.079658269882202,0.9396453499794006,1.3341301679611206
2501992574.0,-0.464452177286148,-0.1848660707473755,9.788095474243164,1.9514589309692385,0.4896545112133026,1.2395367622375488
2502000907.0,-0.4427787661552429,-0.2065792083740234,9.92032527923584,1.888806700706482,0.1134838759899139,1.2262431383132937
2502009240.0,-0.4500457346439361,-0.0459014661610126,10.043231010437012,2.070462703704834,0.3484432399272918,1.2276006937026978
2502017573.0,-0.3743636310100555,-0.0311279334127903,9.857303619384766,1.9774315357208248,0.7766364216804504,1.2100805044174194
2502025906.0,-0.3441357314586639,-0.2415153235197067,9.73849105834961,2.0207712650299072,0.4728003740310669,1.203139066696167
2502034239.0,-0.3350056707859039,-0.2894660532474518,9.893439292907717,2.029377222061157,0.0469636991620063,1.185106635093689
2502042572.0,-0.3891777396202087,-0.0730846524238586,10.075933456420898,2.143232822418213,0.2965744137763977,1.2911494970321655
2502050905.0,-0.4500011801719665,0.015273337252438,9.9501953125,2.0715129375457764,0.8200013041496277,1.2592087984085083
2502059238.0,-0.4707026481628418,-0.1868314743041992,9.750076293945312,2.1051957607269287,0.8533511161804199,1.23159658908844
2502067571.0,-0.4189514219760895,-0.3881657421588897,9.872886657714844,2.011908769607544,0.2982905805110931,1.265074372291565
2502075904.0,-0.4399389028549194,-0.2037758827209472,10.09295654296875,2.0697455406188965,-0.0417255908250808,1.2833116054534912
2502084237.0,-0.4054197967052459,0.0392921604216098,10.00101375579834,2.232395887374878,0.6011020541191101,1.191049098968506
2502092570.0,-0.3483498990535736,0.0253052078187465,9.780104637145996,2.09097957611084,0.757348895072937,1.2512168884277344
2502100903.0,-0.3415388762950897,-0.240781158208847,9.754756927490234,1.8306108713150024,0.376055359840393,1.3166868686676023
2502109236.0,-0.3664350807666778,-0.3064683377742767,9.957387924194336,1.964035391807556,0.0408931225538253,1.2520365715026855
2502117569.0,-0.446148157119751,-0.1146089732646942,10.091341972351074,2.1500463485717773,0.4048970341682434,1.3655847311019895
2502125902.0,-0.4591656625270843,-0.0072829755954444,9.90725803375244,2.241079092025757,0.9705106616020204,1.2421494722366333
2502134235.0,-0.4949120879173279,-0.1476351022720337,9.755731582641602,2.0693867206573486,0.6842458248138428,1.2627688646316528
2502142568.0,-0.4605258107185364,-0.2172020822763443,9.844158172607422,1.932017683982849,0.082003965973854,1.2667903900146484
2502150901.0,-0.4344180822372436,-0.1094896793365478,10.03323459625244,2.059781551361084,0.0841299518942833,1.264357089996338
2502159234.0,-0.3885350823402405,-0.0149331893771886,9.989996910095217,2.1514806747436523,0.610169529914856,1.3159698247909546
2502167567.0,-0.3321683406829834,-0.1348011642694473,9.77493953704834,2.009526252746582,0.5595301985740662,1.2516781091690063
2502175900.0,-0.3232957720756531,-0.2842960953712463,9.827383041381836,1.973538398742676,0.2888901233673095,1.2345165014266968
2502184233.0,-0.3744428753852844,-0.170867383480072,10.054922103881836,2.132987260818481,0.1273411810398101,1.286539077758789
2502192566.0,-0.4562514722347259,0.0435003899037838,10.035215377807615,2.207627058029175,0.6546358466148376,1.2208129167556765
2502200899.0,-0.4858531951904297,-0.0479627177119255,9.806912422180176,2.065800905227661,0.987057328224182,1.3013440370559692
2502209232.0,-0.4820410013198852,-0.3024961948394775,9.75714111328125,1.954046010971069,0.4608641266822815,1.2714264392852783
2502217565.0,-0.4488733112812042,-0.3037914037704468,9.97416877746582,1.9905463457107544,-0.0640355944633483,1.3159441947937012
2502225898.0,-0.4381212294101715,-0.0166918020695447,10.103477478027344,2.1805269718170166,0.2820767760276794,1.2875890731811523
2502234231.0,-0.3698461949825287,0.0924974679946899,9.920799255371094,2.198021650314331,0.7268424034118652,1.135158896446228
2502242564.0,-0.3475279211997986,-0.1001275405287742,9.726778984069824,1.9933379888534544,0.5897805690765381,1.254111409187317
2502250897.0,-0.3444074094295501,-0.2992998957633972,9.864336967468262,2.010653495788574,0.1959360986948013,1.344119906425476
2502259230.0,-0.3985741734504699,-0.1646002680063247,10.07066249847412,2.0896477699279785,0.254387766122818,1.2474771738052368
2502267563.0,-0.4572357833385467,-0.0091482084244489,9.995756149291992,2.26180100440979,0.8219479918479919,1.2250903844833374
2502275896.0,-0.4679620862007141,-0.0192856770008802,9.784077644348145,2.10365891456604,0.9729440212249756,1.2011412382125854
2502284229.0,-0.4789046347141266,-0.2235456556081771,9.76773452758789,2.0074002742767334,0.3747746348381042,1.137720227241516
2502292562.0,-0.4515859484672546,-0.1550922393798828,9.995463371276855,1.9562232494354248,-0.0116800907999277,1.2127187252044678
2502300895.0,-0.4189878106117248,-0.0090461894869804,10.052901268005373,2.140876531600952,0.2368932664394378,1.2162792682647705
2502309228.0,-0.3749243021011352,-0.0299505796283483,9.845712661743164,2.107398509979248,0.7061461210250854,1.3983196020126345
2502317561.0,-0.3382595479488373,-0.2271689921617508,9.75480842590332,2.0726141929626465,0.5199561715126038,1.292993664741516
2502325894.0,-0.3256666362285614,-0.2314242124557495,9.952011108398438,2.0723581314086914,0.1008304357528686,1.232595443725586
2502334227.0,-0.4055163264274597,-0.0198482014238834,10.07778263092041,2.0746891498565674,0.3744929432868957,1.263896107673645
2502342560.0,-0.4687908887863159,0.0415399111807346,9.915489196777344,2.15529727935791,1.0333679914474487,1.2217094898223877
2502350893.0,-0.4797094464302063,-0.1881157308816909,9.741016387939451,2.155758142471313,0.7359098196029663,1.3084136247634888
2502359226.0,-0.4697222411632538,-0.3479458093643188,9.901785850524902,2.037394762039185,0.1393798738718032,1.2253210544586182
2502367559.0,-0.4307838976383209,-0.138086512684822,10.083728790283203,2.228015661239624,0.1572842001914978,1.2132054567337036
2502375892.0,-0.4244952201843261,0.0628141686320304,10.00223445892334,2.183703184127808,0.5553293824195862,1.2985777854919434
2502384225.0,-0.3719634711742401,-0.005314789712429,9.739617347717283,2.101814746856689,0.6990509033203125,1.3006269931793213
2502392558.0,-0.3695038855075836,-0.2308304160833358,9.773590087890623,1.903380990028381,0.3314353823661804,1.3733199834823608
2502400891.0,-0.3668447732925415,-0.2533033788204193,10.012677192687988,2.047666072845459,0.0657645538449287,1.3247811794281006
2502409224.0,-0.4133456647396087,-0.0533934123814106,10.055268287658691,2.121819257736206,0.5146028399467468,1.134313702583313
2502417557.0,-0.4327584207057953,-0.0023513138294219,9.870526313781738,2.128709316253662,0.9740452766418456,1.2000397443771362
2502425890.0,-0.446295291185379,-0.1601592600345611,9.720765113830566,1.9930819272994995,0.6533806920051575,1.2440961599349976
2502434223.0,-0.4634006321430206,-0.2389715909957885,9.909966468811035,2.008143186569214,0.1144059896469116,1.2787779569625854
2502442556.0,-0.4376538395881653,-0.105423979461193,10.083184242248535,1.9911096096038816,0.2602790296077728,1.182878017425537
2502450889.0,-0.4111690521240234,-0.0141251953318715,9.965252876281738,2.058296203613281,0.6895480751991272,1.27416729927063
2502459222.0,-0.3658222556114197,-0.1650123447179794,9.789073944091797,2.043951749801636,0.6065066456794739,1.2959139347076416
2502467555.0,-0.3391520380973816,-0.3005771934986114,9.86584758758545,1.9832205772399905,0.1818994879722595,1.3192226886749268
2502475888.0,-0.3544172942638397,-0.154026985168457,10.024450302124023,2.0777368545532227,0.1389444172382354,1.3127679824829102
2502484221.0,-0.4182933568954468,0.0362497977912426,10.030903816223145,2.2053470611572266,0.7089123129844666,1.3953737020492554
2502492554.0,-0.4408209323883056,-0.0964993461966514,9.810781478881836,2.051994800567627,1.045253038406372,1.2775484323501587
2502500887.0,-0.44917032122612,-0.3222839832305908,9.781750679016112,2.0215651988983154,0.4755923151969909,1.26348614692688
2502509220.0,-0.4430695474147796,-0.2928066253662109,9.99502182006836,2.097280740737915,0.0051356540061533,1.3776743412017822
2502517553.0,-0.4210164844989776,0.0077830958180129,10.083574295043944,2.221407413482666,0.3588939011096954,1.1813414096832275
2502525886.0,-0.4017505049705505,0.0689825937151908,9.889129638671877,2.201786756515503,0.7414681315422058,1.2547260522842407
2502534219.0,-0.3670654296875,-0.1553496420383453,9.723238945007324,1.9285855293273928,0.5338646769523621,1.3362817764282229
2502542552.0,-0.3563649356365204,-0.3115125298500061,9.86818790435791,2.0208992958068848,0.2177081853151321,1.2618725299835205
2502550885.0,-0.4070737659931183,-0.1433091014623642,10.084449768066406,2.135394811630249,0.319294273853302,1.2134616374969482
2502559218.0,-0.4850831627845764,0.0465715117752552,10.025471687316896,2.259239196777344,1.0357242822647097,1.2741670608520508
2502567551.0,-0.4779451489448547,-0.0406644605100154,9.768682479858398,2.073561668395996,0.8248167634010315,1.2910983562469482
2502575884.0,-0.4583979547023773,-0.2101361602544784,9.815048217773438,1.98608946800232,0.1346156150102615,1.2958112955093384
2502584217.0,-0.440513014793396,-0.1895308494567871,9.97859001159668,2.030094623565674,-0.076637789607048,1.2593110799789429
2502592550.0,-0.4223875105381012,-0.0195442661643028,10.020922660827637,2.165158748626709,0.496365487575531,1.213410496711731
2502600883.0,-0.3466879725456238,-0.0415011532604694,9.852059364318848,2.2573184967041016,0.6818893551826477,1.1913307905197144
2502609216.0,-0.3592567145824432,-0.2258776873350143,9.781571388244627,2.01938796043396,0.3753382265567779,1.2131543159484863
2502617549.0,-0.3681071698665619,-0.243512287735939,9.934913635253906,2.0236144065856934,0.0102328872308135,1.1751426458358765
2502625882.0,-0.4006383419036865,-0.0321623869240284,10.092164039611816,2.11669659614563,0.2862519025802612,1.2747820615768433
2502634215.0,-0.4715254604816437,0.0115201938897371,9.90722942352295,1.994721531867981,0.9726109504699708,1.2063921689987185
2502642548.0,-0.4648807048797607,-0.2141247242689132,9.713361740112305,1.9628572463989256,0.8218711018562317,1.3543654680252075
2502650881.0,-0.4453046023845672,-0.3564858436584472,9.902864456176758,2.0545308589935303,0.2042351067066192,1.2014743089675903
2502659214.0,-0.4086461663246155,-0.1490759402513504,10.09395694732666,2.218513011932373,-0.0573502779006958,1.2738856077194214
2502667547.0,-0.4017382562160492,0.0895472392439842,10.030460357666016,2.181039571762085,0.7251262664794922,1.2533174753189087
2502675880.0,-0.3522494435310364,-0.0077340146526694,9.739296913146973,2.082321882247925,0.7205668687820435,1.2386404275894165
2502684213.0,-0.3382928073406219,-0.2668457925319671,9.756149291992188,1.843008279800415,0.3498776853084564,1.268071174621582
2502692546.0,-0.3610487580299377,-0.2647450864315033,10.02221965789795,1.9434927701950075,0.0157399456948041,1.1609522104263306
2502700879.0,-0.4487698674201965,-0.0518415048718452,10.092653274536133,2.182319641113281,0.5617585182189941,1.2723742723464966
2502709212.0,-0.456628143787384,0.0326333381235599,9.908380508422852,2.234470844268799,1.0629011392593384,1.1921504735946655
2502717545.0,-0.4825484156608581,-0.1387989819049835,9.728622436523438,1.9606544971466064,0.6986667513847351,1.2626665830612185
2502725878.0,-0.467045396566391,-0.2294526845216751,9.872804641723633,1.9236416816711424,0.1613056510686874,1.2983214855194092
2502734211.0,-0.4499662220478058,-0.0986786484718322,10.06491470336914,2.02889084815979,0.2365858852863311,1.2196346521377563
2502742544.0,-0.4015684425830841,2.62206885963e-05,9.955403327941896,2.139390707015991,0.620415210723877,1.1605169773101809
2502750877.0,-0.359691172838211,-0.1377436518669128,9.74302577972412,2.0761489868164062,0.6428788900375366,1.3012672662734983
2502759210.0,-0.3341862857341766,-0.2603287696838379,9.83609676361084,1.885348439216613,0.1853830218315124,1.1496565341949463
2502767543.0,-0.3774868547916412,-0.1330591738224029,10.02101993560791,2.0662875175476074,0.1501122266054153,1.24455726146698
2502775876.0,-0.4384680688381195,0.0545905791223049,10.058953285217283,2.2312943935394287,0.7381893992424011,1.2805451154708862
2502784209.0,-0.4442158937454223,-0.097604401409626,9.806879043579102,2.048946619033813,0.8820390701293945,1.1959158182144165
2502792542.0,-0.4629173576831817,-0.3292235136032104,9.78660011291504,1.897003054618836,0.4564841091632843,1.252651333808899
2502800875.0,-0.4501279592514038,-0.3029117286205292,9.954217910766602,2.0342953205108643,-0.1040450260043144,1.1718896627426147
2502809208.0,-0.438237577676773,-0.0151330512017011,10.096820831298828,2.1029927730560303,0.2093579620122909,1.2091840505599976
2502817541.0,-0.3949494659900665,0.0766050815582275,9.868608474731444,2.130425453186035,0.6717204451560974,1.2705044746398926
2502825874.0,-0.3598151206970215,-0.1556528359651565,9.705307960510254,2.006017208099365,0.5322765707969666,1.179343342781067
2502834207.0,-0.3407883048057556,-0.3376160562038421,9.87952995300293,1.971156120300293,0.1694765985012054,1.276856780052185
2502842540.0,-0.3754799664020538,-0.177209585905075,10.103416442871094,2.1225106716156006,0.24736949801445,1.207160472869873
2502850873.0,-0.4459994733333587,0.0053908107802271,10.035295486450195,2.2472777366638184,0.8590885996818542,1.2234255075454712
2502859206.0,-0.4618914723396301,-0.0642923340201377,9.778204917907717,2.1618545055389404,0.993102490901947,1.3321579694747925
2502867539.0,-0.46730437874794,-0.2371781319379806,9.78986644744873,1.9092978239059448,0.3978530466556549,1.2213507890701294
2502875872.0,-0.442156046628952,-0.1886517852544784,9.989262580871582,1.978379487991333,-0.0643685683608055,1.17163348197937
2502884205.0,-0.4146701991558075,-0.0343522913753986,10.043317794799805,2.037036180496216,0.2628404796123504,1.232595443725586
2502892538.0,-0.3828344345092773,-0.067425437271595,9.835955619812012,2.171306133270264,0.6117063760757446,1.3311078548431396
2502900871.0,-0.3345150649547577,-0.2592180669307709,9.76780128479004,1.9409314393997192,0.3350726068019867,1.2596696615219116
2502909204.0,-0.3456366956233978,-0.2141911387443542,9.933470726013184,2.0405194759368896,0.0291105769574642,1.1925346851348877
2502917537.0,-0.4111495912075043,-0.0262944847345352,10.056503295898438,2.1390833854675293,0.4418840110301971,1.307926893234253
2502925870.0,-0.4532192647457123,0.01145985070616,9.902356147766112,2.1240220069885254,0.9107012748718262,1.235745906829834
2502934203.0,-0.4441922903060913,-0.2245904058218002,9.750484466552734,2.018594026565552,0.7494853138923645,1.2894078493118286
2502942536.0,-0.4542096555233001,-0.3369778990745544,9.89492416381836,1.980659008026123,0.2159407883882522,1.1262962818145752
2502950869.0,-0.4443957805633545,-0.1588096022605896,10.064655303955078,2.167258977890014,0.1348461508750915,1.1649994850158691
2502959202.0,-0.43020761013031,0.0959844291210174,10.015325546264648,2.2373650074005127,0.6606552600860596,1.3070818185806274
2502967535.0,-0.3824717998504638,-0.0073348898440599,9.77132511138916,2.034730911254883,0.6727195382118225,1.2087485790252686
2502975868.0,-0.35350501537323,-0.2693596482276916,9.788603782653809,1.8784328699111936,0.2811034321784973,1.2952734231948853
2502984201.0,-0.3762925267219543,-0.2932207286357879,10.02596950531006,1.9393175840377808,0.040816280990839,1.2484506368637085
2502992534.0,-0.4054942429065704,-0.055585216730833,10.0722017288208,2.2233541011810303,0.4335337877273559,1.3228856325149536
2503000867.0,-0.4665108621120453,0.0059988829307258,9.877935409545898,2.225480079650879,0.9814735651016236,1.1230690479278564
2503009200.0,-0.4668997526168823,-0.1638315171003341,9.7724027633667,1.967954516410828,0.5903184413909912,1.3087464570999146
2503017533.0,-0.4782368242740631,-0.2631534934043884,9.91675090789795,1.902125716209412,0.1347436755895614,1.1942765712738037
2503025866.0,-0.4532186090946197,-0.0951249152421951,10.089768409729004,1.9937736988067627,0.3016459941864013,1.187488675117493
2503034199.0,-0.4166557788848877,-0.0390377007424831,9.933197021484377,2.093540906906128,0.7055312991142273,1.2242451906204224
2503042532.0,-0.36042121052742,-0.1639549434185028,9.763582229614258,2.1585500240325928,0.5992322564125061,1.2066737413406372
2503050865.0,-0.3505948483943939,-0.2864150702953338,9.855196952819824,1.998896241188049,0.2137379795312881,1.1823914051055908
2503059198.0,-0.3665969967842102,-0.1096710637211799,10.031245231628418,2.0659289360046387,0.1206046268343925,1.31048846244812
2503067531.0,-0.4433355629444122,0.0431409068405628,10.00589084625244,2.1282994747161865,0.7811188697814941,1.2880758047103882
2503075864.0,-0.456171452999115,-0.0875817909836769,9.811111450195312,2.087496280670166,0.9235853552818298,1.2404335737228394
2503084197.0,-0.474842220544815,-0.3179689347743988,9.762399673461914,1.8934170007705688,0.4958787858486175,1.274449110031128
2503092530.0,-0.4485280811786651,-0.2445284277200698,10.001742362976074,2.094386339187622,-0.0796858891844749,1.2635375261306765
2503100863.0,-0.441738873720169,0.0242861919105052,10.04902458190918,2.195767402648926,0.2886340022087097,1.1825963258743286
2503109196.0,-0.3866282105445862,0.1141304671764373,9.894888877868652,2.184497117996216,0.7625486254692078,1.2040867805480957
2503117529.0,-0.3505943417549133,-0.1246529817581176,9.690162658691406,1.9073508977890008,0.4862221777439117,1.2323648929595947
2503125862.0,-0.3596105575561523,-0.3079798221588135,9.92326831817627,1.9783025979995728,0.1361012309789657,1.2430204153060913
2503134195.0,-0.405362993478775,-0.1433212757110595,10.080850601196287,2.076814651489258,0.2301054745912552,1.1925346851348877
2503142528.0,-0.4703904688358307,0.0286845006048679,10.014952659606934,2.153043031692505,0.8778127431869507,1.1829038858413696
2503150861.0,-0.4584481716156006,-0.0674551054835319,9.769973754882812,2.135087251663208,0.8937447667121887,1.166433811187744
2503159194.0,-0.4446183145046234,-0.2014660090208053,9.823460578918455,1.9002047777175903,0.1697583347558975,1.183928370475769
2503167527.0,-0.4416306018829345,-0.1602025926113128,10.024862289428713,1.9828104972839355,-0.0468996614217758,1.1960951089859009
2503175860.0,-0.4139890670776367,-0.041488517075777,10.03592586517334,2.032118320465088,0.4236466884613037,1.2179696559906006
2503184193.0,-0.3374803364276886,-0.1090003699064254,9.829029083251951,2.0530452728271484,0.6795328259468079,1.3040591478347778
2503192526.0,-0.3514427244663238,-0.2829697132110595,9.815277099609377,2.053762435913086,0.3909628987312317,1.1922529935836792
2503200859.0,-0.3405151665210724,-0.2448131442070007,9.948591232299805,2.077378511428833,0.1606653034687042,1.2343116998672483
2503209192.0,-0.4000419676303863,-0.0110981622710824,10.059962272644045,2.1692824363708496,0.4912682473659515,1.3062618970870972
2503217525.0,-0.4438227415084839,-0.0367406271398067,9.896421432495115,2.0496127605438232,0.980090320110321,1.2677125930786133
2503225858.0,-0.4705623984336853,-0.2759952545166015,9.757875442504885,2.045360803604126,0.6347079873085022,1.302291750907898
2503234191.0,-0.4710013568401336,-0.3819940686225891,9.912152290344238,2.0744073390960693,0.0246793180704116,1.4196817874908447
2503242524.0,-0.4358355104923248,-0.1405823528766632,10.095640182495115,2.220613479614258,0.1031357273459434,1.2274470329284668
2503250857.0,-0.4185699224472046,0.0906707942485809,9.987765312194824,2.195152759552002,0.7030467391014099,1.2789058685302734
2503259190.0,-0.3570803105831146,-0.0324843414127826,9.739945411682127,2.110523462295532,0.6469259858131409,1.3427622318267822
2503267523.0,-0.3574562072753906,-0.2937913835048675,9.764107704162598,2.0204379558563232,0.1131508871912956,1.223323106765747
2503275856.0,-0.3713190853595733,-0.2480296790599823,10.033221244812012,2.017313003540039,0.0767274349927902,1.1951475143432615
2503284189.0,-0.424039214849472,-0.0413405783474445,10.064788818359377,2.2437684535980225,0.7287378311157227,1.2398698329925537
2503292522.0,-0.4488550126552582,0.0003884197794832,9.859827995300291,2.19653582572937,0.9465357661247252,1.346553087234497
2503300855.0,-0.490527480840683,-0.1675500571727752,9.751836776733398,1.99280059337616,0.6925193071365356,1.266636848449707
2503309188.0,-0.4833614528179168,-0.2130436152219772,9.91729736328125,2.009782552719116,0.062921367585659,1.2653048038482666
2503317521.0,-0.4704672694206238,-0.0408678650856018,10.04379653930664,2.114621639251709,0.2917077243328094,1.1086738109588623
2503325854.0,-0.4196536839008331,-0.0275615211576223,9.887473106384276,2.0275845527648926,0.7138303518295288,1.2207103967666626
2503334187.0,-0.3558942377567291,-0.212789848446846,9.770987510681152,1.996386170387268,0.4719550907611847,1.2387940883636477
2503342520.0,-0.3235282301902771,-0.2574029862880707,9.906464576721191,2.0012528896331787,0.1893532276153564,1.2159205675125122
2503350853.0,-0.3506603538990021,-0.0744305178523063,10.068719863891602,2.119283437728882,0.2310532182455063,1.2254235744476318
2503359186.0,-0.4173800647258758,0.065562680363655,9.969308853149414,2.1098315715789795,0.8764806985855103,1.2678918838500977
2503367519.0,-0.4405871033668518,-0.1184976622462272,9.781030654907228,1.9792505502700808,0.8587044477462769,1.2068020105361938
2503375852.0,-0.4671776890754699,-0.3625568151473999,9.834872245788574,2.0319132804870605,0.336430162191391,1.2151776552200315
2503384185.0,-0.4644886553287506,-0.2138400226831436,10.042028427124023,2.195972442626953,0.0039061713032424,1.1822891235351562
2503392518.0,-0.4627169668674469,0.0307427961379289,10.028193473815918,2.285443067550659,0.3634531795978546,1.334309458732605
2503400851.0,-0.3744788765907287,0.0497819632291793,9.815529823303224,2.121409177780152,0.7093477845191956,1.2654072046279907
2503409184.0,-0.3670146763324737,-0.1746608614921569,9.72691535949707,1.927535057067871,0.420777827501297,1.1951217651367188
2503417517.0,-0.3465929925441742,-0.3006864786148071,9.918617248535156,1.924282193183899,-0.1316059380769729,1.1781394481658936
2503425850.0,-0.4014920592308044,-0.0809802785515785,10.07567310333252,2.0934386253356934,0.4175760746002197,1.2449672222137451
2503434183.0,-0.4324211478233337,0.0075349519029259,9.935152053833008,2.209035873413086,1.0175126791000366,1.2478872537612915
2503442516.0,-0.4500535428524017,-0.1282990276813507,9.749979972839355,2.070385694503784,0.6831444501876831,1.221888542175293
2503450849.0,-0.4566380977630615,-0.180513396859169,9.872504234313965,2.004890203475952,0.1275204569101333,1.2727327346801758
2503459182.0,-0.4531917572021484,-0.084263265132904,10.068509101867676,1.9788661003112795,0.0881513804197311,1.275729775428772
2503467515.0,-0.4403203427791595,0.0120226247236132,10.005266189575195,2.083986759185791,0.512886643409729,1.2364630699157717
2503475848.0,-0.3689973950386047,-0.1057093292474746,9.783313751220703,1.998563289642334,0.6725401878356934,1.2298803329467771
2503484181.0,-0.3491491973400116,-0.286308079957962,9.820274353027344,1.983579158782959,0.2416830956935882,1.2001676559448242
2503492514.0,-0.3285329043865204,-0.1677485406398773,9.99289894104004,2.051046848297119,0.1370489597320556,1.284489631652832
2503500847.0,-0.4128662347793579,0.0391411818563938,10.040897369384766,2.0700273513793945,0.6584011316299438,1.3474496603012085
2503509180.0,-0.459388792514801,-0.072993166744709,9.82750129699707,2.064443588256836,0.974250316619873,1.2540346384048462
2503517513.0,-0.437305748462677,-0.324156105518341,9.770722389221191,2.0276870727539062,0.5245923399925232,1.141921043395996
2503525846.0,-0.47304168343544,-0.253296822309494,9.95317554473877,2.044208288192749,0.0123332543298602,1.2383331060409546
2503534179.0,-0.4772367775440216,-0.0588326081633567,10.064035415649414,2.1809115409851074,0.2686549425125122,1.252472162246704
2503542512.0,-0.3919499814510345,0.0851470977067947,9.885486602783203,2.084012508392334,0.7159050703048706,1.2834138870239258
2503550845.0,-0.3763172924518585,-0.0808147192001342,9.717921257019045,2.036907911300659,0.5479012727737427,1.242251992225647
2503559178.0,-0.3462434411048889,-0.3160874843597412,9.872811317443848,1.9588357210159304,0.1376637071371078,1.277445912361145
2503567511.0,-0.3520776927471161,-0.1752225309610366,10.059513092041016,1.966853141784668,0.2381739616394043,1.2724767923355105
2503575844.0,-0.4205803573131561,0.0062684682197868,10.028745651245115,2.172074556350708,0.8263280987739563,1.333208084106445
2503584177.0,-0.4685675501823425,-0.0889356806874275,9.789233207702637,2.063649177551269,0.8794519305229187,1.2840031385421753
2503592510.0,-0.4486923813819885,-0.2046264857053756,9.799516677856444,1.9147024154663088,0.4483899772167206,1.2907652854919434
2503600843.0,-0.4934980869293213,-0.1623394340276718,9.974968910217283,1.95706844329834,0.049909334629774,1.342762112617493
2503609176.0,-0.4615170657634735,-0.0446029789745807,10.023709297180176,2.1528637409210205,0.3803586065769195,1.301882028579712
2503617509.0,-0.3897425532341003,-0.0773744136095047,9.826109886169434,1.9602446556091309,0.6730268597602844,1.2812113761901855
2503625842.0,-0.3430841863155365,-0.2802144587039947,9.80148696899414,1.9488205909729004,0.3763883709907532,1.3361281156539917
2503634175.0,-0.3473236560821533,-0.234653353691101,9.944418907165527,2.017390012741089,-0.0276377629488706,1.3296990394592283
2503642508.0,-0.3710411787033081,-0.0460509322583675,10.053330421447754,2.1508655548095703,0.4860684871673584,1.3602567911148071
2503650841.0,-0.4453621208667755,0.0272286664694547,9.92157745361328,2.090903043746948,1.050196409225464,1.2799818515777588
2503659174.0,-0.4630168080329895,-0.2138262093067169,9.734624862670898,1.999588251113892,0.7590907216072083,1.2361814975738523
2503667507.0,-0.4456723034381866,-0.3522334694862366,9.851757049560549,2.0555808544158936,0.1870479583740234,1.149323582649231
2503675840.0,-0.4546107351779938,-0.1437710225582122,10.086468696594238,2.1280691623687744,0.1459883451461792,1.2172012329101562
2503684173.0,-0.4346200823783874,0.0713076293468475,10.010196685791016,2.3540380001068115,0.4681385457515716,1.2579535245895386
2503692506.0,-0.3958854079246521,-0.0231933165341615,9.772845268249512,2.123740196228028,0.6177000999450684,1.1658191680908203
2503700839.0,-0.3355107307434082,-0.2794500589370727,9.749080657958984,1.9236931800842283,0.2837673127651214,1.2928656339645386
2503709172.0,-0.3453881740570068,-0.2459133267402649,10.008920669555664,2.0289676189422607,0.0872292816638946,1.2472978830337524
2503717505.0,-0.4034263789653778,-0.0373765490949153,10.061727523803713,2.1340370178222656,0.6817612648010254,1.1735033988952637
2503725838.0,-0.4216537177562713,0.0038378471508622,9.895796775817873,2.095334053039551,1.0414106845855713,1.2765238285064695
2503734171.0,-0.440798819065094,-0.1735846251249313,9.762648582458496,1.95950186252594,0.6097084879875183,1.3527774810791016
2503742504.0,-0.4513288140296936,-0.1906328201293945,9.934326171875,1.9407521486282349,0.1334373503923416,1.4102044105529783
2503750837.0,-0.4382500648498535,-0.0563496574759483,10.051362037658691,2.013599157333374,0.243783488869667,1.258568286895752
2503759170.0,-0.4196072518825531,-0.0004884449299424,9.91970920562744,2.0671329498291016,0.6602197289466858,1.1591850519180298
2503767503.0,-0.3701043725013733,-0.1857438087463379,9.765485763549805,1.999844431877136,0.6182636022567749,1.2568777799606323
2503775836.0,-0.3257197737693786,-0.2696831822395324,9.870734214782717,1.924820065498352,0.0680698230862617,1.186387300491333
2503784169.0,-0.3590026795864105,-0.1288073062896728,10.040644645690918,2.071230888366699,0.2003673464059829,1.2313146591186523
2503792502.0,-0.4205794930458069,0.0403577126562595,9.990917205810549,2.131680727005005,0.7419036030769348,1.2293168306350708
2503800835.0,-0.4501095414161682,-0.1080571338534355,9.77314281463623,2.13805890083313,0.8487149477005005,1.2541370391845703
2503809168.0,-0.4531383216381073,-0.3237803280353546,9.793204307556152,2.0702834129333496,0.4636048674583435,1.1835441589355469
2503817501.0,-0.4341479241847992,-0.2640630602836609,10.039267539978027,2.0832443237304688,0.0169438160955905,1.2439426183700562
2503825834.0,-0.4449727535247803,0.0309342145919799,10.099198341369627,2.233548402786255,0.3175525069236755,1.155675768852234
2503834167.0,-0.4005593657493591,0.0493743568658828,9.85438060760498,2.0123183727264404,0.7755863070487976,1.2460429668426514
2503842500.0,-0.3631270229816437,-0.1927504688501358,9.732583045959473,1.9835025072097776,0.376490831375122,1.369785189628601
2503850833.0,-0.3427304029464721,-0.2870381772518158,9.947650909423828,1.9271767139434808,0.0863327831029892,1.247477412223816
2503859166.0,-0.3903238773345947,-0.107634887099266,10.103667259216309,2.079735279083252,0.4124275743961334,1.2899200916290283
2503867499.0,-0.4380928874015808,0.0533873178064823,9.97622013092041,2.193564891815185,0.9260699152946472,1.3002939224243164
2503875832.0,-0.4584153294563293,-0.119378350675106,9.787893295288086,2.011959791183472,0.7677995562553406,1.3329776525497437
2503884165.0,-0.4618906676769256,-0.2228731364011764,9.843109130859377,1.9133447408676147,0.2701661288738251,1.2038562297821045
2503892498.0,-0.4592377245426178,-0.1320022046566009,10.047507286071776,2.0990991592407227,0.0521633885800838,1.2667648792266846
2503900831.0,-0.4449275434017181,-0.0111434338614344,10.0114164352417,2.136598587036133,0.4556644558906555,1.1605169773101809
2503909164.0,-0.3754957616329193,-0.0909119918942451,9.7802152633667,1.961294651031494,0.5756414532661438,1.2628201246261597
2503917497.0,-0.3347624838352203,-0.2710952162742615,9.78498077392578,1.8964651823043823,0.2439371943473816,1.215510606765747
2503925830.0,-0.3419766724109649,-0.2090301215648651,9.975333213806152,2.058910608291626,0.0848727747797966,1.286846399307251
2503934163.0,-0.4080949425697326,0.0311123579740524,10.05607795715332,2.049945831298828,0.580072820186615,1.336666226387024
2503942496.0,-0.4294359385967254,-0.0527241602540016,9.85758113861084,2.0708725452423096,0.8842675089836121,1.3126399517059326
2503950829.0,-0.4687204658985138,-0.3024625182151794,9.738889694213867,1.918237328529358,0.5498735904693604,1.2471699714660645
2503959162.0,-0.4797504544258117,-0.2987559735774994,9.943696022033691,2.0426456928253174,0.1966276615858078,1.214383602142334
2503967495.0,-0.4521306455135345,-0.0819897279143333,10.1054105758667,2.141721487045288,0.0840531215071678,1.2276264429092407
2503975828.0,-0.4082763791084289,0.1119124963879585,9.947355270385742,2.170742511749268,0.6792511343955994,1.2218118906021118
2503984161.0,-0.3615404665470123,-0.0940727591514587,9.73159122467041,2.011268138885498,0.5887815952301025,1.2175341844558716
2503992494.0,-0.3520176708698272,-0.3324706852436065,9.810531616210938,1.8991801738739007,0.0554676242172718,1.2213250398635864
2504000827.0,-0.371362566947937,-0.1803684532642364,10.06470012664795,2.087188482284546,0.1779548823833465,1.2868717908859253
2504009160.0,-0.4347838759422302,-0.003903311677277,10.03293800354004,2.280755519866944,0.8111388087272644,1.2070324420928955
2504017493.0,-0.4398363828659057,-0.0691940784454345,9.804876327514648,2.0503554344177246,1.0819580554962158,1.2884601354599
2504025826.0,-0.4787678718566894,-0.1999547630548477,9.781295776367188,1.950818419456482,0.4638096988201141,1.2095681428909302
2504034159.0,-0.4751508235931396,-0.2151032537221908,9.977052688598633,1.9509210586547847,0.0408931225538253,1.222733736038208
2504042492.0,-0.4435932338237762,-0.0370217449963092,10.064095497131348,2.0668764114379883,0.323443740606308,1.2115660905838013
2504050825.0,-0.3974631726741791,-0.0457668229937553,9.84422492980957,2.086087465286255,0.6948758363723755,1.3182750940322876
2504059158.0,-0.3604323863983154,-0.2347959578037262,9.745534896850586,1.9950801134109497,0.3956503272056579,1.3518552780151367
2504067491.0,-0.3525939285755157,-0.259335458278656,9.925009727478027,1.9638563394546509,0.0173792596906423,1.2072629928588867
2504075824.0,-0.3768449127674103,-0.057057537138462,10.037720680236816,2.1364192962646484,0.3363533616065979,1.25178062915802
2504084157.0,-0.4231864511966705,0.0088336635380983,9.93432903289795,2.107961893081665,0.9490970373153688,1.203036546707153
2504092490.0,-0.4590148329734802,-0.2068278938531875,9.743308067321776,1.9770985841751096,0.9136725068092346,1.2457355260849
2504100823.0,-0.4401354491710663,-0.348524808883667,9.87046241760254,1.9970265626907349,0.1686056852340698,1.1873862743377686
2504109156.0,-0.4509404599666595,-0.169521763920784,10.03822135925293,2.09922742843628,0.1079255864024162,1.215792536735535
2504117489.0,-0.426457405090332,0.0839482471346855,10.033605575561523,2.2682301998138428,0.5275123715400696,1.3065950870513916
2504125822.0,-0.3688097596168518,0.0207233503460884,9.759791374206545,2.1338069438934326,0.8048633337020874,1.2517037391662598
2504134155.0,-0.3627435564994812,-0.2458611875772476,9.736963272094728,1.9035346508026123,0.2782346308231354,1.2949658632278442
2504142488.0,-0.3566884100437164,-0.2625678777694702,9.977608680725098,2.059473991394043,0.0657133162021637,1.2767030000686646
2504150821.0,-0.41546231508255,-0.0538395270705223,10.09402561187744,2.150737762451172,0.5886023640632629,1.3053655624389648
2504159154.0,-0.4402209222316742,0.0147919841110706,9.855233192443848,2.2094967365264893,0.9944855570793152,1.2700691223144531
2504167487.0,-0.4628204107284546,-0.1475978046655655,9.73642921447754,2.0118062496185303,0.628048300743103,1.2801098823547363
2504175820.0,-0.4666706323623657,-0.2122528403997421,9.882845878601074,2.004019260406494,0.1081560999155044,1.2486299276351929
2504184153.0,-0.4659116566181183,-0.1161927208304405,10.026330947875977,2.05194354057312,0.1501634567975998,1.208210587501526
2504192486.0,-0.4353386759757995,-0.0396705493330955,9.955765724182127,2.0899038314819336,0.6024852395057678,1.2842336893081665
2504200819.0,-0.3676285147666931,-0.183429330587387,9.779702186584473,1.971745252609253,0.7021757960319519,1.2578766345977783
2504209152.0,-0.3354776203632355,-0.3099909722805023,9.835531234741213,1.973359227180481,0.0416871681809425,1.3517016172409058
2504217485.0,-0.3764764368534088,-0.1437543928623199,10.000035285949709,2.077532291412353,0.1105894520878791,1.347321629524231
2504225818.0,-0.4374741315841675,0.0155689157545566,10.023858070373535,2.0871119499206543,0.735935389995575,1.304289698600769
2504234151.0,-0.4464978277683258,-0.1257454007863998,9.777775764465332,2.120974063873291,0.9946136474609376,1.2820053100585938
2504242484.0,-0.4615007638931274,-0.3273802697658539,9.775529861450195,2.008373498916626,0.4615300893783569,1.232313632965088
2504250817.0,-0.4537827968597412,-0.2973911166191101,9.991150856018066,2.128990888595581,-0.0913403555750846,1.2454793453216553
2504259150.0,-0.446013480424881,-0.023053215816617,10.067428588867188,2.219921350479126,0.2752377688884735,1.1076747179031372
2504267483.0,-0.4077211022377014,0.0794955790042877,9.87868309020996,2.076789379119873,0.7393933534622192,1.2893823385238647
2504275816.0,-0.3525916039943695,-0.1547475457191467,9.707635879516602,1.9768426418304443,0.4666273891925812,1.2876404523849487
2504284149.0,-0.3614457249641418,-0.2810169160366058,9.886119842529297,1.980018973350525,0.0782642886042594,1.2443523406982422
2504292482.0,-0.3965334296226501,-0.1276925653219223,10.082387924194336,2.118028163909912,0.2397620528936386,1.2504230737686155
2504300815.0,-0.4387587606906891,0.0203227400779724,9.9949951171875,2.2229695320129395,0.8473572731018066,1.2736037969589231
2504309148.0,-0.4519887566566467,-0.0292400792241096,9.73685073852539,2.14807391166687,0.9376218914985656,1.1864386796951294
2504317481.0,-0.4656493365764618,-0.1674355119466781,9.803218841552734,2.14710021018982,0.4007219076156616,1.2902017831802368
2504325814.0,-0.4681159853935241,-0.1309584975242614,9.983756065368652,1.9779698848724363,0.047040544450283,1.1773711442947388
2504334147.0,-0.4380838871002197,0.0183310806751251,10.042405128479004,2.012292623519897,0.3467270731925964,1.0835460424423218
2504342480.0,-0.3894651532173157,-0.0551645383238792,9.811444282531738,1.9098869562149048,0.6636263728141785,1.240254044532776
2504350813.0,-0.3349433839321136,-0.2370656877756118,9.794930458068848,2.036831378936768,0.3272346556186676,1.158877730369568
2504359146.0,-0.3522891402244568,-0.2114172428846359,9.949515342712402,2.019182682037353,-0.0188264604657888,1.1674582958221436
2504367479.0,-0.4010467827320099,0.0014739586040377,10.042141914367676,2.0712056159973145,0.4950591623783111,1.2255771160125732
2504375812.0,-0.453466385602951,-0.0111769707873463,9.892844200134276,2.0178768634796143,0.8103448152542114,1.229854702949524
2504384145.0,-0.447669118642807,-0.2298059910535812,9.752729415893556,1.920798659324646,0.6179305911064148,1.2149471044540403
2504392478.0,-0.4640190601348877,-0.3228572607040405,9.939735412597656,1.974025011062622,0.129518374800682,1.1876680850982666
2504400811.0,-0.4193608462810516,-0.0902298539876937,10.07326316833496,2.182678699493408,0.1747787445783615,1.1234018802642822
2504409144.0,-0.410353273153305,0.0871875807642936,9.983427047729492,2.18306303024292,0.5580445528030396,1.2974507808685305
2504417477.0,-0.3320285081863403,-0.0697283446788787,9.76034164428711,1.9221307039260864,0.6485908627510071,1.3462202548980713
2504425810.0,-0.3290770947933197,-0.2910603880882263,9.826156616210938,1.880276799201965,0.1616898626089096,1.2980396747589111
2504434143.0,-0.3453593850135803,-0.2140643745660781,10.032745361328123,2.0384960174560547,0.0602574832737445,1.2419700622558594
2504442476.0,-0.4067427217960357,-0.0282971318811178,10.03799533843994,2.1528635025024414,0.669978678226471,1.2899712324142456
2504450809.0,-0.425038069486618,-0.025804229080677,9.82054042816162,2.149021625518799,0.9484567046165466,1.226499319076538
2504459142.0,-0.4484238922595978,-0.197133794426918,9.777972221374512,1.9823499917984009,0.4309723377227783,1.2673027515411377
2504467475.0,-0.4905183315277099,-0.2165182530879974,9.941216468811035,1.9856539964675903,0.1977547258138656,1.3009341955184937
2504475808.0,-0.4659268856048584,-0.0812290161848068,10.063995361328123,2.052942276000977,0.2370468974113464,1.3190433979034424
2504484141.0,-0.3932508826255798,-0.076047271490097,9.922938346862791,2.039853811264038,0.6928778886795044,1.2940696477890017
2504492474.0,-0.3644697368144989,-0.1989611834287643,9.768237113952637,2.02807092666626,0.5427016019821167,1.1880778074264526
2504500807.0,-0.326218843460083,-0.3156115114688873,9.898298263549805,1.9408801794052124,0.1207070797681808,1.2845408916473389
2504509140.0,-0.3547192513942718,-0.0744447261095047,10.060053825378418,2.0694892406463623,0.413887619972229,1.2646132707595823
2504517473.0,-0.4299968183040619,0.0128994332626461,9.948742866516112,2.095206022262573,0.8948973417282104,1.281620979309082
2504525806.0,-0.4648915231227875,-0.214949294924736,9.775750160217283,1.9825034141540527,0.8404671549797058,1.1983236074447632
2504534139.0,-0.4491592347621918,-0.3782022893428802,9.8095703125,1.9842450618743896,0.411018818616867,1.247989535331726
2504542472.0,-0.4728855192661285,-0.2318988293409347,10.05373191833496,2.0780956745147705,0.0382292456924915,1.2827993631362915
2504550805.0,-0.4810970425605774,-0.0048649082891643,9.97841453552246,2.258112668991089,0.5827623605728149,1.1942253112792969
2504559138.0,-0.4097013771533966,0.0238034557551145,9.77773094177246,2.07935094833374,0.6583755016326904,1.3785966634750366
2504567471.0,-0.3683229684829712,-0.2581260800361633,9.710918426513672,1.930199146270752,0.4143486618995666,1.2132309675216677
2504575804.0,-0.3551655113697052,-0.2957023680210113,9.962517738342283,1.9915194511413568,-0.0294307544827461,1.2360020875930786
2504584137.0,-0.3793594539165497,-0.1103238835930824,10.075591087341309,2.120999574661255,0.4632718861103058,1.2922766208648682
2504592470.0,-0.4373197853565216,-0.0202539209276437,9.963180541992188,2.240489959716797,1.0713025331497192,1.25162672996521
2504600803.0,-0.4476597011089325,-0.1337295770645141,9.787819862365724,1.996155858039856,0.676177442073822,1.167612075805664
2504609136.0,-0.4843232333660126,-0.2555922865867615,9.842185020446776,1.9792249202728271,0.1842816174030304,1.3359489440917969
2504617469.0,-0.4906010031700134,-0.1009378880262374,10.040434837341309,2.0494847297668457,0.1182993575930595,1.1890767812728882
2504625802.0,-0.504447877407074,-0.0090371361002326,9.96180248260498,2.0983564853668213,0.6176487803459167,1.3171223402023315
2504634135.0,-0.3876124918460846,-0.1306616365909576,9.776161193847656,2.05709195137024,0.726381242275238,1.20367693901062
2504642468.0,-0.3691674172878265,-0.276381105184555,9.8078031539917,2.0356016159057617,0.1462700963020324,1.1642054319381714
2504650801.0,-0.3341834247112274,-0.1408625692129135,10.020866394042969,2.114365577697754,-0.0022284383885562,1.2062127590179443
2504659134.0,-0.4180597066879272,0.0284722335636615,10.03331184387207,2.124662399291992,0.5194182991981506,1.2040355205535889
2504667467.0,-0.4336170554161072,-0.0522858351469039,9.835514068603516,2.024562120437622,0.8989700675010681,1.3246785402297974
2504675800.0,-0.4332279860973358,-0.3015457391738891,9.782052993774414,2.0114216804504395,0.5772296190261841,1.242687463760376
2504684133.0,-0.4419732093811035,-0.2692222893238067,9.950716018676758,2.1127774715423584,0.0069798794575035,1.257825493812561
2504692466.0,-0.4609884023666382,-0.0079962434247136,10.084394454956056,2.233241081237793,0.2373543083667755,1.3227063417434692
2504700799.0,-0.4092859327793121,0.1086272001266479,9.921942710876465,2.21899962425232,0.6407017111778259,1.1810083389282229
2504709132.0,-0.3669556379318237,-0.1012376248836517,9.699607849121094,2.0558114051818848,0.5007967352867126,1.3152782917022705
2504717465.0,-0.3343284130096435,-0.2749268710613251,9.844987869262695,1.9946447610855105,0.0928387939929962,1.362869381904602
2504725798.0,-0.354361742734909,-0.1408983469009399,10.062003135681152,2.024869441986084,0.2936544120311737,1.2350544929504397
2504734131.0,-0.4176099300384521,0.050552912056446,10.042048454284668,2.1927452087402344,0.909010887145996,1.2657402753829956
2504742464.0,-0.4245831966400146,-0.0501429438591003,9.774456024169922,2.106502056121826,0.9724061489105223,1.2236816883087158
2504750797.0,-0.4485004842281341,-0.1563629955053329,9.839162826538086,1.8819931745529173,0.3379670083522796,1.2678918838500977
2504759130.0,-0.4449466168880462,-0.1545465439558029,10.003278732299805,2.005530595779419,0.0547504238784313,1.2691980600357056
2504767463.0,-0.4336737096309662,0.0173190385103225,10.014650344848633,2.039597272872925,0.4437794685363769,1.2092095613479614
2504775796.0,-0.3724417388439178,-0.0688727274537086,9.83029842376709,2.067004919052124,0.7952324151992798,1.3218097686767578
2504784129.0,-0.3612060546875,-0.2246559709310531,9.769025802612305,1.93983006477356,0.3683967292308807,1.1549075841903689
2504792462.0,-0.3502138257026672,-0.2195239812135696,9.943705558776855,1.880328059196472,0.1511367708444595,1.1663568019866943
2504800795.0,-0.3907905519008636,-0.016169361770153,10.039006233215332,2.0065808296203613,0.4073303639888763,1.28484845161438
2504809128.0,-0.4179739356040954,-0.0138506516814231,9.897829055786133,2.023409128189087,1.0163856744766235,1.207903265953064
2504817461.0,-0.4688310027122497,-0.2249147146940231,9.769506454467772,1.846901535987854,0.812982976436615,1.2189685106277466
2504825794.0,-0.4462500512599945,-0.369648665189743,9.86594581604004,1.9856539964675903,0.1155330091714859,1.19189453125
2504834127.0,-0.4392927885055542,-0.1495436280965805,10.05576515197754,2.1002776622772217,0.0644838437438011,1.18423593044281
2504842460.0,-0.4358409643173218,0.0613097846508026,9.99791431427002,2.134191036224365,0.4985682666301727,1.2848995923995972
2504850793.0,-0.3829639554023742,-0.0632208436727523,9.768388748168944,2.0832183361053467,0.6260247230529785,1.2658939361572266
2504859126.0,-0.3584613800048828,-0.2909233272075653,9.82601833343506,1.918032169342041,0.2990846037864685,1.1729655265808103
2504867459.0,-0.3735834956169128,-0.2978379726409912,9.98238754272461,1.945183277130127,0.0780593678355217,1.1034483909606934
2504875792.0,-0.4368700385093689,-0.0696056336164474,10.061455726623535,2.1782984733581543,0.5911381244659424,1.228240966796875
2504884125.0,-0.4626434743404388,-0.0524187907576561,9.811027526855469,2.108013153076172,0.9285545349121094,1.2456331253051758
2504892458.0,-0.4722236096858978,-0.1933299601078033,9.779727935791016,1.9292255640029907,0.5155760645866394,1.2763444185256958
2504900791.0,-0.469810277223587,-0.2585236430168152,9.919888496398926,1.909579873085022,-0.0632927790284156,1.254521369934082
2504909124.0,-0.4627093374729156,-0.0984952226281166,10.067463874816896,2.1432583332061768,0.1738310009241104,1.1643078327178955
2504917457.0,-0.4337161779403686,-0.0866572856903076,9.932900428771973,2.101994037628174,0.767825186252594,1.2481945753097534
2504925790.0,-0.3535666465759277,-0.2052675187587738,9.77560806274414,2.030017852783203,0.673872172832489,1.192150592803955
2504934123.0,-0.3055332601070404,-0.2852342426776886,9.894989967346191,1.997436285018921,0.0609490685164928,1.1816229820251465
2504942456.0,-0.3661636710166931,-0.1008448898792266,10.036791801452637,2.16480016708374,0.2378665953874588,1.1867716312408447
2504950789.0,-0.4255370795726776,0.0154656404629349,9.964689254760742,2.1335763931274414,0.7971022129058838,1.3392531871795654
2504959122.0,-0.4506043195724487,-0.1270213276147842,9.820762634277344,2.0322721004486084,0.9657207727432252,1.2762932777404783
2504967455.0,-0.4606874585151672,-0.357993334531784,9.830029487609863,2.0210018157958984,0.3406052887439728,1.2179441452026367
2504975788.0,-0.4578414261341095,-0.2381169646978378,10.03866958618164,2.177197217941284,0.0174817163497209,1.2853608131408691
2504984121.0,-0.4453954696655273,0.0365471392869949,10.062023162841797,2.202965259552002,0.4468019604682922,1.1981443166732788
2504992454.0,-0.3963034451007843,0.089654341340065,9.815874099731444,2.164210796356201,0.7654685974121094,1.2532917261123655
2505000787.0,-0.3372318744659424,-0.1958506554365158,9.707815170288086,1.9648807048797607,0.3625566661357879,1.2030879259109497
2505009120.0,-0.3345754146575928,-0.2849364280700683,9.943965911865234,2.063905477523804,0.0671477168798446,1.1833648681640625
2505017453.0,-0.352975845336914,-0.1197918429970741,10.08892822265625,2.1702558994293213,0.444291740655899,1.3485766649246216
2505025786.0,-0.4312823414802551,0.0246532019227743,9.972145080566406,2.1413373947143555,0.9515560269355774,1.2705557346343994
2505034119.0,-0.4426913559436798,-0.1093067899346351,9.753853797912598,2.038367986679077,0.6972323060035706,1.2822870016098022
2505042452.0,-0.4594412744045257,-0.2055876106023788,9.869141578674316,1.905378580093384,0.2489575445652008,1.2122063636779783
2505050785.0,-0.450545996427536,-0.1230268254876136,10.033465385437012,2.066313505172729,0.0896370261907577,1.233901858329773
2505059118.0,-0.4416120648384094,0.0072370390407741,9.988784790039062,2.052097082138061,0.5350685119628906,1.2532660961151123
2505067451.0,-0.3555802404880523,-0.1221580132842063,9.79342269897461,2.0481271743774414,0.7245627045631409,1.2251672744750977
2505075784.0,-0.3426581621170044,-0.2772670984268188,9.79422378540039,1.8807380199432373,0.2509042620658874,1.1620283126831057
2505084117.0,-0.3523831963539123,-0.1606545001268386,10.00026035308838,2.077890634536743,0.0711947679519653,1.2716057300567627
2505092450.0,-0.4317089319229126,0.0460106432437896,10.02912425994873,2.138596773147583,0.5065087676048279,1.257851004600525
2505100783.0,-0.460902452468872,-0.0190746411681175,9.863031387329102,2.1228950023651123,1.0330349206924438,1.3454517126083374
2505109116.0,-0.4683712124824524,-0.2947863340377807,9.736035346984863,1.9502036571502688,0.5958767533302307,1.182032823562622
2505117449.0,-0.4699099361896515,-0.306906133890152,9.966169357299805,2.0728960037231445,0.0802365839481353,1.2547518014907837
2505125782.0,-0.4485474228858948,-0.0718810334801673,10.077892303466797,2.2106237411499023,0.3053345084190368,1.2266017198562622
2505134115.0,-0.4113739728927612,0.1256998628377914,9.932019233703612,2.23867130279541,0.6465929746627808,1.2182258367538452
2505142448.0,-0.3593072593212127,-0.0962043479084968,9.694509506225586,2.002354383468628,0.6423922777175903,1.2493728399276731
2505150781.0,-0.3446801006793976,-0.2607002854347229,9.826075553894045,1.8402165174484253,0.1654039323329925,1.2040355205535889
2505159114.0,-0.3776537179946899,-0.207303911447525,10.020834922790527,2.060063362121582,0.20815409719944,1.2836958169937134
2505167447.0,-0.4191912412643432,0.0217027720063924,10.06884765625,2.167361259460449,0.8587556481361389,1.1988614797592163
2505175780.0,-0.4498648941516876,-0.0537105128169059,9.78225803375244,2.088674545288086,1.0246078968048096,1.3088746070861816
2505184113.0,-0.4833905398845672,-0.1902093440294265,9.778277397155762,1.8990267515182493,0.4747726917266845,1.2362326383590698
2505192446.0,-0.4652163088321686,-0.188648909330368,9.958003997802734,1.9034578800201416,0.1001900732517242,1.305134892463684
2505200779.0,-0.4417699873447418,-0.0119293238967657,10.069684028625488,1.972898244857788,0.3554103374481201,1.2767800092697144
2505209112.0,-0.3985201418399811,-0.0712074562907219,9.842732429504396,2.044105529785156,0.689240574836731,1.3073121309280396
2505217445.0,-0.3507373332977295,-0.2382145076990127,9.750767707824709,1.9128581285476685,0.3000835478305816,1.32985258102417
2505225778.0,-0.3302896618843078,-0.2749411761760711,9.936532020568848,1.993082046508789,0.043428935110569,1.2746540307998655
2505234111.0,-0.3914622366428375,-0.0679685696959495,10.044252395629885,2.0890841484069824,0.3886575996875763,1.1457630395889282
2505242444.0,-0.4279143810272217,-0.0127183198928833,9.931514739990234,2.0890586376190186,0.9530417323112488,1.322475790977478
2505250777.0,-0.4607499539852142,-0.2239777892827987,9.752015113830566,2.081784009933472,0.7463347315788269,1.256980061531067
2505259110.0,-0.4468297362327575,-0.364393025636673,9.88276481628418,2.053403854370117,0.139712855219841,1.3075170516967771
2505267443.0,-0.4478519558906555,-0.1864370703697204,10.070544242858888,2.159343957901001,0.1515978574752807,1.3181214332580566
2505275776.0,-0.4153942465782165,0.0337474197149276,9.998820304870604,2.2123396396636963,0.4889885187149048,1.2162022590637207
2505284109.0,-0.3565519452095032,-0.0411995090544223,9.764592170715332,2.0538134574890137,0.7344754338264465,1.2461198568344116
2505292442.0,-0.3392173051834106,-0.2799976766109466,9.773721694946287,1.92443597316742,0.2753658294677734,1.2956576347351074
2505300775.0,-0.362069696187973,-0.293476790189743,9.982749938964844,2.0051722526550293,0.1081561148166656,1.2167916297912598
2505309108.0,-0.4087910950183868,-0.0645487010478973,10.098608016967772,2.170051097869873,0.5376043915748596,1.2647669315338137
2505317441.0,-0.444228321313858,-0.0187249910086393,9.872481346130373,2.14143967628479,1.0022722482681274,1.2610784769058228
2505325774.0,-0.4550215303897857,-0.1628571450710296,9.73524570465088,2.0546329021453857,0.5698014497756958,1.2916873693466189
2505334107.0,-0.4715180099010467,-0.2407906502485275,9.892115592956545,2.039008617401123,0.0337723717093467,1.2445061206817627
2505342440.0,-0.4260702431201935,-0.0767425894737243,10.070401191711426,2.023153066635132,0.1512136310338974,1.215126395225525
2505350773.0,-0.3806859850883484,-0.0334800817072391,9.94072151184082,2.0702321529388428,0.7111408114433289,1.229342341423035
2505359106.0,-0.3569670021533966,-0.1564215421676635,9.803101539611816,2.0558114051818848,0.5620916485786438,1.2470674514770508
2505367439.0,-0.3243851959705353,-0.2837122976779938,9.850140571594238,2.030555486679077,0.1496511697769165,1.216560959815979
2505375772.0,-0.3527763485908508,-0.1161509305238723,10.034628868103027,2.1381611824035645,0.1757008731365203,1.249065399169922
2505384105.0,-0.4292365908622741,0.0227387677878141,10.005622863769531,2.1791436672210693,0.8329620361328125,1.1970171928405762
2505392438.0,-0.455878883600235,-0.0800276324152946,9.799479484558104,2.17297101020813,0.9748905301094056,1.3095918893814087
2505400771.0,-0.4672683179378509,-0.3264884948730469,9.754706382751465,2.053173303604126,0.4530261754989624,1.2495008707046509
2505409104.0,-0.4537782073020935,-0.2139819860458374,10.014394760131836,2.1213579177856445,0.0811074674129486,1.219711422920227
2505417437.0,-0.4513246417045593,0.0267517138272523,10.043198585510254,2.210777282714844,0.4203167855739593,1.247733473777771
2505425770.0,-0.4145210087299347,0.0885447263717651,9.857739448547363,2.117439031600952,0.7155464291572571,1.3228344917297363
2505434103.0,-0.3458930552005768,-0.1872314214706421,9.682613372802734,1.9226939678192136,0.5783822536468506,1.2612321376800537
2505442436.0,-0.3537181913852691,-0.2903768420219421,9.882866859436035,2.022794723510742,0.0669428035616874,1.226063847541809
2505450769.0,-0.3895570635795593,-0.1213727071881294,10.0570707321167,2.1277363300323486,0.323930412530899,1.2228620052337646
2505459102.0,-0.4456668794155121,0.0612584762275218,9.978588104248049,2.152095317840576,1.1123366355895996,1.2061359882354736
2505467435.0,-0.4606008231639862,-0.0967910811305046,9.772588729858398,2.1210250854492188,0.8768904805183411,1.2425336837768557
2505475768.0,-0.4977197051048279,-0.215898111462593,9.835695266723633,1.9292255640029907,0.2856115102767944,1.280314564704895
2505484101.0,-0.4714871942996979,-0.1565136313438415,10.017778396606444,1.974691152572632,0.0679417625069618,1.323935866355896
2505492434.0,-0.4464132189750671,0.0010293166851624,10.020425796508787,2.112393379211426,0.4152195453643799,1.2365912199020386
2505500767.0,-0.3640951216220855,-0.0965384766459465,9.813282012939451,2.01436734199524,0.6855009198188782,1.2603610754013062
2505509100.0,-0.3299503028392792,-0.248475581407547,9.790459632873535,1.9273557662963867,0.3950355350971222,1.1653324365615845
2505517433.0,-0.3443051874637604,-0.1878271102905273,9.98748016357422,1.9937736988067627,-0.0888813957571983,1.2858986854553225
2505525766.0,-0.4224396646022796,-0.0002981624566018,10.049248695373535,2.0920302867889404,0.6025877594947815,1.2989107370376587
2505534099.0,-0.4291303157806396,-0.0215553008019924,9.895350456237791,2.062138080596924,0.909907341003418,1.2679941654205322
2505542432.0,-0.4774264097213745,-0.281092494726181,9.724213600158691,1.9305323362350464,0.6071470379829407,1.3256264925003052
2505550765.0,-0.4618505537509918,-0.3246547877788543,9.93038845062256,1.939368844032288,0.0780337676405906,1.2022936344146729
2505559098.0,-0.4297149181365967,-0.0772170200943946,10.085976600646973,2.1182332038879395,0.2278001755475998,1.2870256900787354
2505567431.0,-0.4108081758022308,0.0812298879027366,9.957518577575684,2.2356491088867188,0.6312500834465027,1.2531893253326416
2505575764.0,-0.3539754152297973,-0.0964746102690696,9.702364921569824,1.880558609962464,0.6374486684799194,1.1564441919326782
2505584097.0,-0.3363736867904663,-0.2796721458435058,9.84365177154541,2.0252277851104736,0.1696558743715286,1.2188661098480225
2505592430.0,-0.3723513484001159,-0.2301952540874481,10.053699493408203,2.1433348655700684,0.1258555352687835,1.2336455583572388
2505600763.0,-0.4011687040328979,-0.0085324421525001,10.053295135498049,2.1191298961639404,0.7922354936599731,1.218123435974121
2505609096.0,-0.4423692226409912,-0.0500106066465377,9.819411277770996,2.143309593200684,1.0366209745407104,1.283260464668274
2505617429.0,-0.4665868580341339,-0.1948338001966476,9.772747039794922,1.99861478805542,0.5169849395751953,1.2566471099853516
2505625762.0,-0.451308012008667,-0.2140522748231887,9.975435256958008,1.9404704570770264,0.0380755588412284,1.2987825870513916
2505634095.0,-0.4444203078746795,-0.0531630963087081,10.08484172821045,2.0989458560943604,0.3366350829601288,1.376573085784912
2505642428.0,-0.3943901360034942,-0.0737468153238296,9.85349941253662,2.1191554069519043,0.6487445831298828,1.1966586112976074
2505650761.0,-0.3350383937358856,-0.2477507591247558,9.785699844360352,2.0368568897247314,0.4435745477676391,1.1384376287460327
2505659094.0,-0.3284668624401092,-0.2654469609260559,9.924286842346191,2.085805654525757,0.0801597535610199,1.1176645755767822
2505667427.0,-0.3911557495594024,-0.0559051521122455,10.063092231750488,2.1101648807525635,0.2753146290779114,1.189307451248169
2505675760.0,-0.4467977583408355,-0.017274472862482,9.937329292297363,2.1335506439208984,0.9666684865951538,1.2824662923812866
2505684093.0,-0.4700926840305328,-0.1908974349498748,9.790102005004885,1.9824265241622925,0.8129062056541443,1.1873351335525513
2505692426.0,-0.4608380198478699,-0.3625527620315552,9.86555004119873,2.048536539077759,0.1679397076368332,1.182545185089111
2505700759.0,-0.452928751707077,-0.163327157497406,10.059657096862791,2.1545541286468506,0.1424535661935806,1.1546512842178345
2505709092.0,-0.4532302021980285,0.0725064128637313,10.014305114746094,2.227529287338257,0.5949034690856934,1.2623592615127563
2505717425.0,-0.4003825783729553,-0.009152565151453,9.746414184570312,2.053096294403076,0.5970293879508972,1.2116429805755615
2505725758.0,-0.3346754908561706,-0.2608726322650909,9.742773056030272,1.9602956771850584,0.208205297589302,1.2103623151779177
2505734091.0,-0.365915983915329,-0.2537579536437988,9.986123085021973,1.95337986946106,0.0489616096019744,1.1879754066467283
2505742424.0,-0.3898099362850189,-0.0613134540617466,10.067729949951172,2.2345218658447266,0.5149614214897156,1.2495263814926147
2505750757.0,-0.3991566598415375,0.0037552630528807,9.87578010559082,2.225224018096924,0.9316282272338868,1.18592631816864
2505759090.0,-0.482549637556076,-0.1405947655439376,9.778157234191896,2.0455400943756104,0.6281763911247253,1.2638448476791382
2505767423.0,-0.4877715706825256,-0.2055469453334808,9.884831428527832,1.9997931718826287,-0.000332985073328,1.264767050743103
2505775756.0,-0.4652774333953857,-0.0958894938230514,10.04839038848877,2.0570664405822754,0.2665801644325256,1.2904579639434814
2505784089.0,-0.4331717491149902,0.0194875616580247,9.90994358062744,2.052917003631592,0.6168804168701172,1.2619236707687378
2505792422.0,-0.3891493082046509,-0.1881365627050399,9.768980026245115,2.017261981964112,0.4976718127727508,1.188974380493164
2505800755.0,-0.3041010797023773,-0.2782268226146698,9.842849731445312,1.994234681129456,-0.0179555788636207,1.198195457458496
2505809088.0,-0.3689866065979004,-0.0710274204611778,10.021924018859863,2.141414165496826,0.2498028129339218,1.2397674322128296
2505817421.0,-0.4145680069923401,0.0116472085937857,9.99900722503662,2.093079805374145,0.8631100654602051,1.225244164466858
2505825754.0,-0.4102498292922973,-0.1116061732172966,9.791888236999512,2.042543172836304,0.9895164370536804,1.1867715120315552
2505834087.0,-0.463380753993988,-0.3031346499919891,9.785468101501465,1.9285852909088133,0.4456492364406585,1.2948637008666992
2505842420.0,-0.4760012030601501,-0.2526320517063141,10.020843505859377,2.2027342319488525,-0.082477830350399,1.1741691827774048
2505850753.0,-0.4495242238044739,0.0310975573956966,10.069482803344728,2.1813981533050537,0.5266927480697632,1.1499639749526978
2505859086.0,-0.4137312769889831,0.0791202262043953,9.827431678771973,2.012497663497925,0.762984037399292,1.282517671585083
2505867419.0,-0.3680683076381683,-0.1955057680606842,9.698928833007812,2.018056154251098,0.42505544424057,1.274116039276123
2505875752.0,-0.3516835272312164,-0.2586763203144073,9.913280487060549,1.9604490995407104,0.1787745505571365,1.26650869846344
2505884085.0,-0.3711794018745422,-0.1216016858816146,10.061590194702148,2.1493804454803467,0.4023356437683105,1.2761396169662476
2505892418.0,-0.4091572165489197,0.0107753658667206,9.95081615447998,2.0391108989715576,0.9684102535247804,1.2745002508163452
2505900751.0,-0.4267622828483581,-0.1104074567556381,9.767026901245115,2.0012786388397217,0.8606511950492859,1.2619237899780271
2505909084.0,-0.4488898515701294,-0.2295793145895004,9.843957901000977,1.970669507980347,0.1695534139871597,1.1963255405426023
2505917417.0,-0.4733894467353821,-0.1218510791659355,10.0184965133667,2.0529940128326416,0.2345623821020126,1.2050601243972778
2505925750.0,-0.4406448006629944,-0.0172722954303026,10.000191688537598,2.120436191558838,0.5426247715950012,1.24927020072937
2505934083.0,-0.3711763024330139,-0.1413266658782959,9.80303192138672,2.033450126647949,0.6332992315292358,1.2866414785385132
2505942416.0,-0.3280433714389801,-0.2847987115383148,9.8087158203125,2.003455877304077,0.2158383429050445,1.2794437408447266
2505950749.0,-0.3368258476257324,-0.1842968910932541,10.020635604858398,2.0365750789642334,0.1040834486484527,1.2402541637420654
2505959082.0,-0.4086401760578155,0.0035307598300278,10.016158103942873,2.075637102127075,0.6639338135719299,1.273988127708435
2505967415.0,-0.4323365688323974,-0.0737133771181106,9.851807594299316,2.0579116344451904,1.039771556854248,1.2643828392028809
2505975748.0,-0.4677291810512543,-0.3257185518741607,9.76244068145752,1.9421610832214355,0.5834026336669922,1.2898176908493042
2505984081.0,-0.4565556645393371,-0.3034585416316986,9.987018585205078,2.1231768131256104,0.1172747761011123,1.2617957592010498
2505992414.0,-0.4574483036994934,-0.0577355958521366,10.076581954956056,2.207780838012696,0.2524410784244537,1.2066993713378906
2506000747.0,-0.4173992574214935,0.0833730772137641,9.91758632659912,2.163723945617676,0.7853196263313293,1.2440961599349976
