SampleTimeFine,Acc_X,Acc_Y,Acc_Z,Gyr_X,Gyr_Y,Gyr_Z
3993232922.0,0.0,0.0,0.0,0.0,0.0,0.0
3993241255.0,-0.5335902571678162,-0.1166194528341293,9.879241943359377,1.6292189359664917,0.9884276390075684,0.4305496513843536
3993249588.0,-0.5629534721374512,-0.0251540392637252,9.74973487854004,1.5341774225234983,0.8898513317108154,0.526513397693634
3993257921.0,-0.5701109170913696,0.1078864261507988,9.74505615234375,1.5728803873062134,1.2673537731170654,0.4896032810211181
3993266254.0,-0.4794434607028961,0.0199479945003986,9.836493492126465,1.596637487411499,1.2809678316116333,0.4457901120185852
3993274587.0,-0.4335871040821075,-0.1449306905269622,9.909113883972168,1.5110348463058472,0.7189146876335144,0.415923923254013
3993282920.0,-0.4184817373752594,-0.0665705725550651,9.711956024169922,1.553131937980652,0.8927969336509705,0.5598887801170349
3993291253.0,-0.471787691116333,0.1333089172840118,9.670990943908691,1.631870150566101,1.3044434785842896,0.4634255766868591
3993299586.0,-0.500182032585144,0.0784752666950225,9.788034439086914,1.489570140838623,1.7523722648620603,0.5082120895385742
3993307919.0,-0.5395333170890808,-0.1529266834259033,9.969472885131836,1.518335223197937,1.2945436239242554,0.462567538022995
3993316252.0,-0.5678820013999939,-0.2135280072689056,9.897977828979492,1.645765781402588,0.8046199679374695,0.4599804282188415
3993324585.0,-0.5646582245826721,0.0297201722860336,9.744460105895996,1.7495675086975098,0.9519914388656616,0.4667809903621673
3993332918.0,-0.5153383016586304,0.202092170715332,9.789902687072754,1.5425019264221191,1.458589792251587,0.4202655553817749
3993341251.0,-0.4399369955062866,0.0245184917002916,9.868635177612305,1.5850600004196167,1.4020719528198242,0.420508861541748
3993349584.0,-0.4388868510723114,-0.1696483641862869,9.816466331481934,1.493783712387085,0.8893389701843262,0.5431113839149475
3993357917.0,-0.445557028055191,-0.0642220601439476,9.720574378967283,1.542399525642395,0.9991984367370604,0.5469022989273071
3993366250.0,-0.4853704869747162,0.1176615953445434,9.676596641540527,1.71988046169281,1.630589485168457,0.5525118708610535
3993374583.0,-0.5123714804649353,0.0796170458197593,9.859579086303713,1.6062047481536863,1.69639253616333,0.4877590835094452
3993382916.0,-0.5400630831718445,-0.0763750076293945,9.922825813293455,1.4962682723999023,1.2302900552749634,0.4772316217422485
3993391249.0,-0.5484537482261658,-0.0633042305707931,9.819581985473633,1.55525803565979,0.9575497508049012,0.510299563407898
3993399582.0,-0.55115807056427,0.0772627815604209,9.721931457519531,1.5863535404205322,1.297066330909729,0.4862734079360962
3993407915.0,-0.503669261932373,0.0806603506207466,9.793655395507812,1.5452170372009275,1.4749315977096558,0.4494913518428802
3993416248.0,-0.4489861726760864,-0.0811095461249351,9.88949203491211,1.4677852392196655,1.1349793672561646,0.4662430584430694
3993424581.0,-0.4279082417488098,-0.1264123767614364,9.799161911010742,1.6181538105010986,0.7115890979766846,0.4981456696987152
3993432914.0,-0.4696223139762878,0.0903386622667312,9.653550148010254,1.7184717655181885,1.1425869464874268,0.4764631688594818
3993441247.0,-0.5078476667404175,0.1535474210977554,9.692838668823242,1.574609398841858,1.735364317893982,0.5531393885612488
3993449580.0,-0.5179343223571777,-0.0404316559433937,9.887687683105469,1.4268921613693235,1.571561336517334,0.4134393632411957
3993457913.0,-0.5399647355079651,-0.196094810962677,9.926977157592772,1.4970752000808716,0.9306421279907228,0.4724289774894714
3993466246.0,-0.5350554585456848,-0.0473219938576221,9.773258209228516,1.664925456047058,0.9314361214637756,0.5082632899284363
3993474579.0,-0.5097871422767639,0.1927000731229782,9.741625785827637,1.7265788316726685,1.326305270195007,0.4906150996685028
3993482912.0,-0.471276581287384,0.1231617853045463,9.80357837677002,1.60085129737854,1.3648160696029663,0.5169849395751953
3993491245.0,-0.4191541969776153,-0.1186501383781433,9.86975383758545,1.5697555541992188,0.9970725178718568,0.5075331926345825
3993499578.0,-0.4422924518585205,-0.1126317009329795,9.734054565429688,1.548201084136963,0.9362770915031432,0.5614383816719055
3993507911.0,-0.4560602605342865,0.1010713353753089,9.683581352233888,1.6244804859161377,1.257659077644348,0.5312649011611938
3993516244.0,-0.4924855828285217,0.1484162211418151,9.772785186767578,1.552043318748474,1.625223159790039,0.4750416278839111
3993524577.0,-0.521939754486084,-0.0139308022335171,9.926430702209473,1.551069974899292,1.3357055187225342,0.435160219669342
3993532910.0,-0.5540208220481873,-0.1035383194684982,9.856735229492188,1.412535309791565,0.8887242674827576,0.4346607327461242
3993541243.0,-0.5496395230293274,0.0621152371168136,9.742650032043455,1.5980336666107178,1.1723506450653076,0.5280503034591675
3993549576.0,-0.5230275988578796,0.1397372931241989,9.775712013244627,1.499534249305725,1.4344996213912964,0.5202507376670837
3993557909.0,-0.4759636223316192,-0.0326890014111995,9.86454963684082,1.5503015518188477,1.152461290359497,0.4478905200958252
3993566242.0,-0.4257633686065674,-0.1422377377748489,9.836240768432615,1.535061001777649,0.7847945094108582,0.5220437049865723
3993574575.0,-0.4708681404590606,-0.0121537903323769,9.727051734924316,1.479465365409851,1.170250415802002,0.5604267120361328
3993582908.0,-0.5076741576194763,0.1503131091594696,9.665325164794922,1.5177842378616333,1.5257502794265747,0.5535620450973511
3993591241.0,-0.5406338572502136,0.0116592980921268,9.850351333618164,1.486867904663086,1.6061021089553833,0.5192389488220215
3993599574.0,-0.5527598857879639,-0.1884745061397552,9.961445808410645,1.4269049167633057,1.1007332801818848,0.5162932872772217
3993607907.0,-0.5355958938598633,-0.1172007024288177,9.837310791015623,1.6142218112945557,0.8356515765190125,0.4923696219921112
3993616240.0,-0.5381963849067688,0.1192094534635543,9.7372465133667,1.707521915435791,1.0992094278335571,0.4068309366703033
3993624573.0,-0.4839473068714142,0.1832416802644729,9.769068717956545,1.5649528503417969,1.4714608192443848,0.5572633147239685
3993632906.0,-0.452181875705719,-0.0459217876195907,9.850266456604004,1.4101403951644895,1.0314851999282837,0.4526547193527221
3993641239.0,-0.4585741758346557,-0.1766948997974395,9.777898788452148,1.53941547870636,0.7258561849594116,0.4747598469257355
3993649572.0,-0.5018249750137329,-0.0057719671167433,9.669026374816896,1.5408883094787598,1.1982722282409668,0.595953643321991
3993657905.0,-0.5248867869377136,0.1461339592933654,9.732876777648926,1.5483932495117188,1.7271549701690674,0.4924464523792267
3993666238.0,-0.5267435908317566,0.0424219109117984,9.91252326965332,1.5224460363388062,1.5278762578964231,0.4895008206367492
3993674571.0,-0.5292125940322876,-0.0798275545239448,9.94710922241211,1.4947572946548462,0.991565465927124,0.4384260773658752
3993682904.0,-0.5328077673912048,-0.0227129720151424,9.750609397888184,1.5322307348251345,0.8865982890129089,0.4671908020973205
3993691237.0,-0.4886865317821502,0.1004406735301017,9.70096492767334,1.5942939519882202,1.361742377281189,0.5451605916023254
3993699570.0,-0.4327238202095032,0.0282402895390987,9.80686378479004,1.5730597972869873,1.3027527332305908,0.489500880241394
3993707903.0,-0.4176211357116699,-0.1330517679452896,9.933177947998049,1.550647258758545,1.0441001653671265,0.4843011200428009
3993716236.0,-0.4505787193775177,-0.0664031505584716,9.77409839630127,1.6089966297149658,0.8718701601028442,0.5064574480056763
3993724569.0,-0.5141283273696899,0.1466592103242874,9.662945747375488,1.6234428882598877,1.3577721118927002,0.5695709586143494
3993732902.0,-0.5546925663948059,0.0905314236879348,9.753992080688477,1.4858561754226685,1.6698434352874756,0.5240928530693054
3993741235.0,-0.5629332065582275,-0.1545090824365615,9.908650398254396,1.4324889183044434,1.3469887971878052,0.3765933215618133
3993749568.0,-0.5446075201034546,-0.2055921405553817,9.882325172424316,1.5587798357009888,0.9343816041946412,0.5240160226821899
3993757901.0,-0.5195152163505554,0.0116494921967387,9.75650405883789,1.7854658365249634,1.0131198167800903,0.3467142879962921
3993766234.0,-0.4737758040428161,0.1911320388317108,9.751447677612305,1.6992099285125732,1.481539964675903,0.4019513428211212
3993774567.0,-0.4158137142658233,0.0508874543011188,9.834894180297852,1.4255473613739014,1.296528458595276,0.4403215050697326
3993782900.0,-0.4238006472587585,-0.164140909910202,9.821699142456056,1.5203073024749756,1.0003896951675415,0.4531414210796356
3993791233.0,-0.4666582942008972,-0.0659665316343307,9.694055557250977,1.594985842704773,0.9465869665145874,0.6676735281944275
3993799566.0,-0.5014683604240417,0.1042367964982986,9.6864013671875,1.6823043823242188,1.4746242761611938,0.4873236417770386
3993807899.0,-0.5372167229652405,0.0689255446195602,9.835627555847168,1.5565255880355835,1.6919738054275513,0.5467358231544495
3993816232.0,-0.5633991360664368,-0.0658681914210319,9.927356719970703,1.5052332878112793,1.206596851348877,0.4392713010311126
3993824565.0,-0.5583730936050415,-0.0725610628724098,9.848796844482422,1.5472664833068848,0.8975868821144104,0.531303346157074
3993832898.0,-0.5554175972938538,0.0821807458996772,9.740657806396484,1.6220725774765017,1.1685725450515747,0.4170765578746795
3993841231.0,-0.4795937836170196,0.0955313220620155,9.84561252593994,1.592334508895874,1.5945628881454468,0.5840301513671875
3993849564.0,-0.434265673160553,-0.086132138967514,9.91337776184082,1.546472191810608,0.9887991547584534,0.5129122138023376
3993857897.0,-0.4199001491069793,-0.1159801036119461,9.814461708068848,1.6220084428787231,0.667519748210907,0.5549963712692261
3993866230.0,-0.4672032296657562,0.066718690097332,9.686662673950195,1.5091009140014648,1.1867971420288086,0.470418244600296
3993874563.0,-0.5196880102157593,0.1250128149986267,9.700170516967772,1.5568459033966064,1.6921147108078003,0.4824569225311279
3993882896.0,-0.5278640985488892,-0.0438990108668804,9.886712074279783,1.5054126977920532,1.5948830842971802,0.5279734134674072
3993891229.0,-0.5700633525848389,-0.2100373059511184,9.972867965698242,1.582101583480835,1.0115444660186768,0.4205473065376282
3993899562.0,-0.5347442626953125,-0.0445465967059135,9.799625396728516,1.6925501823425293,0.8647237420082092,0.4790502190589905
3993907895.0,-0.5031223893165588,0.1781891733407974,9.761733055114746,1.7103008031845093,1.3238075971603394,0.4820214509963989
3993916228.0,-0.4570604860782623,0.144730731844902,9.824121475219728,1.5019291639328003,1.3975000381469729,0.4588662683963775
3993924561.0,-0.4450997114181518,-0.1011081263422966,9.835150718688965,1.473766207695007,1.083661437034607,0.5142313241958618
3993932894.0,-0.4627176821231842,-0.1228294149041175,9.736955642700195,1.5821144580841064,0.8557460308074951,0.4714044034481048
3993941227.0,-0.4884078800678253,0.0730533748865127,9.689292907714844,1.614887833595276,1.3037517070770264,0.4316126406192779
3993949560.0,-0.5357420444488525,0.1362426578998565,9.81982707977295,1.6170907020568848,1.70691978931427,0.4418071508407593
3993957893.0,-0.5415068864822388,-0.0124128339812159,9.914925575256348,1.4248557090759275,1.3252933025360107,0.4177041053771972
3993966226.0,-0.5345690250396729,-0.0722765177488327,9.843165397644045,1.6403868198394775,0.7885597348213196,0.4774236679077148
3993974559.0,-0.5240272283554077,0.0403925813734531,9.73134708404541,1.55665385723114,1.0094313621520996,0.3589066565036773
3993982892.0,-0.4999898672103882,0.0911612287163734,9.725932121276855,1.5644277334213257,1.3659943342208862,0.4549472332000732
3993991225.0,-0.4424104690551758,-0.0377337820827961,9.861213684082031,1.6000059843063354,1.2395881414413452,0.4824825823307037
3993999558.0,-0.4145720899105072,-0.1165944784879684,9.884220123291016,1.609956979751587,0.9238798022270204,0.4553698301315307
3994007891.0,-0.4477195143699646,0.0129864858463406,9.67322826385498,1.648327112197876,0.9684229493141174,0.4749391376972198
3994016224.0,-0.5354196429252625,0.1919803470373153,9.688849449157717,1.551031470298767,1.4956278800964355,0.5128353834152222
3994024557.0,-0.5481220483779907,0.0283883567899465,9.807960510253906,1.458051681518555,1.694932222366333,0.5105557441711426
3994032890.0,-0.541575014591217,-0.2199504524469375,9.950337409973145,1.469091534614563,1.144840955734253,0.4897313416004181
3994041223.0,-0.5202192664146423,-0.1782450079917907,9.84195041656494,1.6380685567855835,0.754326343536377,0.3937804102897644
3994049556.0,-0.486172080039978,0.112992525100708,9.74295711517334,1.602413535118103,1.1551891565322876,0.4018745124340057
3994057889.0,-0.4360387623310089,0.2033173143863678,9.772992134094238,1.560867428779602,1.4674266576766968,0.4836607575416565
3994066222.0,-0.4321301877498626,-0.0067404378205537,9.878807067871094,1.4252656698226929,1.1872069835662842,0.4864271283149719
3994074555.0,-0.4593562185764313,-0.1590155810117721,9.808422088623049,1.6117628812789917,0.6884721517562866,0.5227224826812744
3994082888.0,-0.517789363861084,-0.0273879542946815,9.684785842895508,1.699414849281311,1.1191754341125488,0.4787940680980682
3994091221.0,-0.546980619430542,0.1003662794828414,9.740304946899414,1.6061789989471436,1.5978543758392334,0.491575539112091
3994099554.0,-0.5560926198959351,0.0064206840470433,9.87806797027588,1.5250202417373655,1.527812123298645,0.4032704830169678
3994107887.0,-0.5440898537635803,-0.0957451686263084,9.896279335021973,1.460267424583435,1.0120439529418943,0.3596494495868683
3994116220.0,-0.5266289114952087,-0.0272568613290786,9.79155445098877,1.60069739818573,0.9546040892601012,0.4977229237556457
3994124553.0,-0.5003110766410828,0.1086880043148994,9.745595932006836,1.590733528137207,1.3058521747589111,0.5287162065505981
3994132886.0,-0.4519133567810058,0.0609055161476135,9.83868408203125,1.5094341039657593,1.3549290895462036,0.5017188191413879
3994141219.0,-0.4159622490406036,-0.1317184716463089,9.86483383178711,1.523521900177002,0.9900285601615906,0.6131663918495178
3994149552.0,-0.4617886245250702,-0.0932484939694404,9.76296329498291,1.6192936897277832,0.772871196269989,0.5065855979919434
3994157885.0,-0.5011105537414551,0.1192062720656395,9.670435905456545,1.682663083076477,1.3577977418899536,0.5743350982666016
3994166218.0,-0.5567952394485474,0.125677615404129,9.779508590698242,1.5941402912139893,1.7165509462356567,0.6617053747177124
3994174551.0,-0.5795875787734985,-0.1200587227940559,9.93606662750244,1.448139190673828,1.4594606161117554,0.4577647745609283
3994182884.0,-0.548224925994873,-0.208941638469696,9.956361770629885,1.555834174156189,0.8612017631530762,0.6040349006652832
3994191217.0,-0.4958094954490661,-0.0013252070639282,9.78250503540039,1.672174096107483,0.8361766934394836,0.5212753415107727
3994199550.0,-0.4760523736476898,0.2039550393819809,9.72595500946045,1.6806907653808594,1.3423268795013428,0.5552781820297241
3994207883.0,-0.421923965215683,0.070219337940216,9.84340763092041,1.6524256467819214,1.355556607246399,0.6696842312812805
3994216216.0,-0.4450687766075134,-0.1758733093738556,9.833303451538086,1.4750723838806152,0.9191411137580872,0.4837760627269745
3994224549.0,-0.4771696627140045,-0.1170764341950416,9.719311714172363,1.6557810306549072,0.9970598220825196,0.5477860569953918
3994232882.0,-0.5329541563987732,0.1095098555088043,9.698434829711914,1.6467008590698242,1.4804133176803589,0.5186242461204529
3994241215.0,-0.5436787605285645,0.1017928496003151,9.851330757141112,1.5999290943145752,1.606307029724121,0.430869847536087
3994249548.0,-0.5539732575416565,-0.0649724304676055,9.922460556030272,1.4544914960861206,1.0912047624588013,0.5403707027435303
3994257881.0,-0.5453588366508484,-0.0747169330716133,9.835229873657228,1.466812014579773,0.824253261089325,0.4754385948181152
3994266214.0,-0.518865168094635,0.0758222416043281,9.697690963745115,1.5057969093322754,1.083776831626892,0.4491840898990631
3994274547.0,-0.4659167230129242,0.0669917464256286,9.782266616821287,1.5284656286239624,1.4116390943527222,0.4485436975955963
3994282880.0,-0.4240604639053345,-0.0653506219387054,9.892667770385742,1.5041701793670654,1.1864769458770752,0.4106986224651336
3994291213.0,-0.4307439625263214,-0.1268796026706695,9.833331108093262,1.4118951559066772,0.879170298576355,0.4500548839569092
3994299546.0,-0.4487387239933014,0.0812252461910247,9.678058624267578,1.5059760808944702,1.1063683032989502,0.5351197719573975
3994307879.0,-0.5362491011619568,0.1648357957601547,9.67556381225586,1.4962427616119385,1.7555612325668335,0.4936247169971466
3994316212.0,-0.5430895090103149,-0.036941185593605,9.873506546020508,1.563044786453247,1.5960102081298828,0.4717245697975158
3994324545.0,-0.5366294980049133,-0.2047287225723266,9.987101554870604,1.5090242624282837,1.033419132232666,0.4734663665294647
3994332878.0,-0.5169965028762817,-0.1117752119898796,9.806151390075684,1.6329201459884644,0.916823148727417,0.5140136480331421
3994341211.0,-0.5032100081443787,0.1610838174819946,9.696645736694336,1.7354412078857422,1.2828121185302734,0.4752977192401886
3994349544.0,-0.44474858045578,0.1845839768648147,9.809812545776367,1.6416674852371216,1.5609570741653442,0.5051895380020142
3994357877.0,-0.4432936310768127,-0.053591676056385,9.860166549682615,1.5105866193771362,1.080728530883789,0.6054820418357849
3994366210.0,-0.4559850990772247,-0.1398274153470993,9.775131225585938,1.6182432174682615,0.7891873121261597,0.5541767477989197
3994374543.0,-0.5044780373573303,0.0297518204897642,9.680194854736328,1.5905287265777588,1.2045735120773315,0.5108631253242493
3994382876.0,-0.5136418342590332,0.1324315220117569,9.77549648284912,1.5418874025344849,1.7067149877548218,0.5413184762001038
3994391209.0,-0.5443584322929382,0.01141535397619,9.893680572509766,1.5877625942230225,1.3970131874084473,0.4365562498569488
3994399542.0,-0.558906078338623,-0.1180256530642509,9.87898063659668,1.5807185173034668,0.9607003927230836,0.4572013318538666
3994407875.0,-0.5282444357872009,0.0033629471436142,9.736562728881836,1.5749424695968628,0.9800773859024048,0.4247608482837677
3994416208.0,-0.5218231081962585,0.1006120517849922,9.752609252929688,1.5723553895950315,1.4046076536178589,0.5083913207054138
3994424541.0,-0.459020048379898,0.012997331097722,9.845051765441896,1.5835870504379272,1.319606900215149,0.5584543347358704
3994432874.0,-0.4221087098121643,-0.1285658925771713,9.856752395629885,1.6105077266693115,0.843566358089447,0.5621427893638611
3994441207.0,-0.4496588706970215,-0.0391140729188919,9.721325874328612,1.5727782249450684,0.8861885666847229,0.5397303700447083
3994449540.0,-0.5030321478843689,0.1537923663854599,9.658487319946287,1.6182432174682615,1.4531594514846802,0.3834578990936279
3994457873.0,-0.5426698923110962,0.0781369730830192,9.777795791625977,1.4956406354904177,1.8738607168197632,0.4639506340026855
3994466206.0,-0.561430811882019,-0.1655705124139785,9.97325325012207,1.480963945388794,1.268263339996338,0.4617222249507904
3994474539.0,-0.5449979305267334,-0.2007794976234436,9.899198532104492,1.65594744682312,0.8451032042503357,0.4575854837894439
3994482872.0,-0.5156427025794983,0.0853507593274116,9.751435279846191,1.7052547931671145,1.004372477531433,0.5545865893363953
3994491205.0,-0.4717476069927215,0.2352026551961898,9.761034965515137,1.6706500053405762,1.5253148078918457,0.5065342783927917
3994499538.0,-0.445470243692398,0.0236501973122358,9.836904525756836,1.4146612882614136,1.313920497894287,0.4833790063858032
3994507871.0,-0.4460152089595794,-0.1723688691854477,9.824915885925291,1.532602071762085,0.8627386689186096,0.5650756359100342
3994516204.0,-0.495957463979721,-0.0667873993515968,9.678988456726074,1.689258694648743,0.9962143898010254,0.5071873664855957
3994524537.0,-0.5087929964065552,0.1276925951242447,9.709433555603027,1.6074084043502808,1.5137883424758911,0.4375295341014862
3994532870.0,-0.5110810995101929,0.0858784541487693,9.866002082824709,1.6244932413101196,1.6090736389160156,0.5040497779846191
3994541203.0,-0.5244476199150085,-0.0683201253414154,9.91544246673584,1.4135600328445437,1.10585618019104,0.4678824841976166
3994549536.0,-0.5141114592552185,-0.0748918354511261,9.806137084960938,1.4516483545303345,0.886009156703949,0.4358133673667907
3994557869.0,-0.5246328115463257,0.089542269706726,9.745017051696776,1.602695345878601,1.178446888923645,0.5187779068946838
3994566202.0,-0.4785458445549011,0.0547854155302047,9.811739921569824,1.591168999671936,1.2845410108566284,0.4919085800647735
3994574535.0,-0.4443299770355224,-0.1071628704667091,9.923050880432127,1.5431166887283323,0.9667963981628418,0.4408081769943237
3994582868.0,-0.4173897504806518,-0.1301184594631195,9.796868324279783,1.5549761056900024,0.7987414598464966,0.4399116635322571
3994591201.0,-0.4500676989555359,0.0743710622191429,9.644346237182615,1.6193959712982178,1.099094033241272,0.5213393568992615
3994599534.0,-0.4981330335140228,0.1701755970716476,9.721349716186523,1.5890045166015625,1.709826946258545,0.562104344367981
3994607867.0,-0.5288203954696655,-0.0450754836201667,9.916332244873049,1.482692837715149,1.4625086784362793,0.5476195216178894
3994616200.0,-0.5514568090438843,-0.2676020860671997,9.930719375610352,1.5064884424209597,0.9738659858703612,0.5844783782958984
3994624533.0,-0.5558016300201416,-0.0859271064400672,9.789512634277344,1.5556037425994873,0.8243685364723206,0.5038576126098633
3994632866.0,-0.5341348052024841,0.18935127556324,9.75453281402588,1.6879138946533203,1.298654556274414,0.5313288569450378
3994641199.0,-0.4846183061599731,0.1663398444652557,9.792320251464844,1.6206896305084229,1.5057072639465332,0.5136935114860535
3994649532.0,-0.4526718556880951,-0.100045159459114,9.84945583343506,1.3697724342346191,0.8946796655654907,0.515717089176178
3994657865.0,-0.4328109622001648,-0.1392256468534469,9.779661178588867,1.483576416969299,0.8124066591262817,0.4688429236412048
3994666198.0,-0.4712397456169128,0.0417062044143676,9.657796859741213,1.6959184408187866,1.253483772277832,0.4982992708683014
3994674531.0,-0.4822165071964264,0.1154379472136497,9.744340896606444,1.6134535074234009,1.8078913688659668,0.5770758986473083
3994682864.0,-0.5258795619010925,-0.0178768336772918,9.955437660217283,1.6175775527954102,1.4028022289276123,0.5072771310806274
3994691197.0,-0.5524406433105469,-0.0992427617311477,9.868762016296388,1.5004689693450928,0.7719489932060242,0.5671631693840027
3994699530.0,-0.5569366216659546,0.0397971272468566,9.758017539978027,1.4545682668685913,1.1677402257919312,0.5101202726364136
3994707863.0,-0.5537073612213135,0.1403580754995346,9.780624389648438,1.5957027673721311,1.4091029167175293,0.4565096795558929
3994716196.0,-0.4682133793830871,0.0069746165536344,9.871776580810549,1.449355959892273,1.2907782793045044,0.5076228976249695
3994724529.0,-0.4052623808383941,-0.1490702629089355,9.85592555999756,1.585508108139038,0.8526082038879395,0.4621447324752807
3994732862.0,-0.4386514127254486,-0.0181927159428596,9.702147483825684,1.6335349082946775,0.9190002679824828,0.4839937686920166
3994741195.0,-0.4766646325588226,0.1620103567838668,9.67050838470459,1.5660157203674316,1.5762615203857422,0.5723884105682373
3994749528.0,-0.5104559659957886,0.0482932589948177,9.832091331481934,1.535573124885559,1.7233257293701172,0.4586741030216217
3994757861.0,-0.5330554842948914,-0.1803758591413498,9.94748592376709,1.5724706649780271,1.2179951667785645,0.402130663394928
3994766194.0,-0.549358606338501,-0.1765320003032684,9.88504409790039,1.6249542236328125,0.7263299822807312,0.468650758266449
3994774527.0,-0.5536665320396423,0.0883547291159629,9.77088451385498,1.6766180992126465,1.0492486953735352,0.5394997596740723
3994782860.0,-0.5042164921760559,0.2110938280820846,9.767520904541016,1.6273107528686523,1.4910686016082764,0.5565076470375061
3994791193.0,-0.4440938234329223,0.0109586026519536,9.855141639709473,1.4557721614837646,1.2944793701171875,0.4606335759162903
3994799526.0,-0.4476553499698639,-0.1704858541488647,9.805863380432127,1.522215723991394,0.8018152117729187,0.5144747495651245
3994807859.0,-0.4570603966712951,-0.0032162175048142,9.712088584899902,1.5838690996170044,0.9898493885993958,0.4803822040557861
3994816192.0,-0.4951725304126739,0.1493700742721557,9.720122337341309,1.617026448249817,1.676502704620361,0.4800619781017303
3994824525.0,-0.4875405132770538,0.0633807182312011,9.871659278869627,1.6141194105148315,1.5734182596206665,0.5665996670722961
3994832858.0,-0.5399296879768372,-0.0978334993124008,9.866756439208984,1.5079995393753052,1.0808565616607666,0.5787919759750366
3994841191.0,-0.5713447332382202,-0.0479751825332641,9.802275657653809,1.605589747428894,0.9733793139457704,0.5404219031333923
3994849524.0,-0.556543231010437,0.1237507909536361,9.75645351409912,1.5189368724822998,1.4367151260375977,0.4101991653442383
3994857857.0,-0.5008311867713928,0.0566956475377082,9.811407089233398,1.5989303588867188,1.445424199104309,0.4750288426876068
3994866190.0,-0.431843489408493,-0.0949977710843086,9.868523597717283,1.5234578847885132,1.005179524421692,0.5177405476570129
3994874523.0,-0.4181967079639435,-0.0775234624743461,9.752670288085938,1.5847269296646118,0.762458860874176,0.5085449814796448
3994882856.0,-0.4606580436229706,0.1234348863363266,9.69037628173828,1.57587730884552,1.2523438930511477,0.4929074943065643
3994891189.0,-0.5063726902008057,0.1110357865691185,9.773369789123535,1.4435797929763794,1.606614351272583,0.5044595003128052
3994899522.0,-0.5258553624153137,-0.1147255897521972,9.939358711242676,1.4747651815414429,1.4726136922836304,0.5079814791679382
3994907855.0,-0.5514600872993469,-0.2126368284225464,9.880376815795898,1.4901336431503296,0.810818612575531,0.4781921207904815
3994916188.0,-0.5170316100120544,0.0078031448647379,9.759297370910645,1.640873670578003,1.0863254070281982,0.5253992080688477
3994924521.0,-0.5133960843086243,0.1996994614601135,9.804004669189451,1.561315894126892,1.4320663213729858,0.5373354554176331
3994932854.0,-0.4520649015903473,0.0616324804723262,9.889779090881348,1.5388648509979248,1.3131775856018066,0.5301249623298645
3994941187.0,-0.4423056542873382,-0.1477233916521072,9.837960243225098,1.5101256370544434,0.833038866519928,0.5793043375015259
3994949520.0,-0.4861417710781097,-0.0903790891170501,9.70158863067627,1.569832444190979,0.935726523399353,0.5676499605178833
3994957853.0,-0.5214341878890991,0.1057054176926612,9.722736358642578,1.5127640962600708,1.6083050966262815,0.5097104907035828
3994966186.0,-0.5515495538711548,0.0966309159994125,9.845852851867676,1.57049822807312,1.598802089691162,0.6210554838180542
3994974519.0,-0.5674796104431152,-0.0782395973801612,9.95702075958252,1.5318976640701294,1.3036749362945557,0.5346331000328064
3994982852.0,-0.5742854475975037,-0.0682524442672729,9.814491271972656,1.4559259414672852,0.8925151824951172,0.4228525757789612
3994991185.0,-0.543815553188324,0.0861356854438781,9.733892440795898,1.492362141609192,1.1668819189071655,0.4046536684036255
3994999518.0,-0.481662780046463,0.0446592047810554,9.802006721496582,1.5921168327331543,1.3997538089752195,0.4944700002670288
3995007851.0,-0.4338032901287079,-0.1029775962233543,9.911581039428713,1.5440388917922974,1.1909209489822388,0.5238751173019409
3995016184.0,-0.3986412286758423,-0.1289460211992263,9.78541374206543,1.6068705320358276,0.7615240216255188,0.4510538578033447
3995024517.0,-0.4476161897182464,0.0865515023469924,9.700020790100098,1.5988788604736328,1.164154052734375,0.5278709530830383
3995032850.0,-0.5114222168922424,0.1726408302783966,9.688142776489258,1.5779650211334229,1.6870816946029663,0.5189700722694397
3995041183.0,-0.5790194272994995,-0.0250716134905815,9.867579460144045,1.5927571058273315,1.492656707763672,0.4651673138141632
3995049516.0,-0.570594072341919,-0.2010668218135833,9.906200408935549,1.5276201963424685,0.9407210946083068,0.3917825222015381
3995057849.0,-0.5540949106216431,-0.0794778317213058,9.81431770324707,1.5756468772888184,0.8333719372749329,0.4292305707931518
3995066182.0,-0.5108170509338379,0.1531503498554229,9.722915649414062,1.6746073961257937,1.3676207065582275,0.4453034400939941
3995074515.0,-0.448575347661972,0.1586209833621978,9.842479705810549,1.5999420881271362,1.3650850057601929,0.4967624843120575
3995082848.0,-0.4138694405555725,-0.0827224776148796,9.869272232055664,1.4948594570159912,1.0111347436904907,0.4022331237792969
3995091181.0,-0.4419571161270141,-0.1297104656696319,9.72940158843994,1.5302329063415527,0.7733066082000732,0.4935479760169983
3995099514.0,-0.4809931516647339,0.0738197118043899,9.693503379821776,1.6539369821548462,1.2095555067062378,0.4555748105049133
3995107847.0,-0.5088310837745667,0.1226191818714141,9.817187309265137,1.6572667360305786,1.70721435546875,0.4236082136631012
3995116180.0,-0.5198596715927124,-0.0258385203778743,9.926403999328612,1.409512996673584,1.419579267501831,0.4839425384998321
3995124513.0,-0.550563633441925,-0.095100499689579,9.845699310302734,1.6192421913146973,0.9061676263809204,0.4671396017074585
3995132846.0,-0.5516698360443115,0.0474823899567127,9.751168251037598,1.6247109174728394,1.047801494598389,0.4868497550487518
3995141179.0,-0.5260679125785828,0.1239558160305023,9.80506992340088,1.5777983665466309,1.443707823753357,0.3677563667297363
3995149512.0,-0.4543917775154114,-0.0016822643810883,9.919041633605955,1.497805118560791,1.2153313159942627,0.4755666553974151
3995157845.0,-0.415172815322876,-0.1329005658626556,9.849669456481934,1.5168108940124512,0.8050937056541443,0.4794088006019592
3995166178.0,-0.4394503831863403,0.0163306649774312,9.685404777526855,1.5593560934066772,1.0114165544509888,0.4803309142589569
3995174511.0,-0.4854405522346496,0.1716251522302627,9.695114135742188,1.6526817083358765,1.5324996709823608,0.5308293700218201
3995182844.0,-0.5079572200775146,0.0267928969115018,9.849202156066896,1.445897936820984,1.5710233449935913,0.5612335205078125
3995191177.0,-0.5342138409614563,-0.1829904019832611,9.96760368347168,1.3818751573562622,1.123222589492798,0.5641919374465942
3995199510.0,-0.5372710227966309,-0.1154595166444778,9.84599781036377,1.5258527994155884,0.8211538791656494,0.4882969558238983
3995207843.0,-0.5241468548774719,0.1185801178216934,9.746405601501465,1.6002109050750732,1.16102933883667,0.3869926631450653
3995216176.0,-0.4724558591842651,0.1810871362686157,9.789833068847656,1.5469845533370972,1.3544679880142212,0.5005149245262146
3995224509.0,-0.4435344040393829,-0.0429285578429698,9.838751792907717,1.5259554386138916,1.2269092798233032,0.4631181955337524
3995232842.0,-0.4439442157745361,-0.1346276998519897,9.737510681152344,1.5865328311920166,0.8367530107498169,0.5079942941665649
3995241175.0,-0.4619424641132355,0.0214535426348447,9.664069175720217,1.5726372003555298,1.2188535928726196,0.5388211011886597
3995249508.0,-0.501946210861206,0.1333187222480774,9.743647575378418,1.6217907667160034,1.6531938314437866,0.5120285749435425
3995257841.0,-0.5331920385360718,0.0047977417707443,9.870182991027832,1.5439236164093018,1.4520198106765747,0.4560358822345733
3995266174.0,-0.5545440912246704,-0.1154753640294075,9.894146919250488,1.5189498662948608,1.009918212890625,0.430985152721405
3995274507.0,-0.53982013463974,-0.011721889488399,9.787016868591309,1.5108555555343628,1.05392324924469,0.5435340404510498
3995282840.0,-0.5317189693450928,0.1036270037293434,9.74587631225586,1.5348048210144043,1.4830896854400637,0.4999642372131347
3995291173.0,-0.4689947664737701,-0.0323277227580547,9.902021408081056,1.3899308443069458,1.42973530292511,0.5336982011795044
3995299506.0,-0.4313855767250061,-0.1463941782712936,9.875335693359377,1.5793224573135376,1.026208758354187,0.4266819357872009
3995307839.0,-0.4323026537895202,-0.0638085976243019,9.74079704284668,1.6412320137023926,0.8897616863250732,0.4875413775444031
3995316172.0,-0.4843433797359466,0.1124491393566131,9.674032211303713,1.5786436796188354,1.3932477235794067,0.4667553901672363
3995324505.0,-0.5118998289108276,0.0234834980219602,9.805092811584473,1.5354835987091064,1.7211099863052368,0.5172410607337952
3995332838.0,-0.5488135814666748,-0.2157230079174041,9.920860290527344,1.577222228050232,1.240958571434021,0.4325219392776489
3995341171.0,-0.5753035545349121,-0.1994341015815735,9.862409591674805,1.6242115497589111,0.9232778549194336,0.437298983335495
3995349504.0,-0.5551718473434448,0.0522643998265266,9.78479290008545,1.6698943376541138,1.1028976440429688,0.4526803493499756
3995357837.0,-0.4981121718883514,0.1721809804439544,9.812148094177246,1.6644129753112793,1.3577592372894287,0.5720170140266418
3995366170.0,-0.4617207646369934,-0.0171331297606229,9.896982192993164,1.568397879600525,1.133314609527588,0.5796884894371033
3995374503.0,-0.4610437452793121,-0.1618397682905197,9.758798599243164,1.559689164161682,0.9173098802566528,0.4700852036476135
3995382836.0,-0.4827671349048614,-0.0370768792927265,9.68826675415039,1.7000678777694702,1.1697252988815308,0.566791832447052
3995391169.0,-0.514618456363678,0.1167784258723259,9.74733066558838,1.6157459020614624,1.5280171632766724,0.5467102527618408
3995399502.0,-0.5418940186500549,0.0450214482843875,9.875441551208496,1.4261749982833862,1.5684363842010498,0.4351602792739868
3995407835.0,-0.5683962106704712,-0.0816775485873222,9.905683517456056,1.435895562171936,1.1227871179580688,0.4924976825714111
3995416168.0,-0.5996586084365845,-0.0058484631590545,9.80005931854248,1.6036689281463623,1.1008871793746948,0.4814067780971527
3995424501.0,-0.571500837802887,0.1408119201660156,9.762585639953612,1.6172444820404053,1.3607946634292605,0.5303811430931091
3995432834.0,-0.4835943281650543,0.0690602138638496,9.8438138961792,1.6464191675186155,1.4813096523284912,0.5594533085823059
3995441167.0,-0.4316023886203766,-0.1004778295755386,9.85655117034912,1.5723553895950315,0.8309513926506042,0.4565993249416351
3995449500.0,-0.4183639585971832,-0.019638393074274,9.728976249694824,1.5722273588180542,0.7369471192359924,0.4680233597755432
3995457833.0,-0.4639531970024109,0.1621399372816085,9.659449577331545,1.582076072692871,1.3562610149383545,0.5177277326583862
3995466166.0,-0.4598720967769623,0.1181923076510429,9.765365600585938,1.624224305152893,1.7140278816223145,0.5593892931938171
3995474499.0,-0.5245378017425537,-0.1193475127220153,9.908164024353027,1.4168899059295654,1.3301087617874146,0.4194715321063995
3995482832.0,-0.5302753448486328,-0.1755361706018448,9.86846923828125,1.636045217514038,0.9386977553367616,0.4943675100803375
3995491165.0,-0.5409565567970276,0.0823187381029129,9.805020332336426,1.7305874824523926,1.0424866676330566,0.4159367680549621
3995499498.0,-0.4980899691581726,0.2165849804878235,9.782709121704102,1.754421353340149,1.304302453994751,0.4632078111171722
3995507831.0,-0.4434047341346741,0.0589367933571338,9.842023849487305,1.477134346961975,1.149425983428955,0.3891442418098449
3995516164.0,-0.4159715473651886,-0.1039237007498741,9.8388090133667,1.4484721422195437,0.8358820676803589,0.4340716302394867
3995524497.0,-0.4571523666381836,-0.0048671294935047,9.679883003234863,1.5581653118133545,1.0769249200820925,0.440641701221466
3995532830.0,-0.490226686000824,0.1521089971065521,9.725296020507812,1.525647759437561,1.64460027217865,0.4620935618877411
3995541163.0,-0.513993501663208,0.089805394411087,9.877968788146973,1.4678621292114258,1.58538019657135,0.4533079266548157
3995549496.0,-0.5511292815208435,-0.0731245353817939,9.905888557434082,1.5628654956817627,0.972072958946228,0.4714427590370178
3995557829.0,-0.5628284811973572,0.0008923465502448,9.766464233398438,1.6143499612808228,1.08692729473114,0.433584988117218
3995566162.0,-0.5543749928474426,0.1250664442777633,9.727797508239746,1.4848699569702148,1.4129964113235474,0.3932681381702423
3995574495.0,-0.4989625215530395,0.0219463594257831,9.823359489440918,1.4495223760604858,1.431028962135315,0.5400377511978149
3995582828.0,-0.4375762045383453,-0.1216373816132545,9.88160514831543,1.4002918004989624,0.9667195677757264,0.4197276532649994
3995591161.0,-0.421625554561615,-0.0953553542494773,9.748722076416016,1.593960881233215,0.8479976058006287,0.4881432652473449
3995599494.0,-0.4588106274604797,0.1052526384592056,9.679442405700684,1.5406451225280762,1.2397034168243408,0.4935351312160492
3995607827.0,-0.5199066400527954,0.0942120850086212,9.773454666137695,1.4101786613464355,1.5927571058273315,0.4716220498085022
3995616160.0,-0.5306009650230408,-0.1442038118839264,9.920084953308104,1.4505469799041748,1.330160140991211,0.4495426714420318
3995624493.0,-0.54718017578125,-0.1957992911338806,9.881329536437988,1.5131993293762207,0.8950766324996948,0.5249252915382385
3995632826.0,-0.5365064144134521,0.0012623348738998,9.76465892791748,1.6068195104599,0.986032783985138,0.498081624507904
3995641159.0,-0.4989965856075287,0.124496690928936,9.821803092956545,1.6632730960845947,1.408872365951538,0.5806874632835388
3995649492.0,-0.4413772821426391,-0.0072025991976261,9.849106788635254,1.5797194242477417,1.2212226390838623,0.5294846892356873
3995657825.0,-0.4319301545619964,-0.1788975894451141,9.85569953918457,1.4791964292526243,0.8983936905860901,0.4562663435935974
3995666158.0,-0.4530541896820068,-0.083841323852539,9.705302238464355,1.7317783832550049,0.8862524628639221,0.5238879323005676
3995674491.0,-0.4716952741146087,0.0809898227453231,9.729782104492188,1.6099826097488403,1.6072418689727783,0.5779595971107483
3995682824.0,-0.53582364320755,0.0379164926707744,9.87617301940918,1.5598427057266235,1.5511083602905271,0.5192133188247681
3995691157.0,-0.5363802909851074,-0.1270653158426284,9.921707153320312,1.5839076042175293,1.224130153656006,0.4092386662960052
3995699490.0,-0.562000036239624,-0.0930237844586372,9.80217742919922,1.555526852607727,1.112784743309021,0.5352350473403931
3995707823.0,-0.5386513471603394,0.0434814468026161,9.74148654937744,1.6069602966308594,1.2587347030639648,0.4076761603355407
3995716156.0,-0.4876275360584259,0.0194533560425043,9.825438499450684,1.558190941810608,1.4698216915130615,0.451886385679245
3995724489.0,-0.4354833662509918,-0.1225006580352783,9.858866691589355,1.4943345785140991,1.0676013231277466,0.3982245624065399
3995732822.0,-0.4129886031150818,-0.1216336339712143,9.80728244781494,1.6177181005477903,0.8481897711753845,0.446609765291214
3995741155.0,-0.4523337781429291,0.0682455673813819,9.683449745178224,1.633765697479248,1.3260105848312378,0.4866577088832855
3995749488.0,-0.4986811280250549,0.0964684411883354,9.71939754486084,1.5840610265731812,1.7753225564956665,0.4964038431644439
3995757821.0,-0.5237177014350891,-0.1274798214435577,9.87576961517334,1.4562716484069824,1.4527368545532229,0.4224811792373657
3995766154.0,-0.5516961216926575,-0.2196988761425018,9.888874053955078,1.594229817390442,0.9368662238121032,0.4353907704353332
3995774487.0,-0.5500432252883911,0.0006624545203521,9.768274307250977,1.777896761894226,0.955065131187439,0.5041521787643433
3995782820.0,-0.5289729833602905,0.1794663965702057,9.763993263244627,1.7607096433639526,1.4769550561904907,0.5213393568992615
3995791153.0,-0.4721483886241913,0.079165868461132,9.832794189453123,1.737848877906799,1.3485894203186035,0.4785251319408417
3995799486.0,-0.4328034222126007,-0.1137076914310455,9.833767890930176,1.553964376449585,0.7277771830558777,0.4011957049369812
3995807819.0,-0.4511480629444122,-0.0347435995936393,9.690476417541504,1.6417571306228638,0.92409747838974,0.4934710264205932
3995816152.0,-0.502724826335907,0.1129728928208351,9.691156387329102,1.655383825302124,1.5257246494293213,0.5150381922721863
3995824485.0,-0.4923977255821228,0.1373835802078247,9.832104682922363,1.5535671710968018,1.5606112480163574,0.4466481804847717
3995832818.0,-0.5476348996162415,-0.037487119436264,9.907234191894531,1.5015065670013428,1.1328152418136597,0.4812915325164795
3995841151.0,-0.5500970482826233,-0.0062915529124438,9.835718154907228,1.5472791194915771,0.8953968286514282,0.5328017473220825
3995849484.0,-0.5599797964096069,0.1143571957945823,9.748360633850098,1.584880828857422,1.3416224718093872,0.4386437535285949
3995857817.0,-0.5023457407951355,0.1259641349315643,9.815557479858398,1.5078458786010742,1.5126615762710571,0.4957250952720642
3995866150.0,-0.4420746266841888,-0.0425001569092273,9.905728340148926,1.4430547952651978,1.0695736408233645,0.4113645851612091
3995874483.0,-0.4250468015670776,-0.0704072788357734,9.803451538085938,1.536495327949524,0.7820281386375427,0.5111576318740845
3995882816.0,-0.4694741070270538,0.1344473659992218,9.7001314163208,1.5281453132629397,1.195954203605652,0.607774555683136
3995891149.0,-0.4954223930835724,0.1950302720069885,9.733731269836426,1.5215239524841309,1.5508265495300293,0.5157809853553772
3995899482.0,-0.5367515683174133,-0.0219054110348224,9.87863826751709,1.479670166969299,1.486022710800171,0.4679848849773407
3995907815.0,-0.5456687808036804,-0.159401386976242,9.95401096343994,1.5569870471954346,0.9034397006034852,0.498837262392044
3995916148.0,-0.5427892208099365,-0.0039676264859735,9.813132286071776,1.6207534074783323,0.8784016966819763,0.4435488879680633
3995924481.0,-0.5233747363090515,0.1927094459533691,9.771936416625977,1.7270653247833252,1.4597551822662354,0.398941695690155
3995932814.0,-0.4848314225673675,0.1164278164505958,9.857080459594728,1.453659176826477,1.386677861213684,0.435749351978302
3995941147.0,-0.4368023574352264,-0.1095758378505706,9.835504531860352,1.4580007791519165,1.0075231790542605,0.4875541627407074
3995949480.0,-0.4524534046649933,-0.077482171356678,9.713279724121094,1.530860424041748,0.8233439922332764,0.5621812343597412
3995957813.0,-0.4750549495220184,0.0997540727257728,9.707902908325195,1.5920015573501587,1.4277373552322388,0.4473782181739807
3995966146.0,-0.4909992218017578,0.1036665067076683,9.78963565826416,1.5428351163864136,1.6543593406677246,0.4501829445362091
3995974479.0,-0.5383387207984924,-0.0478155948221683,9.901206970214844,1.4198355674743652,1.2611041069030762,0.4489791393280029
3995982812.0,-0.568898618221283,-0.0952305570244789,9.85757827758789,1.5149797201156616,0.8223962783813477,0.384085476398468
3995991145.0,-0.5687658190727234,0.0266513489186763,9.7622709274292,1.4248942136764526,1.1535626649856567,0.4240436553955078
3995999478.0,-0.5307617783546448,0.0609518997371196,9.816965103149414,1.537955641746521,1.3935168981552124,0.465359479188919
3996007811.0,-0.4695498049259186,-0.0948715060949325,9.900087356567385,1.492080569267273,1.1318930387496948,0.4864912331104278
3996016144.0,-0.4246270954608917,-0.1620598584413528,9.825303077697754,1.563685178756714,0.589242696762085,0.4285646080970764
3996024477.0,-0.4210156500339508,0.014755698852241,9.682173728942873,1.628540277481079,1.1247339248657229,0.4011573493480682
3996032810.0,-0.4645713567733764,0.1152219325304031,9.682239532470703,1.533293843269348,1.7198423147201538,0.6112837791442871
3996041143.0,-0.4994173347949981,-0.0885079950094223,9.864160537719728,1.4666967391967771,1.5600093603134155,0.6255764365196228
3996049476.0,-0.5290253758430481,-0.2511632740497589,9.933287620544434,1.5595996379852295,1.1747456789016724,0.4782946109771728
3996057809.0,-0.5620195269584656,-0.1456126123666763,9.77826690673828,1.6711111068725586,1.0591871738433838,0.4554339349269867
3996066142.0,-0.5509360432624817,0.1062408313155174,9.773040771484377,1.707970142364502,1.366993427276611,0.5327633023262024
3996074475.0,-0.4941286742687225,0.100735068321228,9.853717803955078,1.544026017189026,1.3201062679290771,0.5290619730949402
3996082808.0,-0.4408480525016784,-0.1365825831890106,9.851310729980469,1.4894678592681885,1.003821849822998,0.4897698163986206
3996091141.0,-0.446378618478775,-0.1566559374332428,9.752469062805176,1.621342658996582,0.9268895387649536,0.5001307725906372
3996099474.0,-0.4648768603801727,0.0028903139755129,9.683076858520508,1.766242504119873,1.274423599243164,0.5231068134307861
3996107807.0,-0.4730176627635956,0.0730205923318862,9.836833953857422,1.6626585721969604,1.677181839942932,0.5614256858825684
3996116140.0,-0.5093851685523987,-0.0536521300673484,9.902634620666504,1.5708057880401611,1.3137924671173096,0.464962363243103
3996124473.0,-0.5510129928588867,-0.0978865399956703,9.87403392791748,1.5888381004333496,1.0443307161331177,0.5117852091789246
3996132806.0,-0.5581582188606262,0.0385380946099758,9.743104934692385,1.6535909175872805,1.2353105545043943,0.4574317932128906
3996141139.0,-0.5479810237884521,0.0743389353156089,9.80154037475586,1.7035257816314695,1.40122652053833,0.4723264873027801
3996149472.0,-0.4804093241691589,-0.0564844086766243,9.86420440673828,1.6530272960662842,1.2595415115356443,0.5775625705718994
3996157805.0,-0.4424394965171814,-0.1244657635688781,9.829618453979492,1.617833375930786,0.8426955342292786,0.5168567895889282
3996166138.0,-0.4394487738609314,0.0391973331570625,9.686925888061523,1.6921405792236328,0.8978430032730103,0.4975436925888061
3996174471.0,-0.5087015628814697,0.1683012545108795,9.697662353515623,1.6989281177520752,1.6387090682983398,0.5924956798553467
3996182804.0,-0.5160534381866455,0.030936986207962,9.863896369934082,1.5580499172210691,1.7249010801315308,0.552281379699707
3996191137.0,-0.5469059944152832,-0.1758012324571609,9.93744945526123,1.4659026861190796,1.1277692317962646,0.5081352591514587
3996199470.0,-0.5417237281799316,-0.1034514158964157,9.800654411315918,1.660033106803894,0.7767773866653442,0.4073688089847564
3996207803.0,-0.5313229560852051,0.1698398143053054,9.794514656066896,1.6259788274765017,1.2366424798965454,0.4843267500400543
3996216136.0,-0.4694192707538605,0.2074543535709381,9.824461936950684,1.614836573600769,1.401393175125122,0.5887047648429871
3996224469.0,-0.4411058127880096,-0.0158538650721311,9.868468284606934,1.495064377784729,1.114206314086914,0.5122461915016174
3996232802.0,-0.4707368314266205,-0.0885321274399757,9.75210666656494,1.539889574050903,0.8008162975311279,0.5651652812957764
3996241135.0,-0.4950512945652008,0.0636950880289077,9.68997287750244,1.7229286432266235,1.2343370914459229,0.522261381149292
3996249468.0,-0.5210604071617126,0.1670227497816085,9.747554779052734,1.6095728874206543,1.6736596822738647,0.4746317863464355
3996257801.0,-0.5313732028007507,0.0312997698783874,9.889376640319824,1.5104713439941406,1.4108320474624634,0.3629536926746368
3996266134.0,-0.5240486860275269,-0.0391545817255973,9.870333671569824,1.5551042556762695,0.8040948510169983,0.3342273235321045
3996274467.0,-0.5456259250640869,0.0380471646785736,9.744006156921388,1.5417976379394531,1.038990139961243,0.5049332976341248
3996282800.0,-0.5018531084060669,0.1322799175977707,9.77223777770996,1.6420773267745972,1.4812198877334597,0.4766296446323395
3996291133.0,-0.4516758620738983,0.0260242316871881,9.861815452575684,1.5230865478515625,1.318838596343994,0.5337879061698914
3996299466.0,-0.4006229341030121,-0.1137975379824638,9.86706829071045,1.5349713563919067,0.8942056894302368,0.4636304080486297
3996307799.0,-0.4260355830192566,-0.0102677643299102,9.713736534118652,1.508063554763794,0.8910679817199707,0.4252474904060364
3996316132.0,-0.4743572473526001,0.1750485450029373,9.6603422164917,1.6012738943099976,1.4298889636993408,0.4880536794662475
3996324465.0,-0.522037923336029,0.0704993680119514,9.797842979431152,1.3867547512054443,1.721430420875549,0.5131812691688538
3996332798.0,-0.545432448387146,-0.1792225092649459,9.892797470092772,1.416121482849121,1.191996932029724,0.5842735171318054
3996341131.0,-0.5403311252593994,-0.1490943282842636,9.853909492492676,1.5633776187896729,0.7941309213638306,0.3961369395256042
3996349464.0,-0.5243901014328003,0.0723915696144104,9.729670524597168,1.6372617483139038,1.1643974781036377,0.4948669970035553
3996357797.0,-0.4639098644256592,0.1568006575107574,9.776540756225586,1.5452556610107422,1.389725923538208,0.4381827116012573
3996366130.0,-0.4287024140357971,-0.0423547700047493,9.860114097595217,1.4018412828445437,1.2595031261444092,0.5386161208152771
3996374463.0,-0.4301482737064361,-0.1999452859163284,9.7966947555542,1.4916961193084717,0.889684796333313,0.3989929258823395
3996382796.0,-0.4650848805904388,-0.0427324809134006,9.689629554748535,1.5384036302566528,1.1537548303604126,0.5378605127334595
3996391129.0,-0.4961694180965423,0.1075352951884269,9.74091339111328,1.6339576244354248,1.7864646911621094,0.5308806896209717
3996399462.0,-0.5269152522087097,0.0130653446540236,9.876338958740234,1.4873672723770142,1.565029501914978,0.5284216403961182
3996407795.0,-0.548081636428833,-0.1308988630771637,9.91675853729248,1.4210519790649414,1.115371823310852,0.4163081347942352
3996416128.0,-0.5657622814178467,-0.067758671939373,9.766359329223633,1.5041062831878662,0.9797316193580629,0.4841729998588562
3996424461.0,-0.5554907321929932,0.0595367290079593,9.744812965393066,1.5261601209640503,1.3432999849319458,0.538424015045166
3996432794.0,-0.4906360805034637,-0.0080827279016375,9.858991622924805,1.591617226600647,1.4143155813217163,0.525578498840332
3996441127.0,-0.4321486055850982,-0.1655844002962112,9.874552726745604,1.4566431045532229,0.9220483303070068,0.4582002162933349
3996449460.0,-0.3946762681007385,-0.1246622651815414,9.754732131958008,1.6160660982131958,0.8416453003883362,0.4770779311656952
3996457793.0,-0.4376735687255859,0.0982906520366668,9.635578155517578,1.616424798965454,1.3215279579162598,0.4684459269046783
3996466126.0,-0.4928291440010071,0.0893708243966102,9.774128913879396,1.4895318746566772,1.6850451231002808,0.5151150822639465
3996474459.0,-0.5503411293029785,-0.1577447950839996,9.946104049682615,1.398255467414856,1.392799735069275,0.4863887131214142
3996482792.0,-0.53928542137146,-0.2264931201934814,9.925943374633787,1.5958694219589231,0.7934010028839111,0.5021159052848816
3996491125.0,-0.5436285734176636,-0.0325787626206874,9.754679679870604,1.71605122089386,0.945856750011444,0.4589046239852905
3996499458.0,-0.5227110981941223,0.1732586175203323,9.780572891235352,1.7547799348831177,1.426994562149048,0.4541147351264953
3996507791.0,-0.4650778472423553,0.0554698780179023,9.886022567749023,1.5388904809951782,1.230520725250244,0.4825338125228882
3996516124.0,-0.4432929158210754,-0.1303185373544693,9.860533714294434,1.491042971611023,0.9177964329719543,0.6060455441474915
3996524457.0,-0.4537420570850372,-0.0849077254533767,9.707270622253418,1.6011199951171875,0.9167335033416748,0.4436385333538055
3996532790.0,-0.4654501378536224,0.1018782183527946,9.696090698242188,1.6811648607254028,1.5604960918426514,0.4543965458869934
3996541123.0,-0.4919846653938293,0.0996012315154075,9.84119701385498,1.654397964477539,1.5582677125930786,0.4679464995861053
3996549456.0,-0.4942618906497955,-0.0580074042081832,9.911234855651855,1.6170265674591064,1.0635029077529907,0.5388466119766235
3996557789.0,-0.5417466163635254,-0.0548802651464939,9.827957153320312,1.553247094154358,1.0130172967910769,0.5791890025138855
3996566122.0,-0.5384120941162109,0.118661880493164,9.718257904052734,1.5858542919158936,1.253663182258606,0.4927922785282135
3996574455.0,-0.5064579844474792,0.1085136085748672,9.79693603515625,1.5462415218353271,1.5539257526397705,0.4944187700748443
3996582788.0,-0.4557715058326721,-0.0768667086958885,9.865049362182615,1.49963641166687,1.218008041381836,0.4880536198616028
3996591121.0,-0.4158548712730407,-0.0929715260863304,9.827489852905272,1.6233021020889282,0.8730867505073547,0.4451241493225097
3996599454.0,-0.440046101808548,0.0976618081331253,9.674819946289062,1.5964455604553225,1.0828801393508911,0.4470067918300628
3996607787.0,-0.4847823679447174,0.2267324179410934,9.704410552978516,1.5602014064788818,1.5939098596572876,0.5171129703521729
3996616120.0,-0.5107678174972534,0.0048406375572085,9.879090309143066,1.5352530479431152,1.6226489543914795,0.4562535583972931
3996624453.0,-0.5448691844940186,-0.2062513828277588,9.941580772399902,1.5784131288528442,1.0904875993728638,0.5836074948310852
3996632786.0,-0.5566842555999756,-0.0667691454291343,9.79547882080078,1.602977275848389,0.9420018792152404,0.4186006188392639
3996641119.0,-0.5274493098258972,0.1640407443046569,9.76512622833252,1.6320109367370603,1.305557370185852,0.4224299490451813
3996649452.0,-0.4825655519962311,0.1616309434175491,9.839356422424316,1.5761975049972534,1.5120595693588257,0.4999386370182037
3996657785.0,-0.45240518450737,-0.0569708496332168,9.896742820739746,1.4708718061447144,1.098825216293335,0.6226052045822144
3996666118.0,-0.4619819521903991,-0.1034650355577468,9.731293678283691,1.4588459730148315,0.9108037352561952,0.4799467325210571
3996674451.0,-0.4875711798667907,0.0887968763709068,9.66746425628662,1.6660395860671997,1.2660988569259644,0.4781793653964996
3996682784.0,-0.5126994252204895,0.1450775861740112,9.78158473968506,1.6472002267837524,1.7268093824386597,0.5119773149490356
3996691117.0,-0.5336068272590637,-0.030380954965949,9.911309242248535,1.5179507732391355,1.4158267974853516,0.5230938792228699
3996699450.0,-0.5550776124000549,-0.0952443033456802,9.86760139465332,1.5071672201156616,0.962583065032959,0.5051639676094055
3996707783.0,-0.562520444393158,0.0374973230063915,9.746941566467283,1.6256202459335327,1.050913691520691,0.517061710357666
3996716116.0,-0.5568147301673889,0.1338223814964294,9.773744583129885,1.5960355997085571,1.4408903121948242,0.4573549628257751
3996724449.0,-0.476644217967987,-0.0140559980645775,9.88216495513916,1.447165846824646,1.244839072227478,0.4572013318538666
3996732782.0,-0.432765245437622,-0.1617237776517868,9.858792304992676,1.5564615726470947,0.8665935397148132,0.441115528345108
3996741115.0,-0.4421774744987488,-0.0540419518947601,9.68152141571045,1.641449809074402,1.0040138959884644,0.3677819669246673
3996749448.0,-0.4967817366123199,0.1260993480682373,9.67513656616211,1.5700246095657349,1.4465640783309937,0.4917164742946625
3996757781.0,-0.520871639251709,0.0371558032929897,9.82326602935791,1.6159892082214355,1.7588142156600952,0.373135358095169
3996766114.0,-0.5430132150650024,-0.1726304590702057,9.959397315979004,1.5773117542266846,1.2050857543945312,0.6584010720252991
3996774447.0,-0.5529118180274963,-0.1730567216873169,9.843910217285156,1.597675085067749,0.7868308424949646,0.5157297849655151
3996782780.0,-0.5280588865280151,0.0834438577294349,9.749510765075684,1.6109431982040403,1.155880570411682,0.5216723084449768
3996791113.0,-0.498816579580307,0.1464059948921203,9.804106712341309,1.5938327312469482,1.5056174993515017,0.4877846837043762
3996799446.0,-0.445559948682785,-0.0672458484768867,9.87808322906494,1.5360215902328491,1.192611575126648,0.560862123966217
3996807779.0,-0.442374438047409,-0.1943155378103256,9.803568840026855,1.5083199739456177,0.75287926197052,0.5156401991844177
3996816112.0,-0.4520086944103241,-0.0422801412642002,9.653841018676758,1.5676169395446775,1.0965198278427124,0.5387954115867615
3996824445.0,-0.4888166487216949,0.1077206283807754,9.756741523742676,1.5961637496948242,1.6375051736831665,0.522312581539154
3996832778.0,-0.514545202255249,0.0095457192510366,9.867648124694824,1.585700273513794,1.515978455543518,0.5147692561149597
3996841111.0,-0.5247256755828857,-0.1258734911680221,9.884387969970703,1.426828145980835,1.1394877433776855,0.5403962731361389
3996849444.0,-0.5378655195236206,-0.0613348893821239,9.766315460205078,1.5819735527038574,1.0203814506530762,0.5232347846031189
3996857777.0,-0.5412774085998535,0.1020733118057251,9.766372680664062,1.6355842351913452,1.3157649040222168,0.5666764974594116
3996866110.0,-0.4930285811424255,0.0368779972195625,9.84272289276123,1.6655527353286743,1.3406873941421509,0.5284856557846069
3996874443.0,-0.4312692582607269,-0.1205463632941246,9.915425300598145,1.4305421113967896,0.9995315074920654,0.5185473561286926
3996882776.0,-0.4155914187431335,-0.086440198123455,9.751829147338867,1.575749158859253,0.9285800457000732,0.4305368363857269
3996891109.0,-0.4351098239421844,0.0912058353424072,9.662800788879396,1.6946505308151243,1.3799797296524048,0.5047925710678101
3996899442.0,-0.5097533464431763,0.1253423988819122,9.767702102661133,1.6087404489517212,1.6824069023132324,0.4534103870391845
3996907775.0,-0.5470730662345886,-0.1125017255544662,9.937856674194336,1.5483932495117188,1.4982917308807373,0.5209550857543945
3996916108.0,-0.5705697536468506,-0.2041626125574112,9.877601623535156,1.522497296333313,0.9766067266464232,0.3745185136795044
3996924441.0,-0.5600694417953491,0.0140159120783209,9.75706672668457,1.633214831352234,1.0127354860305786,0.4189720153808594
3996932774.0,-0.5376678109169006,0.1959655433893203,9.7818603515625,1.6804730892181396,1.2574282884597778,0.493509441614151
3996941107.0,-0.4616178274154663,0.0722855329513549,9.880066871643066,1.4889553785324097,1.3251780271530151,0.4969673454761505
3996949440.0,-0.4489262402057647,-0.1436005234718322,9.869420051574709,1.519923210144043,1.0785386562347412,0.4495554864406585
3996957773.0,-0.4392673373222351,-0.0610370449721813,9.708755493164062,1.6573307514190674,0.99348646402359,0.4572013318538666
3996966106.0,-0.477557361125946,0.1474334001541137,9.712084770202637,1.661352038383484,1.5199869871139526,0.5160371661186218
3996974439.0,-0.5190461277961731,0.1287906169891357,9.857690811157228,1.6035279035568235,1.769815444946289,0.3984806537628174
3996982772.0,-0.5335204601287842,-0.042244117707014,9.925509452819824,1.492310881614685,1.2633196115493774,0.4014775156974792
3996991105.0,-0.555690348148346,-0.0811322182416915,9.83993148803711,1.572009563446045,0.8617525100708008,0.4708024859428406
3996999438.0,-0.575503408908844,0.0736931338906288,9.720772743225098,1.6391699314117432,1.2874609231948853,0.5176507830619812
3997007771.0,-0.5229104161262512,0.1178319975733757,9.804827690124512,1.5507497787475586,1.4141234159469604,0.4359926581382751
3997016104.0,-0.4589439928531647,-0.0412749797105789,9.913042068481444,1.52888822555542,1.0871193408966064,0.4681770205497741
3997024437.0,-0.4299682676792145,-0.1035228371620178,9.82278823852539,1.4912863969802856,0.7006517648696899,0.5562387108802795
3997032770.0,-0.4568818211555481,0.0848820209503173,9.670555114746094,1.5514925718307495,1.034161925315857,0.4495426118373871
3997041103.0,-0.5029513835906982,0.1566905677318573,9.691781997680664,1.432591199874878,1.6876065731048584,0.5816352367401123
3997049436.0,-0.522655189037323,-0.0307042058557271,9.887618064880373,1.5047211647033691,1.6590980291366575,0.4711866378784179
3997057769.0,-0.5504547953605652,-0.2147277444601059,9.9550199508667,1.4364206790924072,1.121493577957153,0.4955585598945617
3997066102.0,-0.5155015587806702,-0.1027392446994781,9.79384422302246,1.594050645828247,0.7751891613006592,0.4317022860050201
3997074435.0,-0.5141081809997559,0.1662521064281463,9.745268821716309,1.5810002088546753,1.2905604839324951,0.5120413303375244
3997082768.0,-0.4598863422870636,0.1505922824144363,9.82966136932373,1.5570380687713623,1.540516972541809,0.4951231479644775
3997091101.0,-0.4455248713493347,-0.0989143773913383,9.855728149414062,1.4216926097869873,1.0678575038909912,0.61384516954422
3997099434.0,-0.4475963115692138,-0.1605700403451919,9.74610424041748,1.5533112287521362,0.8806813955307007,0.6027925610542297
3997107767.0,-0.4793755114078522,0.0241122618317604,9.668635368347168,1.6948044300079346,1.225807785987854,0.5244899392127991
3997116100.0,-0.5112894773483276,0.152516558766365,9.750150680541992,1.5638644695281982,1.650927186012268,0.4270533621311188
3997124433.0,-0.5347344875335693,0.0057383943349123,9.894949913024902,1.4494966268539429,1.3800822496414185,0.5113497376441956
3997132766.0,-0.545429527759552,-0.120715707540512,9.858534812927246,1.4818475246429443,0.985392451286316,0.4864784181118011
3997141099.0,-0.5229196548461914,-0.0232152678072452,9.755086898803713,1.471140742301941,1.0560109615325928,0.4970569908618927
3997149432.0,-0.5136680603027344,0.0780944675207138,9.736533164978027,1.583779215812683,1.4795548915863037,0.4142589867115021
3997157765.0,-0.465380996465683,-0.027728708460927,9.856369972229004,1.5607523918151855,1.4157243967056274,0.4181011915206909
3997166098.0,-0.4232721626758575,-0.1467473059892654,9.861909866333008,1.5581140518188477,0.8573340773582458,0.5206606388092041
3997174431.0,-0.4350650012493133,-0.0273440014570951,9.70434856414795,1.5808591842651367,0.7892001271247864,0.5820066332817078
3997182764.0,-0.498704731464386,0.1439660191535949,9.626642227172852,1.6582527160644531,1.5108684301376345,0.5253864526748657
3997191097.0,-0.520266056060791,0.0446793772280216,9.793397903442385,1.4568864107131958,1.7195347547531128,0.4468403160572052
3997199430.0,-0.549454927444458,-0.2001905441284179,9.93984603881836,1.3999972343444824,1.2630634307861328,0.4380802512168884
3997207763.0,-0.5549573302268982,-0.2154009938240051,9.860958099365234,1.6072803735733032,0.7507404088973999,0.4410642981529236
3997216096.0,-0.536361038684845,0.0717226937413215,9.751070022583008,1.694087028503418,1.0510928630828855,0.5514872074127197
3997224429.0,-0.4969266057014465,0.2041890621185302,9.80983829498291,1.6499919891357422,1.3526108264923096,0.5146155953407288
3997232762.0,-0.4489736258983612,-0.0040231789462268,9.875364303588867,1.6321135759353638,1.21524178981781,0.4436129629611969
3997241095.0,-0.4440725147724151,-0.1799435317516327,9.788329124450684,1.5910793542861938,0.7963466048240662,0.4381827116012573
3997249428.0,-0.4543412029743194,-0.0667111203074455,9.694780349731444,1.6652581691741943,0.9470350742340088,0.5495790243148804
3997257761.0,-0.504905641078949,0.1094558835029602,9.724838256835938,1.642141342163086,1.5828956365585327,0.5022566914558411
3997266094.0,-0.5192402005195618,0.0799393132328987,9.884358406066896,1.5293618440628052,1.597393274307251,0.4821239113807678
3997274427.0,-0.5551899671554565,-0.0866033062338829,9.91057586669922,1.5325636863708496,1.1405891180038452,0.5151663422584534
3997282760.0,-0.5679083466529846,-0.0464573726058006,9.825429916381836,1.5871219635009766,0.9315512776374816,0.5343512892723083
3997291093.0,-0.5742420554161072,0.079228900372982,9.742140769958496,1.5312700271606443,1.221312165260315,0.4912809431552887
3997299426.0,-0.4895452260971069,0.0630230605602264,9.82142448425293,1.4752517938613892,1.4287619590759275,0.4726850688457489
3997307759.0,-0.4273425042629242,-0.0991589874029159,9.906135559082031,1.4947956800460815,0.9087674617767334,0.5260908007621765
3997316092.0,-0.4190714061260223,-0.0906938835978508,9.781392097473145,1.6232764720916748,0.7521876096725464,0.4326756596565246
3997324425.0,-0.4545589685440063,0.1174783855676651,9.670145988464355,1.6534885168075562,1.2647156715393066,0.4922415614128113
3997332758.0,-0.5281052589416504,0.1455854326486587,9.721183776855469,1.5875575542449951,1.695572853088379,0.5333780646324158
3997341091.0,-0.5316187143325806,-0.0984221920371055,9.891851425170898,1.44756281375885,1.4996365308761597,0.5225048065185547
3997349424.0,-0.5516818761825562,-0.2032241374254226,9.8927640914917,1.6482760906219482,0.9167590737342834,0.4487357437610626
3997357757.0,-0.5266063809394836,0.0052493335679173,9.771651268005373,1.804970979690552,0.9725083708763124,0.5090444684028625
3997366090.0,-0.5099194645881653,0.2085107862949371,9.764753341674805,1.7111718654632568,1.3343607187271118,0.4453163146972656
3997374423.0,-0.4513462781906128,0.0996580868959426,9.83737564086914,1.4818217754364014,1.411715745925903,0.4843267500400543
3997382756.0,-0.4419867396354675,-0.1365181058645248,9.84614086151123,1.5688974857330322,0.8492655158042908,0.444791167974472
3997391089.0,-0.4585075378417969,-0.1100647896528244,9.701702117919922,1.5725603103637695,0.9418354034423828,0.5371561050415039
3997399422.0,-0.4897863566875458,0.0943698212504386,9.6906156539917,1.6230075359344482,1.4388923645019531,0.4801260828971863
3997407755.0,-0.520180881023407,0.1329295486211776,9.80755615234375,1.6223288774490356,1.7461224794387815,0.503960132598877
3997416088.0,-0.523373544216156,-0.0110468529164791,9.923328399658203,1.5521713495254517,1.228484272956848,0.5157682299613953
3997424421.0,-0.5828089714050293,-0.0620183944702148,9.812647819519045,1.5515949726104736,0.912417471408844,0.503204345703125
3997432754.0,-0.5532270073890686,0.0524977259337902,9.74059009552002,1.605333685874939,1.2274212837219238,0.4744652807712555
3997441087.0,-0.5366539359092712,0.0898176059126854,9.790477752685549,1.5906823873519895,1.5969579219818115,0.4323042333126068
3997449420.0,-0.4638095200061798,-0.0613186694681644,9.886356353759766,1.5348176956176758,1.1770893335342407,0.4955713748931885
3997457753.0,-0.4404560923576355,-0.1321647763252258,9.848716735839844,1.561469554901123,0.6694281101226807,0.4390024244785309
3997466086.0,-0.4278840720653534,0.0577090978622436,9.681488037109377,1.6052570343017578,0.9938963651657104,0.4154757559299469
3997474419.0,-0.4811370074748993,0.1609500646591186,9.65206813812256,1.4044668674468994,1.620932698249817,0.4403983354568481
3997482752.0,-0.5370548963546753,-0.0276951901614666,9.844964981079102,1.511239767074585,1.6170520782470703,0.5172025561332703
3997491085.0,-0.5511379241943359,-0.2360435724258422,9.944544792175291,1.49765145778656,1.0278351306915283,0.5296895503997803
3997499418.0,-0.5459513664245605,-0.1253027468919754,9.800561904907228,1.754229187965393,0.9556542634963988,0.4971595108509063
3997507751.0,-0.540402889251709,0.1573884487152099,9.72009563446045,1.7110689878463743,1.1624635457992554,0.5049205422401428
3997516084.0,-0.4969023764133453,0.1786599457263946,9.83888339996338,1.6454328298568726,1.5545533895492554,0.5276787877082825
3997524417.0,-0.4666335880756378,-0.0404954254627227,9.875277519226074,1.4361515045166016,1.0390541553497314,0.4830972552299499
3997532750.0,-0.4631047546863556,-0.1635435074567794,9.733107566833496,1.4770063161849976,0.8080906867980957,0.5537413358688354
3997541083.0,-0.479928582906723,-0.0181713532656431,9.701837539672852,1.6122111082077026,1.1294338703155518,0.58062344789505
3997549416.0,-0.5043502449989319,0.0992291271686554,9.763541221618652,1.6760547161102295,1.7932655811309814,0.6361680030822754
3997557749.0,-0.5170493721961975,0.0121371410787105,9.947514533996582,1.544000506401062,1.5299381017684937,0.5638461709022522
3997566082.0,-0.5468634366989136,-0.083641305565834,9.919425964355469,1.558523654937744,0.9093308448791504,0.4772699773311615
3997574415.0,-0.5409091711044312,0.0060033663176,9.740793228149414,1.5717406272888184,1.0579959154129028,0.5038319826126099
3997582748.0,-0.5203015804290771,0.1083424538373947,9.75149154663086,1.571138858795166,1.275396704673767,0.4668322205543518
3997591081.0,-0.4743898510932922,0.001338635222055,9.86147689819336,1.4640969038009644,1.324499249458313,0.4896801114082336
3997599414.0,-0.4324903786182403,-0.1585115492343902,9.853272438049316,1.4993934631347656,0.9097024202346802,0.4690863490104675
3997607747.0,-0.4602214694023132,-0.0774793550372123,9.755006790161133,1.6124674081802368,0.9220868349075316,0.4669987559318542
3997616080.0,-0.4830628335475921,0.1497848182916641,9.671829223632812,1.718305230140686,1.419438362121582,0.5182527899742126
3997624413.0,-0.5393209457397461,0.0695289671421051,9.776138305664062,1.550954818725586,1.793086290359497,0.5071491003036499
3997632746.0,-0.5333570241928101,-0.1769072860479354,9.942785263061523,1.371232509613037,1.241803765296936,0.5440207123756409
3997641079.0,-0.5195882320404053,-0.1958126574754715,9.864030838012695,1.6340601444244385,0.8211410641670227,0.5812382102012634
3997649412.0,-0.5340364575386047,0.038801185786724,9.74545955657959,1.699939846992493,1.032740354537964,0.4720447361469269
3997657745.0,-0.4696334302425384,0.1945172250270843,9.757027626037598,1.6516571044921875,1.5132633447647097,0.5485032200813293
3997666078.0,-0.4289203286170959,0.013543021865189,9.901391983032228,1.5957411527633667,1.2933396100997925,0.4459438025951385
3997674411.0,-0.4455538094043731,-0.1595934182405471,9.828152656555176,1.5209219455718994,0.881155252456665,0.4878743290901184
3997682744.0,-0.4962631464004516,-0.0543283522129058,9.670905113220217,1.6078311204910278,1.13760507106781,0.5322893857955933
3997691077.0,-0.5289462208747864,0.1141847968101501,9.714406967163086,1.644984483718872,1.5875061750411987,0.5524093508720398
3997699410.0,-0.5401638150215149,0.0636172294616699,9.867435455322266,1.538813591003418,1.633867859840393,0.4371965527534485
3997707743.0,-0.5451695322990417,-0.0829520896077156,9.890487670898438,1.4626754522323608,1.143983006477356,0.4495810866355896
3997716076.0,-0.5339839458465576,-0.0744590908288955,9.791316986083984,1.55930495262146,0.9273505806922911,0.4508489966392517
3997724409.0,-0.5172438025474548,0.0974836274981498,9.69719409942627,1.6511319875717163,1.2267810106277466,0.4838913083076477
3997732742.0,-0.4716832041740417,0.0916484743356704,9.80300521850586,1.6163350343704224,1.481040596961975,0.5995011329650879
3997741075.0,-0.4153214693069458,-0.1185372173786163,9.902420997619627,1.570997953414917,1.0121209621429443,0.4339307844638824
3997749408.0,-0.4301050007343292,-0.1013492569327354,9.782451629638672,1.5727267265319824,0.7549667358398438,0.4363256692886352
3997757741.0,-0.4704280495643616,0.0956274271011352,9.66208267211914,1.559420108795166,1.3092459440231323,0.5322125554084778
3997766074.0,-0.547140896320343,0.1407929956912994,9.740028381347656,1.5625708103179932,1.6251463890075684,0.5720170736312866
3997774407.0,-0.580730140209198,-0.0626176372170448,9.900620460510254,1.5459213256835938,1.533473014831543,0.4359030127525329
3997782740.0,-0.5677934885025024,-0.2089572846889495,9.936043739318848,1.463520646095276,0.9337926506996156,0.4464049339294433
3997791073.0,-0.5414153337478638,-0.021238287910819,9.804840087890623,1.6583679914474487,0.9284391403198242,0.5252967476844788
3997799406.0,-0.499512642621994,0.1951645165681839,9.751333236694336,1.734160542488098,1.4468199014663696,0.529113233089447
3997807739.0,-0.4502534568309784,0.1074212715029716,9.852473258972168,1.647046446800232,1.393030047416687,0.5078790783882141
3997816072.0,-0.4233847856521606,-0.1101674363017082,9.90246295928955,1.5045801401138306,0.8820005059242249,0.4254268109798431
3997824405.0,-0.4368590712547302,-0.099822998046875,9.730935096740724,1.6395801305770874,0.8274039626121521,0.5075076818466187
3997832738.0,-0.4856530725955963,0.1101669743657112,9.647555351257324,1.6841230392456057,1.3486021757125854,0.4623753726482391
3997841071.0,-0.5193103551864624,0.1251512020826339,9.803118705749512,1.628424882888794,1.8015260696411133,0.5707363486289978
3997849404.0,-0.5470993518829346,-0.0521253235638141,9.926361083984377,1.385678768157959,1.259349346160889,0.3934602439403534
3997857737.0,-0.5513060092926025,-0.0920978188514709,9.84785270690918,1.4455649852752686,0.8864830136299133,0.5351582169532776
3997866070.0,-0.5300377607345581,0.0590516254305839,9.75848388671875,1.5453451871871948,1.028193712234497,0.5549964308738708
3997874403.0,-0.4804365336894989,0.1091915071010589,9.770184516906738,1.508819341659546,1.405414581298828,0.4161416590213775
3997882736.0,-0.4441976845264435,-0.0453131012618541,9.873687744140623,1.5264930725097656,1.161003589630127,0.415117084980011
3997891069.0,-0.4116415381431579,-0.1406314820051193,9.825390815734863,1.5838048458099363,0.7732937335968018,0.5145643949508667
3997899402.0,-0.4358905851840973,0.0161881893873214,9.714129447937012,1.5948063135147097,0.9011984467506408,0.5382190942764282
3997907735.0,-0.4886027574539184,0.1448999196290969,9.682045936584473,1.561302661895752,1.6411936283111572,0.4535384476184845
3997916068.0,-0.5209841728210449,0.0029559945687651,9.829241752624512,1.518475890159607,1.4996238946914673,0.4946493506431579
3997924401.0,-0.5309898257255554,-0.2125450372695922,9.928131103515623,1.4827569723129272,1.0909103155136108,0.4388743340969085
3997932734.0,-0.5371832251548767,-0.114678293466568,9.799744606018066,1.6881829500198364,0.8779534697532654,0.4518607258796692
3997941067.0,-0.5377882122993469,0.1436811834573745,9.77175998687744,1.7658711671829224,1.0739792585372925,0.4946109354496002
3997949400.0,-0.4816803634166717,0.1454090327024459,9.802678108215332,1.57271409034729,1.4296586513519287,0.5382575392723083
3997957733.0,-0.4320775866508484,-0.0641265362501144,9.858808517456056,1.5526453256607056,1.1691234111785889,0.5003100633621216
3997966066.0,-0.4522539377212524,-0.1408732384443283,9.757166862487791,1.5062577724456787,0.8096787333488464,0.5388594269752502
3997974399.0,-0.4870091378688812,0.0478466190397739,9.687121391296388,1.661889910697937,1.2064945697784424,0.6207994222640991
3997982732.0,-0.5053644180297852,0.1492362171411514,9.779009819030762,1.6501842737197876,1.5700629949569702,0.4915499985218048
3997991065.0,-0.510791003704071,0.0197202824056148,9.930888175964355,1.4640967845916748,1.33633291721344,0.5199817419052124
3997999398.0,-0.5485787987709045,-0.0905467793345451,9.89344596862793,1.4751110076904297,1.0490437746047974,0.4902436137199402
3998007731.0,-0.5389456748962402,-0.0161341074854135,9.765176773071287,1.65948224067688,1.1502968072891235,0.4943162798881531
3998016064.0,-0.5087922215461731,0.1137842610478401,9.756635665893556,1.5530037879943848,1.400675892829895,0.4502085745334625
3998024397.0,-0.4649414122104645,0.0124415997415781,9.897854804992676,1.4613306522369385,1.4116390943527222,0.4714428186416626
3998032730.0,-0.4199737012386322,-0.13917838037014,9.885496139526367,1.572265625,0.9312182664871216,0.5918553471565247
3998041063.0,-0.4374186992645263,-0.0583091452717781,9.749746322631836,1.5971883535385132,0.9826516509056092,0.5015138983726501
3998049396.0,-0.4883666932582855,0.1460542827844619,9.672947883605955,1.650197148323059,1.3308132886886597,0.4609794020652771
3998057729.0,-0.5137127637863159,0.0521365627646446,9.813314437866213,1.503811597824097,1.7073936462402344,0.5637692809104919
3998066062.0,-0.542680561542511,-0.1749768406152725,9.942580223083496,1.5029919147491455,1.299333095550537,0.456701785326004
3998074395.0,-0.5401762127876282,-0.1987904906272888,9.87416648864746,1.7018097639083862,0.96803879737854,0.5450965166091919
3998082728.0,-0.5273096561431885,0.0590534918010234,9.749393463134766,1.6805499792099,1.116806149482727,0.3933321833610534
3998091061.0,-0.4723083078861236,0.1850402355194091,9.787233352661133,1.6311142444610596,1.4358570575714111,0.4404111504554748
3998099394.0,-0.4239540994167328,-0.0097690522670745,9.874914169311523,1.548098921775818,1.248309850692749,0.3994540274143219
3998107727.0,-0.4522964060306549,-0.1623081266880035,9.804040908813477,1.5547585487365725,0.8813602328300476,0.5255016684532166
3998116060.0,-0.4855316579341888,-0.0264411382377147,9.68677043914795,1.7220065593719482,1.1088274717330933,0.4698034822940826
3998124393.0,-0.535708487033844,0.1333512663841247,9.69641399383545,1.5947421789169312,1.6471999883651731,0.561156690120697
3998132726.0,-0.5288459658622742,0.0159553568810224,9.87392234802246,1.6780909299850464,1.5127767324447632,0.6126924753189087
3998141059.0,-0.5491536259651184,-0.1232961192727088,9.93129825592041,1.5367517471313477,0.9527215361595154,0.520327627658844
3998149392.0,-0.5327298045158386,-0.0619865618646144,9.778654098510742,1.6193959712982178,0.8857274055480957,0.5816096067428589
3998157725.0,-0.5207040905952454,0.1069927737116813,9.663867950439451,1.6792563199996948,1.2479127645492554,0.553229033946991
3998166058.0,-0.4514621198177337,0.0637858882546424,9.815375328063965,1.6005182266235352,1.5254687070846558,0.5040497183799744
3998174391.0,-0.4208545386791229,-0.1316696405410766,9.884660720825195,1.541272521018982,1.0074462890625,0.4848902821540832
3998182724.0,-0.4266323149204254,-0.1077502816915512,9.786322593688965,1.660609245300293,0.8330901861190796,0.4970313906669616
3998191057.0,-0.4859234392642975,0.0922272354364395,9.678593635559082,1.6529889106750488,1.3279187679290771,0.479472815990448
3998199390.0,-0.5535873174667358,0.1347763985395431,9.749882698059082,1.6825478076934814,1.6561139822006226,0.5722476840019226
3998207723.0,-0.5524478554725647,-0.0937753170728683,9.928658485412598,1.4354984760284424,1.3846030235290527,0.5277556777000427
3998216056.0,-0.5555245876312256,-0.2095557600259781,9.915410995483398,1.6998631954193115,0.8182980418205261,0.4922288060188293
3998224389.0,-0.5072393417358398,-0.0275043062865734,9.737764358520508,1.6194343566894531,0.85743647813797,0.4261696338653564
3998232722.0,-0.4621388912200928,0.1927718669176101,9.740385055541992,1.7382971048355105,1.3204265832901,0.4907815456390381
3998241055.0,-0.4357283413410187,0.09182920306921,9.849090576171877,1.5664770603179932,1.4521095752716064,0.4406801164150238
3998249388.0,-0.4082601070404053,-0.1436512321233749,9.861178398132324,1.5007123947143557,0.8558483719825745,0.4563688635826111
3998257721.0,-0.4397492706775665,-0.1048575714230537,9.71827220916748,1.7181259393692017,0.9712148904800416,0.5078021883964539
3998266054.0,-0.4981056153774261,0.1184475794434547,9.677935600280762,1.6522459983825684,1.4357545375823977,0.3931272327899933
3998274387.0,-0.5404564738273621,0.1317088454961776,9.792633056640623,1.5967273712158203,1.742011308670044,0.4867088794708252
3998282720.0,-0.5555428266525269,-0.0619672909379005,9.91712760925293,1.5365084409713743,1.3019331693649292,0.468574047088623
3998291053.0,-0.5675779581069946,-0.1106805875897407,9.87753677368164,1.565337061882019,0.8985986113548279,0.4974284470081329
3998299386.0,-0.545563817024231,0.0490847714245319,9.723228454589844,1.6143628358840942,1.182404398918152,0.5819810628890991
3998307719.0,-0.4943194985389709,0.1294727623462677,9.766605377197266,1.544743299484253,1.4671577215194702,0.4874900877475738
3998316052.0,-0.4343607425689697,-0.0125258229672908,9.922392845153809,1.4620733261108398,1.1405376195907593,0.4404495656490326
3998324385.0,-0.420587956905365,-0.1127694398164749,9.815868377685549,1.4911967515945437,0.7955141067504883,0.5425223112106323
3998332718.0,-0.4356987774372101,0.0100005278363823,9.653735160827637,1.5194491147994995,0.94697105884552,0.540729284286499
3998341051.0,-0.5066784620285034,0.1419843435287475,9.66130256652832,1.5463953018188477,1.5946013927459717,0.5970293283462524
3998349384.0,-0.5401886701583862,-0.0196202062070369,9.81960105895996,1.563953876495361,1.6377742290496826,0.5185858607292175
3998357717.0,-0.558879554271698,-0.2091993689537048,9.93439769744873,1.4885201454162598,0.9976232051849364,0.4748879075050354
3998366050.0,-0.550271213054657,-0.1333606541156768,9.827838897705078,1.7105697393417358,0.7223213911056519,0.486619234085083
3998374383.0,-0.542140543460846,0.128249779343605,9.70248794555664,1.8357594013214111,1.1046521663665771,0.4770779311656952
3998382716.0,-0.5122887492179871,0.1800253093242645,9.800049781799316,1.709916591644287,1.5183732509613037,0.4431390464305877
3998391049.0,-0.4462192952632904,-0.053772784769535,9.854381561279297,1.638798713684082,1.0704187154769895,0.4697650372982025
3998399382.0,-0.4347598552703857,-0.1761185377836227,9.743367195129396,1.616002082824707,0.7730631828308105,0.4939192533493042
3998407715.0,-0.4835537075996399,0.0216500926762819,9.66314697265625,1.6032335758209229,1.1619770526885986,0.5294078588485718
3998416048.0,-0.4948193430900574,0.1581862419843673,9.782604217529297,1.681792378425598,1.7430357933044434,0.4631181955337524
3998424381.0,-0.5243263840675354,0.0227115955203771,9.881105422973633,1.5926162004470823,1.5372382402420044,0.4578288197517395
3998432714.0,-0.5429173707962036,-0.1022203862667083,9.913269996643066,1.5680137872695925,1.001222014427185,0.5178557634353638
3998441047.0,-0.5246531963348389,-0.0212248712778091,9.776966094970703,1.5585495233535769,0.98712158203125,0.4900515675544739
3998449380.0,-0.5185702443122864,0.0910416170954704,9.759623527526855,1.6449589729309082,1.3125118017196655,0.4006962776184082
3998457713.0,-0.4488563239574432,0.0418298244476318,9.860563278198242,1.5764154195785522,1.4029558897018433,0.5300738215446472
3998466046.0,-0.406417578458786,-0.1286722123622894,9.88251495361328,1.541861891746521,0.8392888903617859,0.4929844439029693
3998474379.0,-0.4094924032688141,-0.0714035630226135,9.741223335266112,1.542937397956848,0.9641581773757936,0.4448552131652832
3998482712.0,-0.4975593090057373,0.1493128389120102,9.662890434265137,1.6299619674682615,1.434320330619812,0.5015011429786682
3998491045.0,-0.5437121987342834,0.1121236905455589,9.799323081970217,1.608548283576965,1.7761422395706177,0.4434080123901367
3998499378.0,-0.5447921752929688,-0.1375950872898101,9.966559410095217,1.5696659088134766,1.3859606981277466,0.4766808748245239
3998507711.0,-0.5359684824943542,-0.2015202641487121,9.86523151397705,1.5659006834030151,0.7889183759689331,0.4461743533611297
3998516044.0,-0.5244727730751038,0.0303526725620031,9.754840850830078,1.800296425819397,1.078179955482483,0.4488126039505005
3998524377.0,-0.5043399333953857,0.204734206199646,9.77908706665039,1.646047592163086,1.4403141736984253,0.4424603283405304
3998532710.0,-0.4564928710460663,0.0542950965464115,9.86048698425293,1.6084716320037842,1.3537123203277588,0.3247628808021545
3998541043.0,-0.4758144617080688,-0.159874677658081,9.854166030883787,1.5470359325408936,0.8353186845779419,0.4041798412799835
3998549376.0,-0.4910396635532379,-0.0924962237477302,9.66187572479248,1.6562548875808716,1.025043249130249,0.5681109428405762
3998557709.0,-0.5352401733398438,0.1073973402380943,9.674196243286133,1.727129340171814,1.5896834135055542,0.5492844581604004
3998566042.0,-0.5651617050170898,0.1205218806862831,9.845980644226074,1.5838689804077148,1.70522940158844,0.6186990737915039
3998574375.0,-0.5804104208946228,-0.0505285821855068,9.970215797424316,1.506616473197937,1.0562158823013306,0.5075845122337341
3998582708.0,-0.5563620924949646,-0.1107845604419708,9.826017379760742,1.5667972564697266,0.7124600410461426,0.4698163270950317
3998591041.0,-0.5297394394874573,0.0421200357377529,9.671592712402344,1.5771454572677612,1.1194701194763184,0.5046260952949524
3998599374.0,-0.5127543210983276,0.0957404002547264,9.798337936401367,1.6411681175231934,1.5569995641708374,0.6438265442848206
3998607707.0,-0.4532048106193542,-0.0578421242535114,9.942856788635254,1.546894907951355,1.1955443620681765,0.4369019865989685
3998616040.0,-0.4152432084083557,-0.136676400899887,9.835101127624512,1.6104438304901123,0.6899706125259399,0.5122590661048889
3998624373.0,-0.4347716569900512,0.0253737270832061,9.66824436187744,1.6723405122756958,0.941131055355072,0.592034637928009
3998632706.0,-0.512344241142273,0.1812272369861602,9.641529083251951,1.6148111820220947,1.6419622898101809,0.5717481374740601
3998641039.0,-0.5510530471801758,-0.0241710841655731,9.854969024658203,1.511483073234558,1.6710853576660156,0.5159603357315063
3998649372.0,-0.553630530834198,-0.2433169037103653,9.98685073852539,1.5164010524749756,1.1390777826309204,0.528178334236145
3998657705.0,-0.5321036577224731,-0.1763162612915039,9.824671745300291,1.6833802461624146,0.6171877384185791,0.5097360014915466
3998666038.0,-0.5052164793014526,0.1334311217069625,9.68893337249756,1.7749639749526978,1.1871685981750488,0.488898903131485
3998674371.0,-0.4822620153427124,0.2418420910835266,9.7677001953125,1.6802042722702026,1.4977797269821167,0.5288442969322205
3998682704.0,-0.4206560552120209,0.0013887560926377,9.916080474853516,1.5256478786468506,1.0668456554412842,0.4885787069797516
3998691037.0,-0.4186125695705414,-0.2091767638921737,9.833807945251465,1.5712411403656006,0.6559677720069885,0.5095567107200623
3998699370.0,-0.4198717176914215,-0.0442170687019825,9.649662971496582,1.6685751676559448,1.093305230140686,0.5358881950378418
3998707703.0,-0.5038134455680847,0.1461724787950515,9.667315483093262,1.7513350248336792,1.7569957971572876,0.4541019797325134
3998716036.0,-0.5214487910270691,0.1087385416030883,9.90638542175293,1.6629531383514404,1.7346984148025513,0.5004253387451172
3998724369.0,-0.5307148694992065,-0.0797728821635246,9.955665588378906,1.5843429565429688,1.1215192079544067,0.4858251810073852
3998732702.0,-0.5171006917953491,-0.0885969400405883,9.746352195739746,1.5246360301971436,0.7604354023933411,0.4870033860206604
3998741035.0,-0.5068463683128357,0.0801894813776016,9.710858345031738,1.6188453435897827,1.2742058038711548,0.4945853054523468
3998749368.0,-0.4788193106651306,0.0929535925388336,9.80500602722168,1.6415393352508545,1.519769310951233,0.5266798138618469
3998757701.0,-0.4203042089939117,-0.0736073851585388,9.939617156982422,1.5348049402236938,1.1252589225769043,0.4906150698661804
3998766034.0,-0.4331206381320953,-0.1431435048580169,9.824898719787598,1.575493335723877,0.847562313079834,0.4504648149013519
3998774367.0,-0.4199650287628174,0.0623985640704631,9.660970687866213,1.5360984802246094,1.046226143836975,0.4477752447128296
3998782700.0,-0.5288007855415344,0.2068872898817062,9.683021545410156,1.6033871173858645,1.612223982810974,0.5052023530006409
3998791033.0,-0.5711405277252197,0.0142433336004614,9.921945571899414,1.4542354345321655,1.7635527849197388,0.437170922756195
3998799366.0,-0.5461020469665527,-0.2558578550815582,10.048309326171877,1.491504192352295,0.9698957204818726,0.4544605612754822
3998807699.0,-0.5331513285636902,-0.1939673721790313,9.84186553955078,1.746570706367493,0.7100650668144226,0.4898338615894317
3998816032.0,-0.5143110752105713,0.1437199711799621,9.66657829284668,1.803715705871582,1.1766538619995115,0.3623517453670501
3998824365.0,-0.5026294589042664,0.2382910847663879,9.776397705078123,1.5897860527038574,1.809940218925476,0.5155249238014221
3998832698.0,-0.4958885312080383,-0.0260300170630216,9.92236042022705,1.5444101095199585,1.2865517139434814,0.4242485463619232
3998841031.0,-0.4771270155906677,-0.2260894477367401,9.813408851623535,1.5242774486541748,0.6950934529304504,0.5369511842727661
3998849364.0,-0.4735451936721802,-0.0567937679588794,9.673712730407717,1.6527456045150757,0.8966646790504456,0.4372221529483795
3998857697.0,-0.5520169138908386,0.1617058664560318,9.63582706451416,1.6885545253753662,1.7523338794708252,0.5193414688110352
3998866030.0,-0.5586833953857422,0.1094804182648658,9.880244255065918,1.6707909107208252,1.805777788162232,0.4291921555995941
3998874363.0,-0.5808647871017456,-0.1037681177258491,9.964468955993652,1.465211033821106,0.9431160688400269,0.483289361000061
3998882696.0,-0.5442554950714111,-0.1064141988754272,9.803547859191896,1.5436161756515503,0.6194289922714233,0.4978382587432861
3998891029.0,-0.5445770025253296,0.0989168956875801,9.622612953186035,1.7612603902816772,1.227510929107666,0.6041886210441589
3998899362.0,-0.5095943212509155,0.1207156926393508,9.757081985473633,1.6510679721832275,1.5562952756881714,0.4647190272808075
3998907695.0,-0.4643263816833496,-0.0647437497973442,9.950155258178713,1.5751984119415283,1.102820873260498,0.5437133312225342
3998916028.0,-0.4427908360958099,-0.1832865476608276,9.846755981445312,1.5394797325134275,0.7237686514854431,0.4564585089683532
3998924361.0,-0.4465788304805755,0.0310438703745603,9.639638900756836,1.6800249814987185,0.9070385694503784,0.4893728196620941
3998932694.0,-0.5101199150085449,0.1867665946483612,9.62187957763672,1.6519004106521606,1.640066623687744,0.5164213180541992
3998941027.0,-0.5650800466537476,0.0321873873472213,9.868624687194824,1.5542460680007937,1.622661590576172,0.5361827611923218
3998949360.0,-0.5317575931549072,-0.2306558489799499,10.01700496673584,1.5294005870819092,1.034021019935608,0.4974285364151001
3998957693.0,-0.488848865032196,-0.1863446682691574,9.858156204223633,1.7978761196136477,0.5668814778327942,0.4054605364799499
3998966026.0,-0.4546143114566803,0.1580042988061905,9.671205520629885,1.7857987880706787,1.063912868499756,0.5587233304977417
3998974359.0,-0.4591796696186065,0.2684658467769623,9.742871284484863,1.6699455976486206,1.4795036315917969,0.5032172203063965
3998982692.0,-0.4288657009601593,-0.0064067998901009,9.89627456665039,1.5032227039337158,1.4269436597824097,0.4069589972496032
3998991025.0,-0.4143336415290832,-0.2350569814443588,9.86923599243164,1.4701417684555054,0.8254571557044983,0.5082760453224182
3998999358.0,-0.4135994613170624,-0.0796214118599891,9.69207000732422,1.7204184532165527,0.927657961845398,0.501129686832428
3999007691.0,-0.4626171290874481,0.1711418628692627,9.630558013916016,1.7063820362091064,1.5941916704177856,0.6099646687507629
3999016024.0,-0.5189329385757446,0.1475184112787246,9.881997108459473,1.61978018283844,1.836963415145874,0.5213137269020081
3999024357.0,-0.544495165348053,-0.0782136544585228,9.97350788116455,1.4236903190612793,1.1540749073028564,0.4888732433319092
3999032690.0,-0.5304874181747437,-0.1250668466091156,9.888239860534668,1.513391375541687,0.7708348035812378,0.4229166209697723
3999041023.0,-0.5262790322303772,0.0545666739344596,9.718354225158691,1.5304248332977295,1.194289207458496,0.544353723526001
3999049356.0,-0.4852850139141083,0.1243333220481872,9.736299514770508,1.6606990098953247,1.6110841035842896,0.5548299551010132
3999057689.0,-0.454435795545578,-0.025626640766859,9.920108795166016,1.5115342140197754,1.3153293132781982,0.4558949768543243
3999066022.0,-0.4524247348308563,-0.1728836148977279,9.897882461547852,1.541247010231018,0.9891577959060668,0.3921155631542206
3999074355.0,-0.4532417356967926,-0.0054181916639208,9.730621337890623,1.6942535638809204,1.0046159029006958,0.649474561214447
3999082688.0,-0.5158559679985046,0.1715047806501388,9.589143753051758,1.6803580522537231,1.705767273902893,0.5284857153892517
3999091021.0,-0.565784215927124,0.0677831247448921,9.796479225158691,1.5844323635101318,1.8230291604995728,0.5231835246086121
3999099354.0,-0.5753403306007385,-0.2113386243581771,10.009967803955078,1.4043515920639038,1.1736698150634766,0.489385575056076
3999107687.0,-0.557168185710907,-0.2254237532615661,9.93640422821045,1.7078546285629272,0.620120644569397,0.5219668745994568
3999116020.0,-0.5380604267120361,0.1055818274617195,9.70297908782959,1.8015260696411133,1.009328842163086,0.5106710195541382
3999124353.0,-0.5421122908592224,0.2790321707725525,9.66348361968994,1.7097501754760742,1.7092124223709106,0.5415873527526855
3999132686.0,-0.4990333914756775,0.070306971669197,9.825725555419922,1.549942970275879,1.3622417449951172,0.538718581199646
3999141019.0,-0.4654732942581177,-0.2170540541410446,9.881606101989746,1.4938862323760986,0.7713598608970642,0.4924463927745819
3999149352.0,-0.4551739692687988,-0.1106005311012268,9.750971794128418,1.7232744693756104,0.6691462397575378,0.4771419763565063
3999157685.0,-0.5039908289909363,0.1519542783498764,9.634920120239258,1.7421908378601074,1.498804211616516,0.5206990242004395
3999166018.0,-0.5107654333114624,0.2072376459836959,9.76515293121338,1.6919866800308228,1.9709768295288088,0.4748238623142242
3999174351.0,-0.56023770570755,-0.0136529030278325,9.941849708557127,1.4317843914031982,1.2703123092651367,0.4830332100391388
3999182684.0,-0.530533492565155,-0.1484715640544891,9.928332328796388,1.4624576568603516,0.5702881217002869,0.5335573554039001
3999191017.0,-0.4908334016799927,0.0293764434754848,9.72772979736328,1.535791039466858,0.9017106890678406,0.4738505184650421
3999199350.0,-0.4860261380672455,0.1556390523910522,9.672652244567873,1.6223413944244385,1.4376373291015625,0.4827642738819122
3999207683.0,-0.4662613570690155,0.0142312021926045,9.854125022888184,1.5359063148498535,1.456399917602539,0.4217895865440368
3999216016.0,-0.4647932052612304,-0.1653633862733841,9.931228637695312,1.3713222742080688,0.938774585723877,0.4190105199813843
3999224349.0,-0.4338201284408569,-0.0734645649790763,9.770855903625488,1.6001341342926023,0.6504607200622559,0.4121971130371094
3999232682.0,-0.4675161242485046,0.1599727272987365,9.636748313903809,1.660622239112854,1.3888039588928225,0.4857227802276611
3999241015.0,-0.5157216191291809,0.1123582795262336,9.766706466674805,1.5740203857421875,1.7648465633392334,0.3996333181858063
3999249348.0,-0.5213384032249451,-0.1526568084955215,9.985291481018066,1.4234600067138672,1.380197525024414,0.4864399433135986
3999257681.0,-0.5038341879844666,-0.2916836440563202,10.019246101379396,1.6322672367095947,0.6896121501922607,0.4635408222675323
3999266014.0,-0.4614415466785431,-0.0184346064925193,9.761083602905272,1.6609036922454834,1.0010298490524292,0.5027561783790588
3999274347.0,-0.4838767349720001,0.2419546097517013,9.63417625427246,1.6163477897644043,1.5127894878387451,0.5180606842041016
3999282680.0,-0.4747500717639923,0.1445425748825073,9.793161392211914,1.5988662242889404,1.6790900230407717,0.5469664335250854
3999291013.0,-0.4708286225795746,-0.1866951882839203,9.940288543701172,1.3596292734146118,1.0934717655181885,0.530189037322998
3999299346.0,-0.4453617930412292,-0.2429411262273788,9.850281715393066,1.5585875511169434,0.7057873606681824,0.526077926158905
3999307679.0,-0.4642685651779175,0.0168643426150083,9.667658805847168,1.716883659362793,1.1408706903457642,0.5147820711135864
3999316012.0,-0.5230708718299866,0.1770461797714233,9.667706489562988,1.5707801580429075,1.817573308944702,0.5552269816398621
3999324345.0,-0.5450665354728699,0.0333860628306865,9.887246131896973,1.5182709693908691,1.6907061338424685,0.584632158279419
3999332678.0,-0.5701923370361328,-0.1745306849479675,9.992633819580078,1.4530314207077026,0.8682329058647156,0.590958833694458
3999341011.0,-0.5213617086410522,-0.0774584487080574,9.77792263031006,1.6403099298477173,0.7088738679885864,0.6210939288139343
3999349344.0,-0.5224795937538147,0.1253954619169235,9.62915325164795,1.6824196577072144,1.2654199600219729,0.5667917728424072
3999357677.0,-0.5116888284683228,0.0803849101066589,9.7722806930542,1.4877771139144895,1.6259660720825195,0.4528340697288513
3999366010.0,-0.4837793707847595,-0.1088204830884933,9.934343338012695,1.5689873695373535,1.1743488311767578,0.4627596139907837
3999374343.0,-0.4654833674430847,-0.1567858457565307,9.87147045135498,1.5207043886184692,0.7303258180618286,0.5293821692466736
3999382676.0,-0.4617136120796203,0.0683233514428138,9.665533065795898,1.5912843942642212,1.0497993230819702,0.5610029101371765
3999391009.0,-0.548658013343811,0.1892308741807937,9.61687183380127,1.5740073919296265,1.6420387029647827,0.5570967793464661
3999399342.0,-0.5530988574028015,-0.0159785710275173,9.88686466217041,1.560944437980652,1.6241346597671509,0.534684419631958
3999407675.0,-0.5697025656700134,-0.2343732565641403,10.029521942138672,1.6296416521072388,1.0675371885299685,0.4791269898414612
3999416008.0,-0.5080463886260986,-0.1752099096775055,9.8463134765625,1.7625025510787964,0.6837592124938965,0.4995672404766083
3999424341.0,-0.5089614391326904,0.155390664935112,9.641778945922852,1.73741352558136,1.1366828680038452,0.5768837332725525
3999432674.0,-0.5131834149360657,0.2316091805696487,9.674997329711914,1.6616082191467283,1.6923964023590088,0.3518243432044983
3999441007.0,-0.4775035083293915,0.0184398908168077,9.896292686462402,1.443630933761597,1.3658149242401123,0.4798186719417572
3999449340.0,-0.4500746428966522,-0.2447089105844497,9.936244010925291,1.505745768547058,0.8107545971870422,0.4535897076129913
3999457673.0,-0.4069184958934784,-0.0948638021945953,9.710758209228516,1.6489291191101074,0.8153907060623169,0.4854024946689605
3999466006.0,-0.4646488130092621,0.1380005478858947,9.634541511535645,1.778806209564209,1.536341905593872,0.4688173532485962
3999474339.0,-0.537614643573761,0.1715055257081985,9.778326034545898,1.6473156213760376,1.7934192419052124,0.5287418365478516
3999482672.0,-0.5706903338432312,-0.0596373341977596,10.014373779296877,1.493130445480347,1.279738426208496,0.4675109684467315
3999491005.0,-0.5033769011497498,-0.1706460416316986,9.978042602539062,1.5108299255371094,0.6481937766075134,0.494431585073471
3999499338.0,-0.4484103918075561,-0.0050028720870614,9.69589614868164,1.7005033493041992,0.8524160981178284,0.5496558547019958
3999507671.0,-0.4637525677680969,0.1455905586481094,9.669754028320312,1.6086379289627075,1.5676807165145874,0.4849157929420471
3999516004.0,-0.4737320840358734,0.04766646027565,9.85689640045166,1.5786693096160889,1.563172698020935,0.4047177135944366
3999524337.0,-0.4655326604843139,-0.1165379881858825,9.976296424865724,1.4640583992004397,1.0889891386032104,0.4839297533035278
3999532670.0,-0.423965573310852,-0.0821483284235,9.816360473632812,1.599275827407837,0.7620747089385986,0.5500144362449646
3999541003.0,-0.4189201593399048,0.1338168978691101,9.577068328857422,1.6703554391860962,1.2394214868545532,0.4653594195842743
3999549336.0,-0.5200862884521484,0.1482467502355575,9.69624137878418,1.4415050745010376,1.6417315006256104,0.4531030058860779
3999557669.0,-0.5451362729072571,-0.0911385342478752,9.997188568115234,1.4384570121765137,1.5004433393478394,0.4772572219371795
3999566002.0,-0.566531240940094,-0.2279085367918014,10.071700096130373,1.6181281805038452,0.9596374034881592,0.5062142014503479
3999574335.0,-0.4999425113201141,-0.0831491574645042,9.75606632232666,1.7415118217468262,0.7754453420639038,0.4990164637565613
3999582668.0,-0.4896136522293091,0.222302958369255,9.631098747253418,1.6389012336730957,1.2472339868545532,0.4605695903301239
3999591001.0,-0.505916178226471,0.194383755326271,9.748220443725586,1.5626604557037354,1.4638919830322266,0.4604286551475525
3999599334.0,-0.4814462959766388,-0.0718514621257782,9.97281265258789,1.3913267850875854,1.2215300798416138,0.556020975112915
3999607667.0,-0.4600999057292938,-0.2338254749774933,9.863139152526855,1.4944242238998413,0.8110362887382507,0.6486932635307312
3999616000.0,-0.4614168703556061,-0.0414223857223987,9.637693405151367,1.740563988685608,1.0847115516662598,0.5160756707191467
3999624333.0,-0.5297712087631226,0.1908568739891052,9.627963066101074,1.673019289970398,1.5942299365997314,0.4629772901535034
3999632666.0,-0.5573439598083496,0.1178179085254669,9.89943027496338,1.4955639839172363,1.793380618095398,0.5473762154579163
3999640999.0,-0.5751606225967407,-0.1072060987353324,10.009377479553224,1.4719091653823853,1.131444811820984,0.5480549931526184
3999649332.0,-0.5516344308853149,-0.1783756464719772,9.81427001953125,1.481207251548767,0.8130342364311218,0.4745933413505554
3999657665.0,-0.4783219695091247,0.0367639847099781,9.65715503692627,1.6944456100463867,1.1544976234436035,0.5185985565185547
3999665998.0,-0.499403715133667,0.0892244502902031,9.670195579528809,1.6659752130508425,1.4468456506729126,0.5664844512939453
3999674331.0,-0.4602061510086059,-0.0333691164851188,9.96263313293457,1.6259914636611938,1.2029211521148682,0.4264769852161407
3999682664.0,-0.4626964330673218,-0.2032778710126876,9.963380813598633,1.5109835863113403,0.9513894319534302,0.4671523869037628
3999690997.0,-0.4535321593284607,-0.0473165772855281,9.711620330810549,1.6130563020706177,0.9476754069328308,0.5795220136642456
3999699330.0,-0.475587248802185,0.1904729306697845,9.60231876373291,1.5800139904022217,1.5043752193450928,0.6280097961425781
3999707663.0,-0.5664242506027222,0.0745986551046371,9.802959442138672,1.613415002822876,1.5338315963745115,0.5971958637237549
3999715996.0,-0.5293992757797241,-0.202369675040245,10.052168846130373,1.5472406148910522,1.1100568771362305,0.5002331137657166
3999724329.0,-0.5338945388793945,-0.259862869977951,9.896939277648926,1.6550508737564087,0.8013029098510742,0.5404219031333923
3999732662.0,-0.5137118697166443,0.0379106551408767,9.66541862487793,1.825539469718933,1.176628351211548,0.6575815081596375
3999740995.0,-0.4925525486469269,0.3087911307811737,9.676230430603027,1.749336838722229,1.5863022804260254,0.4771035611629486
3999749328.0,-0.4824486672878265,0.1258551329374313,9.876444816589355,1.5118929147720337,1.32521653175354,0.4600956439971924
3999757661.0,-0.405288815498352,-0.2180282473564148,9.953536987304688,1.5573326349258425,0.7623180150985718,0.5569943189620972
3999765994.0,-0.4323319792747497,-0.2109941244125366,9.76582145690918,1.5898882150650024,0.881014347076416,0.5114521980285645
3999774327.0,-0.4757706224918365,0.11222705245018,9.641042709350586,1.7675230503082275,1.511969804763794,0.5024872422218323
3999782660.0,-0.5223369002342224,0.2113337814807891,9.790970802307127,1.722839117050171,1.6809855699539185,0.4982737302780151
3999790993.0,-0.543158233165741,0.0132186645641922,9.983040809631348,1.43747079372406,1.322053074836731,0.45437091588974
3999799326.0,-0.5424292683601379,-0.1511475443840026,9.899585723876951,1.4413001537322998,0.8829098343849182,0.4900386929512024
3999807659.0,-0.5150278806686401,0.0016960001084953,9.70751953125,1.5058993101119995,1.0812665224075315,0.5192902088165283
3999815992.0,-0.5336712002754211,0.1325911283493042,9.665401458740234,1.6850581169128418,1.6728914976119995,0.464283674955368
3999824325.0,-0.4824385941028595,0.0251378696411848,9.89085578918457,1.6354175806045532,1.461573839187622,0.4824697375297546
3999832658.0,-0.4404361546039581,-0.1802224218845367,9.95864963531494,1.5990712642669678,0.6143574714660645,0.4925105273723602
3999840991.0,-0.410959392786026,-0.1039557829499244,9.753341674804688,1.6968533992767334,0.861701250076294,0.472262442111969
3999849324.0,-0.4824430048465729,0.1973766237497329,9.571803092956545,1.6645793914794922,1.556973934173584,0.50177001953125
3999857657.0,-0.5359100699424744,0.156172513961792,9.746450424194336,1.5156071186065674,1.79715895652771,0.4769498705863952
3999865990.0,-0.5149874091148376,-0.122044138610363,9.991206169128418,1.479926347732544,1.2853095531463623,0.4262592792510986
3999874323.0,-0.5137060284614563,-0.2911409437656402,9.914069175720217,1.5989301204681396,0.6732573509216309,0.5124255418777466
3999882656.0,-0.5257467031478882,0.0120565798133611,9.699504852294922,1.8063541650772093,0.9971749782562256,0.3830224573612213
3999890989.0,-0.5549556016921997,0.2887996435165405,9.658088684082031,1.7142199277877808,1.6441394090652466,0.5892939567565918
3999899322.0,-0.5096921920776367,0.1349688172340393,9.876962661743164,1.462611198425293,1.4510079622268677,0.5578652024269104
3999907655.0,-0.4512299597263336,-0.1774691939353943,9.899842262268066,1.3613325357437134,0.6408809423446655,0.4759508967399597
3999915988.0,-0.4213024377822876,-0.1903872191905975,9.785161018371582,1.5192826986312866,0.4889244735240936,0.5025513172149658
3999924321.0,-0.4555444717407226,0.1195058375597,9.602956771850586,1.7936112880706787,1.421513319015503,0.5256553888320923
3999932654.0,-0.5033206343650818,0.1646556556224823,9.713375091552734,1.582550048828125,1.9096438884735107,0.4532951712608337
3999940987.0,-0.5177068114280701,-0.0092520704492926,9.90422534942627,1.4758539199829102,1.4530571699142456,0.4462383687496185
3999949320.0,-0.5626567006111145,-0.1406748294830322,9.97897243499756,1.3548139333724976,0.7679916620254517,0.4930996298789978
3999957653.0,-0.5889817476272583,0.0078466711565852,9.78660488128662,1.5931541919708252,1.009687423706055,0.4820598661899566
3999965986.0,-0.5588913559913635,0.1232463493943214,9.700270652770996,1.6738135814666748,1.6310888528823853,0.5512439608573914
3999974319.0,-0.461155891418457,-0.042540892958641,9.8427095413208,1.4995981454849243,1.4426064491271973,0.5786383748054504
3999982652.0,-0.4190279543399811,-0.1629577130079269,9.861358642578123,1.4916833639144895,0.7653149366378784,0.5406011343002319
3999990985.0,-0.4443510174751282,-0.0116383768618106,9.786063194274902,1.601491928100586,0.6788413524627686,0.5013603568077087
3999999318.0,-0.5065730810165405,0.1768066138029098,9.644248962402344,1.5512363910675049,1.5239830017089844,0.5241312980651855
4000007651.0,-0.5130355358123779,0.0206515211611986,9.79449462890625,1.5970730781555176,1.762797236442566,0.4504519402980804
4000015984.0,-0.5097900032997131,-0.2262928783893585,9.942662239074709,1.5189368724822998,1.1362860202789309,0.545134961605072
4000024317.0,-0.5199744701385498,-0.1895195096731186,9.864126205444336,1.6628634929656982,0.6483603715896606,0.4800492227077484
4000032650.0,-0.5357308387756348,0.0939419567584991,9.765198707580566,1.7192658185958862,1.2075445652008057,0.5503858327865601
4000040983.0,-0.4855413436889648,0.1732939332723617,9.79358959197998,1.6643105745315552,1.6372106075286863,0.5761410593986511
4000049316.0,-0.3947600424289703,-0.0307894367724657,9.788493156433104,1.5248920917510986,1.3042254447937012,0.548733651638031
4000057649.0,-0.4055671393871307,-0.1502950340509414,9.735868453979492,1.539287567138672,0.7529047727584839,0.4747598469257355
4000065982.0,-0.4788702130317688,-0.0260583255439996,9.763168334960938,1.6420515775680542,1.112195611000061,0.5192261338233948
4000074315.0,-0.5095034241676331,0.1100494191050529,9.800071716308594,1.591745376586914,1.7225061655044556,0.5239392518997192
4000082648.0,-0.5169626474380493,0.0300214830785989,9.879997253417969,1.5800142288208008,1.664336323738098,0.5277301073074341
4000090981.0,-0.5517048835754395,-0.0807050392031669,9.82524299621582,1.5951775312423706,0.9789503216743468,0.4896416962146759
4000099314.0,-0.5559490323066711,-0.0040326700545847,9.740032196044922,1.5329607725143433,0.8531076312065125,0.4492736756801605
4000107647.0,-0.5422338843345642,0.0658545419573783,9.805706977844238,1.5485341548919678,1.301305651664734,0.5053176879882812
4000115980.0,-0.4206337928771972,-0.0249898172914981,9.866044998168944,1.5061427354812622,1.3648802042007446,0.4676903188228607
4000124313.0,-0.3848292827606201,-0.1247295066714286,9.778434753417969,1.5876216888427734,0.9289259314537048,0.5092878937721252
4000132646.0,-0.4465106427669525,-0.0235810074955225,9.682933807373049,1.5855211019515991,0.8574109077453613,0.4141053259372711
4000140979.0,-0.5159311890602112,0.1374440193176269,9.76435375213623,1.654654026031494,1.5112910270690918,0.5034733414649963
4000149312.0,-0.5196225047111511,0.0744805335998535,9.85983943939209,1.6445491313934326,1.650312423706055,0.6298925280570984
4000157645.0,-0.5383256673812866,-0.1477626264095306,9.874615669250488,1.547765612602234,1.1821480989456177,0.5271153450012207
4000165978.0,-0.5694864392280579,-0.1382094919681549,9.765447616577148,1.6120316982269287,0.9866858124732972,0.4323170483112335
4000174311.0,-0.5464405417442322,0.038171149790287,9.797378540039062,1.7262715101242063,1.2284075021743774,0.4804206192493438
4000182644.0,-0.4947990775108337,0.1633109599351883,9.890199661254885,1.6723660230636597,1.3215023279190063,0.4096868634223938
4000190977.0,-0.4147953987121582,0.0126142194494605,9.87695598602295,1.4810534715652466,1.1774479150772097,0.4685739874839782
4000199310.0,-0.4240111410617828,-0.0961889773607254,9.692840576171877,1.5978927612304688,0.9226759672164916,0.3176165223121643
4000207643.0,-0.4943552017211914,0.0140366470441222,9.660436630249023,1.6383631229400637,1.2225929498672483,0.4887964129447937
4000215976.0,-0.5103092789649963,0.1035695970058441,9.79320240020752,1.583689570426941,1.5921679735183716,0.4246199429035187
4000224309.0,-0.4937710464000702,-0.0042434018105268,9.949406623840332,1.520473837852478,1.393632173538208,0.571850597858429
4000232642.0,-0.5588685870170593,-0.0906997099518776,9.864307403564451,1.5450377464294434,1.0407191514968872,0.4066900014877319
4000240975.0,-0.5813829302787781,0.0232420247048139,9.714823722839355,1.657868504524231,1.1538571119308472,0.4130167067050934
4000249308.0,-0.5633725523948669,0.1412251591682434,9.805049896240234,1.57389235496521,1.3651875257492063,0.4769370257854461
4000257641.0,-0.4893758594989776,0.0114804515615105,9.90866756439209,1.4994444847106934,1.2069042921066284,0.3177317678928375
4000265974.0,-0.4440838098526001,-0.1220461428165435,9.880330085754396,1.5251866579055786,0.7962056994438171,0.4389639496803283
4000274307.0,-0.4338424205780029,-0.0570612251758575,9.692388534545898,1.6313579082489014,0.9949467182159424,0.4969033598899841
4000282640.0,-0.4762066304683685,0.1336370855569839,9.651063919067385,1.7443166971206665,1.400829792022705,0.6206713318824768
4000290973.0,-0.5300219058990479,0.0565525777637958,9.852798461914062,1.5854185819625854,1.5933592319488523,0.5822115540504456
4000299306.0,-0.525589644908905,-0.1485481113195419,9.972711563110352,1.5491745471954346,1.1955188512802124,0.5875905752182007
4000307639.0,-0.5526923537254333,-0.1345061659812927,9.845196723937988,1.698274850845337,0.8972665667533875,0.5488105416297913
4000315972.0,-0.5415470004081726,0.1097389385104179,9.700555801391602,1.7088152170181274,1.115820050239563,0.5586848855018616
4000324305.0,-0.5013952255249023,0.13880355656147,9.781323432922363,1.5244823694229126,1.3732558488845823,0.4837504625320434
4000332638.0,-0.4419447779655456,-0.0817623063921928,9.920443534851074,1.495102882385254,1.1437782049179075,0.5019878149032593
4000340971.0,-0.4160259664058685,-0.141097143292427,9.828696250915527,1.6521308422088623,1.0334959030151367,0.5698014497756958
4000349304.0,-0.4833558201789856,0.0237027276307344,9.632710456848145,1.712401270866394,1.0448687076568604,0.5131940245628357
4000357637.0,-0.5134680271148682,0.1479780673980713,9.672965049743652,1.5654523372650146,1.7270523309707642,0.412837415933609
4000365970.0,-0.5180785059928894,-0.0045681442134082,9.919547080993652,1.5076665878295898,1.4379959106445312,0.4554851055145263
4000374303.0,-0.5238849520683289,-0.090155616402626,9.946977615356444,1.4946545362472534,1.008880615234375,0.5715687870979309
4000382636.0,-0.5643209218978882,0.0069783856160938,9.745047569274902,1.5834461450576782,1.0566127300262451,0.5152302384376526
4000390969.0,-0.5309078097343445,0.0863865911960601,9.772530555725098,1.5531446933746338,1.632625699043274,0.4939192235469818
4000399302.0,-0.4525116682052612,-0.0216173958033323,9.885947227478027,1.5039397478103638,1.318723440170288,0.440616101026535
4000407635.0,-0.4103413820266723,-0.1189544424414634,9.87052059173584,1.6089707612991333,0.8317069411277771,0.4604542851448059
4000415968.0,-0.4444775283336639,0.025043785572052,9.712899208068848,1.7297931909561155,0.9465100169181824,0.5649859309196472
4000424301.0,-0.4620935022830963,0.1526432335376739,9.695134162902832,1.7162048816680908,1.4481008052825928,0.4797802269458771
4000432634.0,-0.4810931086540222,-0.0234175641089677,9.804203033447266,1.609355092048645,1.5389928817749023,0.5033836960792542
4000440967.0,-0.526226818561554,-0.1865191310644149,9.888785362243652,1.5184247493743896,1.1606452465057373,0.4477496445178985
4000449300.0,-0.5821057558059692,-0.0755539834499359,9.81230354309082,1.6785392761230469,0.9574729800224304,0.4566121995449066
4000457633.0,-0.5668149590492249,0.0935004949569702,9.78813362121582,1.7040510177612305,1.3287256956100464,0.5500784516334534
4000465966.0,-0.4861508905887604,0.1101249158382415,9.856223106384276,1.6261452436447144,1.485804796218872,0.4919982254505157
4000474299.0,-0.4614080488681793,-0.0823118686676025,9.87862491607666,1.49853515625,0.9957020878791808,0.610515296459198
4000482632.0,-0.4568964838981628,-0.1043115481734275,9.773274421691896,1.5786821842193604,0.8766215443611145,0.511669933795929
4000490965.0,-0.480956882238388,0.0505121387541294,9.67959213256836,1.6078310012817385,1.176769137382507,0.3931016325950622
4000499298.0,-0.5044191479682922,0.1022421196103096,9.811129570007324,1.592206597328186,1.5322178602218628,0.474298745393753
4000507631.0,-0.5155296325683594,-0.0252463370561599,9.892980575561523,1.5609313249588013,1.31298565864563,0.5131043791770935
4000515964.0,-0.5462109446525574,-0.0711114630103111,9.821698188781738,1.6181024312973022,0.8925536870956421,0.4374399483203888
4000524297.0,-0.5779109001159668,0.0469753667712211,9.732409477233888,1.645893931388855,1.2035874128341677,0.5384368300437927
4000532630.0,-0.569163978099823,0.0630328878760337,9.809684753417969,1.636237382888794,1.3950026035308838,0.5516025424003601
4000540963.0,-0.4696844518184662,-0.0537421591579914,9.938241004943848,1.5599709749221802,1.1878730058670044,0.5133477449417114
4000549296.0,-0.4169321954250335,-0.0989271700382232,9.83127784729004,1.648352861404419,0.8088206648826599,0.4871058762073517
4000557629.0,-0.4501452147960663,0.0543507151305675,9.639244079589844,1.6657447814941406,1.151897668838501,0.5422020554542542
4000565962.0,-0.48973149061203,0.1297268867492675,9.699878692626951,1.5374687910079956,1.5744813680648804,0.538718581199646
4000574295.0,-0.4977010786533355,-0.032848410308361,9.970664024353027,1.6028108596801758,1.5735081434249878,0.5335189700126648
4000582628.0,-0.525123655796051,-0.1855867356061935,9.914643287658691,1.5603169202804563,1.0281811952590942,0.4959940910339355
4000590961.0,-0.5691688656806946,-0.0472396463155746,9.730682373046877,1.5885179042816162,0.975261926651001,0.4723264873027801
4000599294.0,-0.5638876557350159,0.1591272801160812,9.81700611114502,1.7008106708526611,1.2212098836898804,0.5053688287734985
4000607627.0,-0.4415702819824219,0.0824327394366264,9.899699211120604,1.6432043313980105,1.4238184690475464,0.4113133549690246
4000615960.0,-0.4069718718528747,-0.0983014181256294,9.875216484069824,1.5492514371871948,0.7654045224189758,0.4527059495449066
4000624293.0,-0.4740172624588012,-0.0836310759186744,9.683321952819824,1.6243138313293457,0.9281702041625975,0.5328400731086731
4000632626.0,-0.4517322182655334,0.1123480051755905,9.681795120239258,1.7519495487213137,1.4695016145706177,0.5339671969413757
4000640959.0,-0.4577862024307251,0.0750893354415893,9.842719078063965,1.6092015504837036,1.5772861242294312,0.4992342293262481
4000649292.0,-0.5294806361198425,-0.0721886977553367,9.862506866455078,1.4823085069656372,1.1969916820526123,0.5017699599266052
4000657625.0,-0.5681714415550232,-0.0432994849979877,9.82050609588623,1.577491283416748,0.9396198391914368,0.4299989938735962
4000665958.0,-0.5728760361671448,0.0863108411431312,9.793938636779783,1.6578302383422852,1.2719005346298218,0.5116187334060669
4000674291.0,-0.5225802659988403,0.062946893274784,9.771105766296388,1.5962532758712769,1.4435670375823977,0.5833129286766052
4000682624.0,-0.4788609743118286,-0.100758671760559,9.865809440612791,1.438328981399536,1.096506953239441,0.5382190942764282
4000690957.0,-0.4230981767177582,-0.0883962363004684,9.896145820617676,1.563300848007202,0.8659275770187378,0.5301250219345093
4000699290.0,-0.4101658761501312,0.1099532842636108,9.67409324645996,1.63038432598114,1.1120034456253052,0.4977229237556457
4000707623.0,-0.4698351919651031,0.0975691899657249,9.629854202270508,1.5950496196746826,1.6037328243255615,0.5683286786079407
4000715956.0,-0.478774756193161,-0.1123814508318901,9.886270523071287,1.5102152824401855,1.426098108291626,0.4668962657451629
4000724289.0,-0.501410722732544,-0.1913968324661255,9.948354721069336,1.6274006366729736,0.9757999777793884,0.4188440144062042
4000732622.0,-0.5487494468688965,-0.0226359572261571,9.735441207885742,1.650338053703308,0.8891085982322693,0.5062781572341919
4000740955.0,-0.5560901165008545,0.1463184058666229,9.717793464660645,1.6925759315490725,1.5784132480621338,0.5368359088897705
4000749288.0,-0.4916436374187469,0.041314274072647,9.948423385620115,1.5948574542999268,1.3899692296981812,0.4535128176212311
4000757621.0,-0.4393696784973144,-0.1104731485247612,9.868241310119627,1.537981033325195,0.7728838920593262,0.5030122995376587
4000765954.0,-0.4814846515655517,-0.0699750632047653,9.6419038772583,1.6441649198532104,0.9265052676200868,0.5302530527114868
4000774287.0,-0.4828055500984192,0.1101346760988235,9.71635627746582,1.574020266532898,1.6259915828704834,0.5153583884239197
4000782620.0,-0.4776139855384826,0.032532475888729,9.881041526794434,1.6058586835861206,1.4764556884765625,0.5322125554084778
4000790953.0,-0.5005925297737122,-0.0978005453944206,9.891160011291504,1.643985629081726,0.9904384016990662,0.5084041357040405
4000799286.0,-0.5728055834770203,-0.0141453323885798,9.755023956298828,1.51960289478302,1.1363884210586548,0.527973473072052
4000807619.0,-0.5679401755332947,0.1130692437291145,9.836089134216309,1.539991855621338,1.5015705823898315,0.5831208229064941
4000815952.0,-0.5076113939285278,0.0537443272769451,9.865251541137695,1.5361241102218628,1.3098479509353638,0.4853000938892364
4000824285.0,-0.4513294994831085,-0.1472235769033432,9.822260856628418,1.566809892654419,0.9949209094047546,0.5903953313827515
4000832618.0,-0.4482462704181671,-0.0703928843140602,9.732088088989258,1.5944476127624512,0.9673087000846864,0.5836331248283386
4000840951.0,-0.4367701411247253,0.1050182729959487,9.717440605163574,1.732380509376526,1.1836978197097778,0.5477988123893738
4000849284.0,-0.4824230074882507,0.0720258429646492,9.745046615600586,1.655115008354187,1.5539898872375488,0.5699167251586914
4000857617.0,-0.5320723652839661,-0.1159101128578186,9.85623550415039,1.5186166763305664,1.4610871076583862,0.3925381600856781
4000865950.0,-0.5494662523269653,-0.1441423147916793,9.866016387939451,1.6211888790130615,1.0748116970062256,0.5735155344009399
4000874283.0,-0.5769249796867371,0.037178412079811,9.75644588470459,1.6807420253753662,1.1527045965194702,0.509710431098938
4000882616.0,-0.5445665717124939,0.1125809326767921,9.795246124267578,1.6012612581253052,1.3431464433670044,0.5689305663108826
4000890949.0,-0.4549067616462707,-0.0284040793776512,9.937525749206545,1.5704214572906494,1.1864386796951294,0.4998745918273926
4000899282.0,-0.3831110596656799,-0.1334169656038284,9.825252532958984,1.6263885498046875,0.720694899559021,0.5087114572525024
4000907615.0,-0.4467610418796539,-0.0130619257688522,9.588448524475098,1.7409610748291016,0.87909334897995,0.4650135934352875
4000915948.0,-0.46048504114151,0.1160302758216857,9.720867156982422,1.6441009044647217,1.69468891620636,0.4487357437610626
4000924281.0,-0.4567074477672577,0.0387694984674453,9.961495399475098,1.589171051979065,1.6095600128173828,0.4745677411556244
4000932614.0,-0.5206120610237122,-0.0991524159908294,9.855856895446776,1.5818198919296265,1.198195457458496,0.42308309674263
4000940947.0,-0.6123753190040588,-0.0010546036064624,9.704763412475586,1.5513389110565186,1.0831105709075928,0.4851720333099365
4000949280.0,-0.5902336239814758,0.1202287375926971,9.79554843902588,1.7022196054458618,1.3926459550857544,0.4874388575553894
4000957613.0,-0.504120945930481,0.0009094434790313,9.887701034545898,1.5926930904388428,1.283913493156433,0.4888220131397247
4000965946.0,-0.4568248391151428,-0.1263881176710128,9.859442710876465,1.5302839279174805,0.8093201518058777,0.4430109858512878
4000974279.0,-0.4251636564731598,-0.0075917849317193,9.737462043762209,1.646354913711548,0.8639168739318848,0.5073667168617249
4000982612.0,-0.4181956350803375,0.1269965767860412,9.67541217803955,1.5941017866134644,1.3473856449127195,0.5450965166091919
4000990945.0,-0.4564783573150635,0.0148436008021235,9.768667221069336,1.5727012157440186,1.5312317609786987,0.5650115609169006
4000999278.0,-0.4816654622554779,-0.1726396828889846,9.87093734741211,1.4690659046173096,1.2063920497894287,0.4224684238433838
4001007611.0,-0.5219401717185974,-0.0690700709819793,9.834370613098145,1.6824452877044678,0.9213183522224426,0.5586464405059814
4001015944.0,-0.5636172294616699,0.1012943983078002,9.698636054992676,1.7341220378875732,1.29604172706604,0.5012834072113037
4001024277.0,-0.5340090990066528,0.1245077028870582,9.802862167358398,1.5918349027633667,1.4628928899765017,0.5867069363594055
4001032610.0,-0.4841251671314239,-0.044393241405487,9.934383392333984,1.3932605981826782,1.25192129611969,0.5208141803741455
4001040943.0,-0.4517681002616882,-0.1123290359973907,9.783344268798828,1.641693115234375,0.6851295232772827,0.5055737495422363
4001049276.0,-0.509730339050293,0.0023874680045992,9.629173278808594,1.6353024244308472,1.121531963348389,0.5095311403274536
4001057609.0,-0.4835164546966553,0.1125824153423309,9.780230522155762,1.6049238443374634,1.50833261013031,0.4463408291339874
4001065942.0,-0.4455128312110901,0.0079157687723636,9.9157133102417,1.6625174283981323,1.2453128099441528,0.4762710630893707
4001074275.0,-0.5185635685920715,-0.0803727135062217,9.808122634887695,1.5455886125564575,0.9211134314537048,0.4644116759300232
4001082608.0,-0.5677714347839355,0.0616848655045032,9.720499038696287,1.6410529613494873,1.2511273622512815,0.5844656229019165
4001090941.0,-0.5470377206802368,0.1002741083502769,9.821796417236328,1.5439234972000122,1.632318377494812,0.5431241989135742
4001099274.0,-0.4845494031906128,-0.048747569322586,9.897533416748049,1.5889276266098022,1.1972349882125854,0.5122333765029907
4001107607.0,-0.4493380188941955,-0.1529587060213089,9.81886863708496,1.5408754348754885,1.0064857006072998,0.4317279160022735
4001115940.0,-0.4459506869316101,0.0400234572589397,9.729365348815918,1.6073187589645386,0.9973414540290833,0.550629198551178
4001124273.0,-0.4370796680450439,0.1551356613636016,9.678511619567873,1.4834738969802856,1.3381898403167725,0.4807791113853454
4001132606.0,-0.4995108842849731,-0.0340731106698513,9.78697109222412,1.466222882270813,1.72651469707489,0.4083805382251739
4001140939.0,-0.5172981023788452,-0.2014844566583633,9.921514511108398,1.5670790672302246,1.2271013259887695,0.5105941891670227
