SampleTimeFine,Acc_X,Acc_Y,Acc_Z,Gyr_X,Gyr_Y,Gyr_Z
4199155186.0,0.0,0.0,0.0,0.0,0.0,0.0
4199163519.0,-0.4220631718635559,-0.0672357678413391,10.324413299560549,2.226017951965332,0.1247797533869743,1.1705065965652466
4199171852.0,-0.4395962357521057,0.1699429303407669,9.944646835327148,2.3369786739349365,1.0092391967773438,1.2236816883087158
4199180185.0,-0.4298015534877777,0.0864864066243171,9.463085174560549,2.055196523666382,0.7664163112640381,1.2118990421295166
4199188518.0,-0.3897154033184051,-0.2136460393667221,9.737309455871582,1.9324276447296145,0.0998827144503593,1.081599473953247
4199196851.0,-0.388152003288269,-0.2490819096565246,10.2107515335083,1.965367317199707,0.199547678232193,1.1577762365341189
4199205184.0,-0.4529330134391784,0.0573305487632751,10.122291564941406,2.3060109615325928,0.7651868462562561,1.2398698329925537
4199213517.0,-0.5270516872406006,0.1576398462057113,9.641377449035645,2.308521032333374,1.0083682537078855,1.1513725519180298
4199221850.0,-0.5143190026283264,-0.0663782879710197,9.642279624938965,1.917724847793579,0.3067944943904876,1.1458144187927246
4199230183.0,-0.4876556098461151,-0.223615825176239,10.101887702941896,1.889037013053894,0.0622041672468185,1.1249643564224243
4199238516.0,-0.4709949195384979,-0.0785536766052246,10.183069229125977,2.284674644470215,0.513911247253418,1.19005024433136
4199246849.0,-0.5046510100364685,0.0820266008377075,9.757976531982422,2.283291339874268,0.8095762729644775,1.231135368347168
4199255182.0,-0.4330135285854339,-0.0460209250450134,9.548336029052734,1.9428268671035769,0.4612996280193329,1.1912028789520264
4199263515.0,-0.375811219215393,-0.194442018866539,9.952061653137209,1.868596792221069,-0.0649320781230926,1.180444836616516
4199271848.0,-0.4242367446422577,-0.1167755722999572,10.248892784118652,2.01326584815979,0.391936182975769,1.2606428861618042
4199280181.0,-0.5401437878608704,0.0213958024978637,9.939301490783691,2.167258977890014,0.983573853969574,1.3883044719696045
4199288514.0,-0.564469039440155,-0.090125486254692,9.55383586883545,1.981478929519653,0.7560425996780396,1.2864623069763184
4199296847.0,-0.530145525932312,-0.3191641867160797,9.837151527404783,1.868263840675354,0.1828984320163726,1.2509095668792725
4199305180.0,-0.4565470218658447,-0.2348444908857345,10.246356010437012,2.0206944942474365,0.1108712255954742,1.280647873878479
4199313513.0,-0.4579286277294159,0.0703595578670501,10.110275268554688,2.2718162536621094,0.5992066264152527,1.2947611808776855
4199321846.0,-0.4468051791191101,0.0872596055269241,9.610761642456056,2.1346261501312256,0.7855757474899292,1.2016278505325315
4199330179.0,-0.4115110039710998,-0.2197087556123733,9.624046325683594,1.8671112060546875,0.4047945141792297,1.233543038368225
4199338512.0,-0.3914660513401031,-0.3748025000095367,10.126569747924805,1.8121174573898315,0.0937352925539016,1.2357715368270874
4199346845.0,-0.4394235610961914,-0.1493707448244094,10.223553657531738,2.235828399658203,0.705249547958374,1.22982919216156
4199355178.0,-0.5489498972892761,0.0875601768493652,9.83558464050293,2.3072662353515625,1.13487708568573,1.2834652662277222
4199363511.0,-0.5456368923187256,-0.0263779908418655,9.563763618469238,2.05268669128418,0.5356321334838867,1.259848952293396
4199371844.0,-0.4836600422859192,-0.2740412354469299,9.917932510375977,1.8549957275390625,0.2028263062238693,1.1425100564956665
4199380177.0,-0.4519970118999481,-0.2110371142625808,10.244585990905762,2.04789662361145,0.180157721042633,1.2064433097839355
4199388510.0,-0.4589989185333252,-0.0255488511174917,9.918926239013672,2.3165388107299805,0.7241272926330566,1.2657915353775024
4199396843.0,-0.4326439201831817,-0.0536502860486507,9.608926773071287,2.0747148990631104,0.5813535451889038,1.2310585975646973
4199405176.0,-0.3694215416908264,-0.2401059418916702,9.787683486938477,1.9760740995407104,0.0944781005382537,1.2510119676589966
4199413509.0,-0.3699582815170288,-0.1990173012018203,10.16477870941162,2.068413496017456,0.1851525157690048,1.239203929901123
4199421842.0,-0.4804513454437256,-0.0057329516857862,10.050532341003418,2.2649004459381104,0.8214613795280457,1.2016534805297852
4199430175.0,-0.5479953289031982,-0.0225036386400461,9.601320266723633,2.1482787132263184,0.9418995380401612,1.3017795085906982
4199438508.0,-0.5243040323257446,-0.2665216028690338,9.637072563171388,2.004915714263916,0.3409126698970794,1.2716827392578125
4199446841.0,-0.4466944932937622,-0.3016411662101745,10.09770965576172,2.0281991958618164,-0.0726163610816001,1.148452639579773
4199455174.0,-0.442209780216217,-0.025889478623867,10.16711711883545,2.349683284759521,0.3786424398422241,1.2380768060684204
4199463507.0,-0.444248765707016,0.1628395617008209,9.782867431640623,2.366563320159912,0.8092689514160156,1.173375368118286
4199471840.0,-0.4101225435733795,-0.0235078390687704,9.508108139038086,1.9974877834320068,0.4127093851566314,1.2843106985092163
4199480173.0,-0.3728475570678711,-0.2910368144512176,9.931556701660156,1.8874489068984983,0.0521377734839916,1.289254069328308
4199488506.0,-0.3747914731502533,-0.1754637360572815,10.276570320129396,2.08088755607605,0.3045660257339477,1.1162556409835815
4199496839.0,-0.4787688553333282,0.0916022881865501,10.04017162322998,2.330806016921997,1.0115702152252195,1.1914076805114746
4199505172.0,-0.5215866565704346,0.1002992466092109,9.597223281860352,2.153043031692505,0.9034781455993652,1.1592618227005005
4199513505.0,-0.4811292588710785,-0.1418416053056717,9.762988090515137,1.9110652208328247,0.3260820209980011,1.190408706665039
4199521838.0,-0.4980570077896118,-0.1950073689222335,10.18494987487793,1.9055583477020264,0.1342057883739471,1.261257886886597
4199530171.0,-0.505409300327301,-0.0124373491853475,10.087465286254885,2.083705186843872,0.5165494680404663,1.1955827474594116
4199538504.0,-0.4818658828735351,0.0274012442678213,9.73550510406494,2.0881876945495605,0.6254356503486633,1.293762445449829
4199546837.0,-0.4177152216434479,-0.1408829540014267,9.653074264526367,1.8923156261444087,0.3087411820888519,1.255981206893921
4199555170.0,-0.3892132043838501,-0.181984007358551,10.055682182312012,2.001124858856201,0.0944012552499771,1.337895393371582
4199563503.0,-0.4399672448635101,-0.0212329607456922,10.156317710876465,2.204373836517334,0.542240560054779,1.2378720045089722
4199571836.0,-0.5367572903633118,0.0578585527837276,9.812557220458984,2.227580308914185,0.9869804978370668,1.3844109773635864
4199580169.0,-0.5397863984107971,-0.1122130528092384,9.603371620178224,2.038701057434082,0.6098877787590027,1.242021560668945
4199588502.0,-0.4960237741470337,-0.3008316159248352,9.965571403503418,1.947975277900696,-0.0157527551054954,1.2698384523391724
4199596835.0,-0.4733750820159912,-0.1340866535902023,10.252154350280762,2.2007110118865967,0.2078979462385177,1.165434956550598
4199605168.0,-0.4828254878520965,0.160083994269371,9.980147361755373,2.2287330627441406,0.7860881090164185,1.2109770774841309
4199613501.0,-0.4252350628376007,0.0799006223678588,9.559430122375488,2.0795302391052246,0.6726682782173157,1.3082597255706787
4199621834.0,-0.4015150964260101,-0.2163790613412857,9.762088775634766,1.7748743295669556,0.2220113724470138,1.3086439371109009
4199630167.0,-0.3835971653461456,-0.2518388330936432,10.207474708557127,1.982298493385315,0.1837181150913238,1.2606431245803833
4199638500.0,-0.4741064012050628,0.0092871049419045,10.130426406860352,2.155758142471313,0.8054524660110474,1.1242215633392334
4199646833.0,-0.5221241116523743,0.0927528738975524,9.703132629394531,2.144282817840576,0.985546052455902,1.1984260082244873
4199655166.0,-0.4960367679595947,-0.1474472135305404,9.649913787841797,1.852254867553711,0.3901688158512115,1.2894845008850098
4199663499.0,-0.4876754283905029,-0.271357387304306,10.069957733154297,1.919338941574097,0.1172491610050201,1.3131778240203855
4199671832.0,-0.4630147814750671,-0.1085021346807479,10.157951354980469,2.094027519226074,0.5254632234573364,1.2924045324325562
4199680165.0,-0.4775422811508178,-0.0082688350230455,9.793256759643556,2.183037042617798,0.8512506484985352,1.259259819984436
4199688498.0,-0.3917224109172821,-0.1757834106683731,9.590227127075195,2.0102691650390625,0.4950847327709198,1.1992199420928955
4199696831.0,-0.3456888794898987,-0.279094934463501,9.9462308883667,1.9999468326568604,0.1196312829852104,1.2339529991149902
4199705164.0,-0.4091054201126098,-0.1371056288480758,10.180868148803713,2.1447694301605225,0.5519483685493469,1.2770617008209229
4199713497.0,-0.4990802407264709,-0.0006233945023268,9.879616737365724,2.310340166091919,1.089693546295166,1.2762932777404783
4199721830.0,-0.5210117697715759,-0.137465626001358,9.593276023864746,2.0680291652679443,0.8600619435310364,1.419579267501831
4199730163.0,-0.5018201470375061,-0.3078775107860565,9.843487739562988,1.96634042263031,0.2326156497001648,1.166612982749939
4199738496.0,-0.4857204556465149,-0.2062984108924865,10.230189323425291,2.1493289470672607,0.2347672879695892,1.1865923404693604
4199746829.0,-0.4639059007167816,0.0730420425534248,10.02765941619873,2.371250629425049,0.6419055461883545,1.233773708343506
4199755162.0,-0.4529506266117096,0.0613302364945411,9.649090766906738,2.130784273147583,0.8013797402381897,1.2693519592285156
4199763495.0,-0.394220232963562,-0.2171843498945236,9.704475402832031,1.94992196559906,0.2131744623184204,1.1399999856948853
4199771828.0,-0.3744490444660187,-0.3042169511318207,10.117286682128906,2.0443103313446045,0.2470876723527908,1.119380235671997
4199780161.0,-0.461445540189743,-0.0477200560271739,10.145102500915527,2.250889301300049,0.6433910727500916,1.2177391052246094
4199788494.0,-0.5211100578308105,0.0936953574419021,9.787004470825195,2.3363640308380127,1.0747349262237549,1.266047477722168
4199796827.0,-0.5361552834510803,-0.0679300874471664,9.63838005065918,2.013855218887329,0.5733875036239624,1.2552896738052368
4199805160.0,-0.5226485729217529,-0.223706915974617,10.009181022644045,2.0137526988983154,0.2568211257457733,1.3540067672729492
4199813493.0,-0.5302842259407043,-0.1213521882891655,10.137701034545898,2.17356014251709,0.5622196793556213,1.2291631698608398
4199821826.0,-0.5239863395690918,0.0352899320423603,9.869219779968262,2.2882349491119385,0.9334468245506288,1.2859755754470823
4199830159.0,-0.4513363540172577,-0.051290962845087,9.641609191894531,2.091543436050415,0.5259498357772827,1.2755504846572876
4199838492.0,-0.3765930831432342,-0.2081878781318664,9.906757354736328,2.02830171585083,0.199650153517723,1.1194829940795898
4199846825.0,-0.4108549952507019,-0.1054461225867271,10.170698165893556,2.123305082321167,0.3271321952342987,1.2233742475509644
4199855158.0,-0.5028770565986633,0.0754458829760551,9.968579292297363,2.194742679595948,1.004014015197754,1.2657402753829956
4199863491.0,-0.5568951964378357,-0.0401575081050396,9.622130393981934,2.132474660873413,0.9065775275230408,1.3275985717773438
4199871824.0,-0.5164138674736023,-0.2658802270889282,9.756723403930664,1.957247734069824,0.3767981827259063,1.280084252357483
4199880157.0,-0.5056285262107849,-0.2127660065889358,10.1845121383667,2.083193063735962,0.2520568966865539,1.14732563495636
4199888490.0,-0.5028254389762878,0.0773598998785018,10.090643882751465,2.26902437210083,0.6560702323913574,1.3057496547698977
4199896823.0,-0.4959713518619537,0.1433733850717544,9.650652885437012,2.112367391586304,0.801866352558136,1.285488843917847
4199905156.0,-0.4190887808799743,-0.1329686790704727,9.615525245666504,1.8533308506011963,0.357818067073822,1.1841590404510498
4199913489.0,-0.3881455957889557,-0.3058042228221893,10.012632369995115,1.9626779556274407,0.1504964232444763,1.31453537940979
4199921822.0,-0.4419491589069366,-0.0982284918427467,10.218356132507324,2.24884033203125,0.5626807808876038,1.2523696422576904
4199930155.0,-0.5088698267936707,0.1138012409210205,9.875733375549316,2.3721470832824707,0.95780611038208,1.2733222246170044
4199938488.0,-0.4933977127075195,-0.0002145500620827,9.623248100280762,2.025688886642456,0.6924168467521667,1.2847715616226196
4199946821.0,-0.4863016903400421,-0.2216707319021225,9.90532112121582,1.7746437788009644,0.1666846275329589,1.1636418104171753
4199955154.0,-0.4956930577754974,-0.1488578170537948,10.214612007141112,1.98373281955719,0.3724437355995178,1.2755759954452517
4199963487.0,-0.4967999458312988,0.0333469212055206,9.93156909942627,2.223533391952514,0.7032772898674011,1.197657585144043
4199971820.0,-0.4127524197101593,-0.0319055691361427,9.603052139282228,2.0164167881011963,0.6085302829742432,1.1888208389282229
4199980153.0,-0.3613397777080536,-0.2303361296653747,9.799727439880373,1.8399600982666016,0.118145652115345,1.2062638998031616
4199988486.0,-0.3758671581745147,-0.1858889758586883,10.17812156677246,2.0893404483795166,0.2206538170576095,1.220146894454956
4199996819.0,-0.4802645742893219,0.0327721126377582,10.0471830368042,2.1834216117858887,0.9885686039924622,1.3029577732086182
4200005152.0,-0.5337380766868591,-0.0251775346696376,9.65943717956543,2.0963587760925293,0.9665659070014954,1.315406322479248
4200013485.0,-0.5155147314071655,-0.2917340993881225,9.68978786468506,1.866240382194519,0.4396299123764038,1.3108211755752563
4200021818.0,-0.4710567891597748,-0.2887842953205108,10.096426963806152,2.0325024127960205,0.1419412791728973,1.2845155000686646
4200030151.0,-0.4678234457969665,-0.0006946254288777,10.135193824768066,2.3346989154815674,0.4934454262256622,1.22665274143219
4200038484.0,-0.4567728638648987,0.1463352441787719,9.778839111328123,2.2634403705596924,0.8748413920402527,1.1815975904464722
4200046817.0,-0.3998291194438934,-0.1368177384138107,9.601872444152832,1.9830156564712524,0.5204941034317017,1.1244264841079712
4200055150.0,-0.3817425966262817,-0.3261516392230987,9.947761535644531,1.881839394569397,0.1805931478738784,1.1567003726959229
4200063483.0,-0.4279053807258606,-0.1675166487693786,10.175050735473633,2.1459734439849854,0.5342233180999756,1.197836995124817
4200071816.0,-0.5089868903160095,0.0727005302906036,9.957021713256836,2.310698747634888,1.001811146736145,1.118688941001892
4200080149.0,-0.5193666815757751,0.0257166866213083,9.731221199035645,2.212442398071289,0.8338329792022705,1.2039330005645752
4200088482.0,-0.516549825668335,-0.2087433189153671,9.828487396240234,1.9736407995224,0.386736512184143,1.1578785181045532
4200096815.0,-0.5121235847473145,-0.2127201408147812,10.052932739257812,2.044438600540161,0.3104060888290405,1.1691746711730957
4200105148.0,-0.5351545810699463,0.0070116794668138,9.99531364440918,2.199532985687256,0.5619123578071594,1.2943769693374634
4200113481.0,-0.4662447571754455,-0.048029351979494,9.748040199279783,2.237262725830078,0.6556603908538818,1.234593391418457
4200121814.0,-0.3820803165435791,-0.2217516899108886,9.814535140991213,2.029377222061157,0.2348184883594513,1.1631039381027222
4200130147.0,-0.3824006617069244,-0.2049664258956909,10.118616104125977,2.094719171524048,0.1814128011465072,1.199245572090149
4200138480.0,-0.4573441445827484,0.0098465541377663,10.041356086730955,2.2089333534240723,0.6679295897483826,1.2448389530181885
4200146813.0,-0.5521487593650818,0.0341264046728611,9.73512077331543,2.1164915561676025,0.9354190826416016,1.256109356880188
4200155146.0,-0.5677614808082581,-0.2072688341140747,9.722516059875488,1.955582618713379,0.5671375393867493,1.1769611835479736
4200163479.0,-0.5145041346549988,-0.3168253898620605,10.009495735168455,2.031221628189087,0.1001900807023048,1.2674564123153689
4200171812.0,-0.4998029470443725,-0.033486608415842,10.188480377197266,2.252272367477417,0.3945744633674621,1.21310293674469
4200180145.0,-0.501851499080658,0.1760897189378738,9.864806175231934,2.295842409133911,0.7564525008201599,1.195787787437439
4200188478.0,-0.463260680437088,-0.0099989483132958,9.57923698425293,2.076559066772461,0.5290235877037048,1.215433955192566
4200196811.0,-0.3826878368854522,-0.2965545058250427,9.87569522857666,1.835708379745484,0.0790839567780494,1.2076472043991089
4200205144.0,-0.3937718272209167,-0.2185391038656234,10.179872512817385,2.121230125427246,0.2604071199893951,1.165306806564331
4200213477.0,-0.4977116882801056,0.1000335216522216,10.051153182983398,2.3115694522857666,0.8907990455627441,1.2199931144714355
4200221810.0,-0.5170066952705383,0.1174604147672653,9.679960250854492,2.2348806858062744,0.8452569842338562,1.2686346769332886
4200230143.0,-0.5174305438995361,-0.1448937356472015,9.720274925231934,1.990264654159546,0.431305319070816,1.2915083169937134
4200238476.0,-0.488269567489624,-0.2530064582824707,10.08663558959961,1.948206067085266,0.1333092898130417,1.1285760402679443
4200246809.0,-0.5182074308395386,-0.0373052842915058,10.08141803741455,2.215285539627075,0.5751292705535889,1.2209153175354004
4200255142.0,-0.5183427333831787,0.075934499502182,9.735819816589355,2.0832953453063965,0.8012004494667053,1.3151501417160034
4200263475.0,-0.4299944639205932,-0.0904926732182502,9.627671241760254,1.967365384101868,0.3611991107463836,1.237026572227478
4200271808.0,-0.3510292470455169,-0.2293848544359207,10.005943298339844,1.8915470838546755,0.067070871591568,1.316840410232544
4200280141.0,-0.3661696314811706,-0.1052692905068397,10.169111251831056,2.0457959175109863,0.5076355934143066,1.1632832288742063
4200288474.0,-0.5063896775245667,0.0878222733736038,9.899290084838867,2.2437939643859863,0.9420530796051024,1.2487066984176636
4200296807.0,-0.5341914892196655,-0.0474722869694232,9.628876686096191,2.0988688468933105,0.9142104983329772,1.2943769693374634
4200305140.0,-0.4919455051422119,-0.318970650434494,9.893083572387695,1.9919551610946653,0.2799507975578308,1.2630764245986938
4200313473.0,-0.4512034952640533,-0.2342721223831176,10.189468383789062,2.1790413856506348,0.1693485081195831,1.2380512952804563
4200321806.0,-0.449210375547409,0.0782366096973419,10.036263465881348,2.27719521522522,0.623002290725708,1.236642360687256
4200330139.0,-0.4995799362659454,0.1381693929433822,9.630852699279783,2.168539524078369,0.7904937267303467,1.1363115310668943
4200338472.0,-0.4271661043167114,-0.144132986664772,9.607902526855469,1.8824028968811035,0.5020005702972412,1.2792131900787354
4200346805.0,-0.3947137594223022,-0.3555743098258972,10.0281343460083,1.8811476230621336,0.0968089997768402,1.2592086791992188
4200355138.0,-0.434250146150589,-0.1443194597959518,10.182543754577637,2.129759788513184,0.4861197769641876,1.323833465576172
4200363471.0,-0.5471663475036621,0.1090013235807418,9.92331600189209,2.337721586227417,0.8033777475357056,1.2583889961242676
4200371804.0,-0.514068603515625,0.0407523326575756,9.599403381347656,2.064392328262329,0.890645444393158,1.2304950952529907
4200380137.0,-0.4845572412014007,-0.2775416672229767,9.83363151550293,1.898539900779724,0.2585885226726532,1.2772153615951538
4200388470.0,-0.4721269905567169,-0.2842790484428406,10.187954902648926,1.991621971130371,0.3262613117694855,1.2475796937942505
4200396803.0,-0.5150765776634216,-0.0216749627143144,10.010430335998535,2.2313199043273926,0.6167779564857483,1.2108232975006104
4200405136.0,-0.5082741379737854,0.0675358176231384,9.675548553466797,2.2132365703582764,0.7275595664978027,1.248604416847229
4200413469.0,-0.4191122949123382,-0.1493242979049682,9.709172248840332,1.9732824563980105,0.3634019792079925,1.203728199005127
4200421802.0,-0.411160409450531,-0.2786218822002411,10.085426330566406,1.9312748908996584,0.0680954381823539,1.3204779624938965
4200430135.0,-0.43385049700737,-0.0776660963892936,10.141460418701172,2.22519850730896,0.5811485648155212,1.2397674322128296
4200438468.0,-0.5849614143371582,0.0589502938091754,9.804058074951172,2.221919775009156,0.8796825408935547,1.211617350578308
4200446801.0,-0.5684785842895508,-0.0916168466210365,9.650938034057615,2.0463337898254395,0.7176211476325989,1.2293168306350708
4200455134.0,-0.5098174810409546,-0.3151539862155914,9.952825546264648,1.9812994003295896,0.1861002296209335,1.318300724029541
4200463467.0,-0.4517590999603271,-0.2261744290590286,10.244340896606444,2.1455893516540527,0.2757500410079956,1.2010387182235718
4200471800.0,-0.4656553268432617,0.1186911463737487,10.004612922668455,2.3504772186279297,0.6498203277587891,1.1144113540649414
4200480133.0,-0.4880825281143188,0.15179543197155,9.63036060333252,2.217283248901367,0.7358841896057129,1.20905601978302
4200488466.0,-0.407078355550766,-0.1703513115644455,9.711349487304688,1.896413803100586,0.405511736869812,1.2672514915466309
4200496799.0,-0.403949499130249,-0.3708311021327972,10.152274131774902,1.9469507932662964,0.1544666290283203,1.1865922212600708
4200505132.0,-0.4241748750209808,-0.0928566977381706,10.194296836853027,2.290360927581787,0.4427036345005035,1.267123460769653
4200513465.0,-0.5163212418556213,0.1773743629455566,9.797767639160156,2.336313009262085,1.0044751167297363,1.2332358360290527
4200521798.0,-0.538098156452179,0.0792008265852928,9.5673828125,2.040750026702881,0.7886751294136047,1.19947612285614
4200530131.0,-0.4968545138835907,-0.2578833103179931,9.836023330688477,1.8104009628295896,0.2784395217895508,1.2593365907669067
4200538464.0,-0.471763014793396,-0.2673446536064148,10.192899703979492,1.9539690017700195,0.1898911148309707,1.1756550073623655
4200546797.0,-0.4563415646553039,-0.0210751704871654,10.011664390563965,2.2045531272888184,0.5536389350891113,1.2380512952804563
4200555130.0,-0.4813932180404663,0.0881814062595367,9.685558319091797,2.2157468795776367,0.8405439853668213,1.2137178182601929
4200563463.0,-0.3880929052829742,-0.1062969714403152,9.695111274719238,1.9632670879364007,0.3687553405761719,1.1947118043899536
4200571796.0,-0.3718635439872741,-0.2771200537681579,10.090242385864258,2.004096269607544,0.204209491610527,1.2892029285430908
4200580129.0,-0.4416235685348511,-0.1140580773353576,10.153076171875,2.159728527069092,0.5186242461204529,1.2375645637512207
4200588462.0,-0.5098350048065186,0.1076229214668273,9.74209690093994,2.1626226902008057,0.8110107779502869,1.2194809913635254
4200596795.0,-0.5501607060432434,-0.0465624816715717,9.674485206604004,2.107680082321167,0.6027925610542297,1.2539831399917605
4200605128.0,-0.492738664150238,-0.2880604565143585,9.937088966369627,1.924897193908692,0.3371985852718353,1.210772156715393
4200613461.0,-0.4581441879272461,-0.2397975474596023,10.232427597045898,2.1144423484802246,0.3955990672111511,1.2926095724105835
4200621794.0,-0.4640462398529053,0.087311714887619,9.967422485351562,2.2870821952819824,0.6976421475410461,1.3069791793823242
4200630127.0,-0.4906253516674042,0.1913283020257949,9.581153869628906,2.216463804244995,0.6164962649345398,1.234772801399231
4200638460.0,-0.4397850930690765,-0.0924358591437339,9.690078735351562,1.87663996219635,0.3615577518939972,1.1839797496795654
4200646793.0,-0.4109923839569092,-0.3545235991477966,10.123052597045898,1.8338896036148071,0.1329506933689117,1.2700177431106567
4200655126.0,-0.4405604600906372,-0.1901709288358688,10.161055564880373,2.1741490364074707,0.45256507396698,1.270863056182861
4200663459.0,-0.5410677790641785,0.1415286362171173,9.8811674118042,2.291795015335083,0.8904916048049927,1.3478851318359375
4200671792.0,-0.5707797408103943,0.1030428633093833,9.585588455200195,2.0420563220977783,0.8183363080024719,1.23026442527771
4200680125.0,-0.503764808177948,-0.1936274617910385,9.86099910736084,1.7453410625457764,0.4167819917201996,1.1910746097564695
4200688458.0,-0.4770770967006683,-0.2898593842983246,10.192120552062988,1.86580491065979,0.1966532766819,1.2574924230575562
4200696791.0,-0.4664315581321716,-0.0344422683119773,10.035699844360352,2.1802196502685547,0.5358113646507263,1.2944282293319702
4200705124.0,-0.4897894561290741,0.0947771668434143,9.626421928405762,2.2376980781555176,0.6493849158287048,1.22150456905365
4200713457.0,-0.4611715376377105,-0.0933733731508255,9.668662071228027,1.8793549537658687,0.3899639546871185,1.2798281908035278
4200721790.0,-0.4439418315887451,-0.2855302691459656,10.115699768066406,1.8917007446289065,0.2070782780647277,1.250627875328064
4200730123.0,-0.4375538527965545,-0.1600952297449112,10.167975425720217,2.1410043239593506,0.4159367680549621,1.2551615238189695
4200738456.0,-0.5208290219306946,0.0790376588702201,9.823883056640623,2.2036821842193604,0.7655197381973267,1.357669711112976
4200746789.0,-0.5493839383125305,-0.0095937419682741,9.606467247009276,2.054069757461548,0.6128590106964111,1.2259869575500488
4200755122.0,-0.4888461828231811,-0.2672681808471679,9.90419578552246,1.919518232345581,0.3941647112369537,1.254393219947815
4200763455.0,-0.4584263265132904,-0.319518119096756,10.18277645111084,2.052609443664551,0.2214991152286529,1.2537273168563845
4200771788.0,-0.4504188895225525,0.0247381962835788,10.068219184875488,2.3046538829803467,0.4711354076862335,1.2091071605682373
4200780121.0,-0.497251808643341,0.1889733225107193,9.659261703491213,2.2125704288482666,0.6746149659156799,1.2492190599441528
4200788454.0,-0.4521916806697845,-0.0385066419839859,9.63205337524414,1.940957307815552,0.3979299366474151,1.198067545890808
4200796787.0,-0.422195166349411,-0.3402012884616852,10.038634300231934,1.887295246124268,0.2782346308231354,1.302727222442627
4200805120.0,-0.4123522043228149,-0.2444590181112289,10.22738552093506,2.078121423721313,0.4681385457515716,1.1992456912994385
4200813453.0,-0.4853585958480835,0.0932979732751846,9.885583877563477,2.3779616355896,0.7808627486228943,1.2127954959869385
4200821786.0,-0.5477483868598938,0.1217004209756851,9.579071998596191,2.0890586376190186,0.7801968455314636,1.1905111074447632
4200830119.0,-0.4732881784439087,-0.1306497156620025,9.793048858642578,1.8339152336120603,0.3687297105789184,1.1934056282043457
4200838452.0,-0.4635162949562073,-0.2913796305656433,10.2032470703125,1.8360923528671265,0.3101755678653717,1.2808014154434204
4200846785.0,-0.4497813880443573,-0.0994681119918823,10.081215858459473,2.172125577926636,0.5185473561286926,1.3282902240753174
4200855118.0,-0.4927958548069,0.0868638530373573,9.718714714050291,2.233650684356689,0.7361146807670593,1.2393062114715576
4200863451.0,-0.4739018380641937,-0.0203798618167638,9.629847526550291,2.051354169845581,0.4142462313175201,1.2549309730529783
4200871784.0,-0.4337787628173828,-0.2628592848777771,10.00405979156494,1.881916046142578,0.2634552121162414,1.2949914932250977
4200880117.0,-0.4063180387020111,-0.2260924875736236,10.132678031921388,2.07625150680542,0.4552546441555023,1.2474517822265625
4200888450.0,-0.4826281368732452,0.0537477433681488,9.840614318847656,2.251120090484619,0.6441596150398254,1.215869426727295
4200896783.0,-0.5541679263114929,0.0490490533411502,9.624821662902832,2.089186668395996,0.6323001980781555,1.3090282678604126
4200905116.0,-0.511519730091095,-0.2076796442270279,9.801362037658691,1.967262864112854,0.2558221817016601,1.1620794534683228
4200913449.0,-0.4495874345302582,-0.353578120470047,10.205850601196287,1.921874642372132,0.3481102883815765,1.2587220668792725
4200921782.0,-0.4607575237751007,-0.1145174875855445,10.068724632263184,2.3102376461029053,0.4520784914493561,1.2393063306808472
4200930115.0,-0.5231170654296875,0.1790074557065963,9.75587272644043,2.36853551864624,0.614395797252655,1.290432333946228
4200938448.0,-0.5006695985794067,0.0529763139784336,9.614456176757812,2.0207455158233643,0.4861709475517273,1.2500898838043213
4200946781.0,-0.4567593932151794,-0.2820622026920318,9.907849311828612,1.8612711429595947,0.1317468136548996,1.2160229682922363
4200955114.0,-0.4229826629161834,-0.327703982591629,10.19527816772461,2.0298640727996826,0.3416042625904083,1.1362090110778809
4200963447.0,-0.4707541167736053,-0.0041758702136576,9.95851993560791,2.35306453704834,0.7471031546592712,1.2595927715301514
4200971780.0,-0.5461530089378357,0.1268434524536132,9.67725658416748,2.188006401062012,0.7580917477607727,1.3248066902160645
4200980113.0,-0.5051266551017761,-0.0603471845388412,9.760306358337402,1.900563359260559,0.5490282773971558,1.2442753314971924
4200988446.0,-0.489522784948349,-0.3114162087440491,10.156312942504885,1.7958523035049438,0.282051146030426,1.2993717193603516
4200996779.0,-0.4609593451023102,-0.2135771512985229,10.128436088562012,2.1814746856689453,0.4351218044757843,1.2440706491470337
4201005112.0,-0.5244883298873901,0.0695412307977676,9.765079498291016,2.271559953689575,0.5218515992164612,1.2640496492385864
4201013445.0,-0.5211751461029053,0.0497786849737167,9.662714004516602,2.1583707332611084,0.5799703598022461,1.1846712827682495
4201021778.0,-0.4409713745117187,-0.2011449486017227,9.913525581359863,1.9848854541778564,0.2926298379898071,1.1299078464508057
4201030111.0,-0.4080711305141449,-0.2921375036239624,10.184622764587402,2.102173328399658,0.288762092590332,1.2527793645858765
4201038444.0,-0.435894250869751,-0.0605734847486019,9.9627685546875,2.272738218307495,0.4931380748748779,1.2504740953445437
4201046777.0,-0.5163246393203735,0.0848283320665359,9.666156768798828,2.159395456314087,0.5743607878684998,1.2006287574768066
4201055110.0,-0.4906879067420959,-0.0797316879034042,9.756053924560549,1.967698335647583,0.3613528311252594,1.17877995967865
4201063443.0,-0.464856207370758,-0.3185400664806366,10.089349746704102,1.920952320098877,0.2689622342586517,1.2829785346984863
4201071776.0,-0.4722307324409485,-0.2391111999750137,10.156075477600098,2.244946956634521,0.2773125469684601,1.2144606113433838
4201080109.0,-0.4864453673362732,0.1041425317525863,9.80429744720459,2.256601572036743,0.4450345635414123,1.3333107233047483
4201088442.0,-0.4998811781406402,0.1588175892829895,9.628774642944336,2.066492319107056,0.5040753483772278,1.2064944505691528
4201096775.0,-0.4414593577384949,-0.1185836866497993,9.888154029846191,1.9026635885238647,0.3368143737316131,1.165767788887024
4201105108.0,-0.4114610254764557,-0.3212665319442749,10.192262649536133,1.948667049407959,0.2447568476200103,1.3018563985824585
4201113441.0,-0.411052942276001,-0.157508984208107,10.028258323669434,2.232574939727783,0.5005149245262146,1.2428923845291138
4201121774.0,-0.4742667376995086,0.1358241289854049,9.729711532592772,2.250351667404175,0.6744100451469421,1.2521134614944458
4201130107.0,-0.5322008728981018,0.1033637970685958,9.74472427368164,2.013598918914795,0.6811465620994568,1.2964518070220947
4201138440.0,-0.4959800541400909,-0.1923075169324875,10.038453102111816,1.7702380418777466,0.421264499425888,1.342890381813049
4201146773.0,-0.4843470454216003,-0.2852948904037475,10.143675804138184,1.925921440124512,0.2966000437736511,1.322219729423523
4201155106.0,-0.4862875640392303,-0.0618254616856575,9.858044624328612,2.195946455001831,0.4491840302944183,1.3230135440826416
4201163439.0,-0.5108829140663147,0.0952881872653961,9.705867767333984,2.083116054534912,0.5035630464553833,1.1746304035186768
4201171772.0,-0.4693922400474548,-0.0686523765325546,9.85365867614746,1.848310470581055,0.3971102833747864,1.3186848163604736
4201180105.0,-0.4382355809211731,-0.2855637073516845,10.075640678405762,1.936423301696777,0.2865336239337921,1.33707594871521
4201188438.0,-0.4123465120792389,-0.231868177652359,10.016435623168944,2.1037096977233887,0.3208822906017303,1.2535990476608276
4201196771.0,-0.4478771984577179,0.0402866080403327,9.739398002624512,2.1442575454711914,0.4634511768817901,1.115845799446106
4201205104.0,-0.5266019701957703,0.0628790855407714,9.71651840209961,1.9041494131088257,0.3932937383651733,1.2907652854919434
4201213437.0,-0.4982767105102539,-0.1755684465169906,9.963642120361328,1.804791688919068,0.5438286066055298,1.277599573135376
4201221770.0,-0.5202530026435852,-0.3489838242530823,10.151006698608398,1.9714380502700808,0.5486697554588318,1.2549055814743042
4201230103.0,-0.4834862947463989,-0.1229721680283546,9.907340049743652,2.154272556304932,0.2886596322059631,1.237923264503479
4201238436.0,-0.4927132725715637,0.12283656001091,9.735593795776367,2.199378967285156,0.3418347835540771,1.2007312774658203
4201246769.0,-0.4941575825214386,0.0603976435959339,9.850998878479004,1.990187644958496,0.4985938966274261,1.321784257888794
4201255102.0,-0.4568165242671966,-0.2437306493520736,10.05699634552002,1.9022282361984253,0.6052259206771851,1.2862060070037842
4201263435.0,-0.4278493225574493,-0.301523208618164,10.036765098571776,2.025330305099488,0.3980836868286133,1.2332870960235596
4201271768.0,-0.4474858045578003,-0.0578704215586185,9.797948837280272,2.2616217136383057,0.3413737118244171,1.1768332719802856
4201280101.0,-0.5005549192428589,0.1250279545783996,9.779640197753906,2.1750454902648926,0.3792059123516083,1.3118714094161987
4201288434.0,-0.5058864951133728,-0.0176030844449996,9.920842170715332,2.031580209732056,0.5295102596282959,1.2688907384872437
4201296767.0,-0.5401637554168701,-0.2696845233440399,10.098872184753418,1.8891394138336184,0.5557904839515686,1.1851577758789062
4201305100.0,-0.5254493355751038,-0.2417099922895431,9.952040672302246,2.131398916244507,0.447186142206192,1.2482969760894775
4201313433.0,-0.4839551448822021,0.0430191680788993,9.70193576812744,2.106066465377808,0.3348676860332489,1.3156111240386963
4201321766.0,-0.5011863112449646,0.0826131105422973,9.82943344116211,2.057732343673706,0.3541040420532226,1.15093731880188
4201330099.0,-0.4305029213428497,-0.1165902540087699,10.001568794250488,1.9353477954864504,0.5517690181732178,1.2726049423217771
4201338432.0,-0.4234611392021179,-0.2837374210357666,10.070795059204102,2.046820640563965,0.4266435205936432,1.2610528469085691
4201346765.0,-0.4009771347045898,-0.123348094522953,9.833121299743652,2.1239452362060547,0.3761578798294067,1.1808034181594849
4201355098.0,-0.4375444650650024,0.1120205223560333,9.722243309020996,2.208164930343628,0.3188844323158264,1.2768824100494385
4201363431.0,-0.5053035616874695,-0.0008390675066038,9.906453132629396,2.019208669662476,0.588218092918396,1.2090816497802734
4201371764.0,-0.4758444130420685,-0.2900676727294922,10.050021171569824,1.950254917144776,0.6283556222915649,1.257646083831787
4201380097.0,-0.5267223119735718,-0.284382700920105,10.035908699035645,2.115082263946533,0.4933429658412933,1.3797491788864136
4201388430.0,-0.4984914064407348,0.0281861592084169,9.76372528076172,2.230705499649048,0.2861238420009613,1.19660747051239
4201396763.0,-0.4901682734489441,0.2001065462827682,9.734131813049316,2.132500410079956,0.2328206002712249,1.2478102445602417
4201405096.0,-0.4546594619750976,-0.0308670066297054,9.93270206451416,1.9145487546920776,0.5305348634719849,1.1591593027114868
4201413429.0,-0.4246722459793091,-0.3306255936622619,10.076313018798828,1.895287036895752,0.4596602618694305,1.3314406871795654
4201421762.0,-0.4364523291587829,-0.2725939750671386,9.967422485351562,2.1917457580566406,0.2613036036491394,1.2672514915466309
4201430095.0,-0.460880309343338,0.0644414573907852,9.761945724487305,2.1970739364624023,0.3391452729701996,1.275320053100586
4201438428.0,-0.5006651282310486,0.148939311504364,9.818687438964844,2.0428507328033447,0.4026173651218414,1.2692238092422483
4201446761.0,-0.4814687669277191,-0.1378014534711837,9.990562438964844,1.940086245536804,0.49423947930336,1.293941617012024
4201455094.0,-0.5019158124923706,-0.3191744089126587,10.102163314819336,2.002866744995117,0.3883758187294006,1.2594135999679563
4201463427.0,-0.5199248194694519,-0.1346653699874878,9.86123752593994,2.232933759689331,0.3717522025108337,1.3388689756393433
4201471760.0,-0.5148313641548157,0.1248971074819564,9.691535949707031,2.182806491851806,0.4208802878856659,1.3052630424499512
4201480093.0,-0.4614716470241546,-0.0075178323313593,9.88999366760254,1.9265618324279783,0.422647625207901,1.309207558631897
4201488426.0,-0.390268862247467,-0.3007963895797729,10.087430000305176,1.893160939216613,0.350031316280365,1.2569290399551392
4201496759.0,-0.4267103672027588,-0.2466589659452438,10.03292465209961,2.0495102405548096,0.376618891954422,1.222631573677063
4201505092.0,-0.4940654933452606,0.0531094707548618,9.740095138549805,2.188518524169922,0.5653702020645142,1.2563141584396362
4201513425.0,-0.5483654141426086,0.1009425744414329,9.655577659606934,2.0483832359313965,0.6300204992294312,1.2675588130950928
4201521758.0,-0.4917422831058502,-0.2092804759740829,9.90142822265625,1.8279725313186648,0.5090957283973694,1.176833152770996
4201530091.0,-0.4972321987152099,-0.3832862675189972,10.17795467376709,2.104888200759888,0.4116847813129425,1.251806139945984
4201538424.0,-0.519935131072998,-0.1011857613921165,10.00745677947998,2.318920612335205,0.4686764478683471,1.426776885986328
4201546757.0,-0.5309195518493652,0.2010711878538131,9.628957748413086,2.2801663875579834,0.5217236280441284,1.3083624839782717
4201555090.0,-0.463896632194519,0.0403343550860881,9.677313804626465,2.00022840499878,0.3891954720020294,1.2736037969589231
4201563423.0,-0.3892685770988464,-0.3220013082027435,10.040666580200195,1.836886525154113,0.1938357353210449,1.3101298809051514
4201571756.0,-0.4034928381443023,-0.3165590167045593,10.229519844055176,2.104017496109009,0.3947538435459137,1.259823441505432
4201580089.0,-0.5149025917053223,0.0603868104517459,9.87486457824707,2.3102121353149414,0.7452590465545654,1.2130005359649658
4201588422.0,-0.5670847296714783,0.1878373324871063,9.573352813720703,2.131219387054444,0.6623969078063965,1.2705044746398926
4201596755.0,-0.4813944697380066,-0.0949928686022758,9.76400375366211,1.8783046007156368,0.3467014729976654,1.2153056859970093
4201605088.0,-0.4424826204776764,-0.3222712874412536,10.23840045928955,1.858633041381836,0.1816433519124984,1.2041124105453491
4201613421.0,-0.5067813992500305,-0.1386592239141464,10.140159606933594,2.2426671981811523,0.5309959053993225,1.3102577924728394
4201621754.0,-0.5246946811676025,0.0838324353098869,9.652771949768066,2.237006425857544,0.6899834871292114,1.2308024168014526
4201630087.0,-0.4370203912258148,-0.0268794912844896,9.529366493225098,2.000023603439331,0.3975713849067688,1.2405871152877808
4201638420.0,-0.3244657516479492,-0.2832590937614441,10.050711631774902,1.8218765258789065,-0.0284830294549465,1.2458124160766602
4201646753.0,-0.3700920343399048,-0.2010226249694824,10.351062774658203,2.101942539215088,0.4287438690662384,1.192457914352417
4201655086.0,-0.5365273952484131,0.0578799806535244,9.90429401397705,2.34819769859314,0.908985197544098,1.1424587965011597
4201663419.0,-0.5580641627311707,0.0259837582707405,9.414610862731934,2.039136409759521,0.847485363483429,1.208671808242798
4201671752.0,-0.4801965653896332,-0.2839793860912323,9.71212673187256,1.7508481740951538,0.269705057144165,1.224065899848938
4201680085.0,-0.4505788683891296,-0.3406990766525268,10.434544563293455,2.051636219024658,0.0167645160108804,1.2652535438537598
4201688418.0,-0.5215005278587341,-0.0115601867437362,10.26161289215088,2.48661732673645,0.7858575582504272,1.1987334489822388
4201696751.0,-0.5554846525192261,0.1986244320869445,9.539432525634766,2.352834224700928,0.9218947887420654,1.315406322479248
4201705084.0,-0.4206807315349579,-0.0246799997985363,9.37695026397705,1.914267301559448,0.3024913072586059,1.3109750747680664
4201713417.0,-0.3368791341781616,-0.3020393550395965,10.081050872802734,1.8631409406661987,-0.2760190069675445,1.1989638805389404
4201721750.0,-0.410727709531784,-0.1855973303318023,10.52841091156006,2.1652867794036865,0.5170617699623108,1.266636848449707
4201730083.0,-0.546464741230011,0.0711310878396034,9.930049896240234,2.529392719268799,1.133903741836548,1.228650689125061
4201738416.0,-0.560545802116394,0.0562431290745735,9.32374382019043,2.2134413719177246,0.669031023979187,1.2651511430740356
4201746749.0,-0.5309569239616394,-0.164678618311882,9.693607330322266,1.7931374311447144,-0.1684904545545578,1.364636778831482
4201755082.0,-0.4981128573417663,-0.1892817616462707,10.461589813232422,1.9122689962387085,0.0588743165135383,1.237795114517212
4201763415.0,-0.5310813188552856,-0.0010564462281763,10.227906227111816,2.280550718307495,0.8077577352523804,1.3528542518615725
4201771748.0,-0.5201284885406494,0.0070793093182146,9.46751594543457,2.2535531520843506,0.7060692310333252,1.1573665142059326
4201780081.0,-0.4172223508358001,-0.1843380033969879,9.465497016906738,1.7813290357589722,-0.1263550370931625,1.277574062347412
4201788414.0,-0.3652397096157074,-0.2042151093482971,10.206103324890137,1.850436329841613,-0.1558113843202591,1.3007547855377195
4201796747.0,-0.4430418610572815,-0.0103159565478563,10.404757499694824,2.216463804244995,0.7669286727905273,1.2309560775756836
4201805080.0,-0.52664715051651,0.0629681795835495,9.763978004455566,2.2591116428375244,1.2223241329193115,1.233620047569275
4201813413.0,-0.5217882394790649,-0.1905597150325775,9.389238357543944,2.040135383605957,0.4717245697975158,1.2228364944458008
4201821746.0,-0.4973828196525574,-0.2889293134212494,9.927144050598145,1.8854764699935915,-0.145079031586647,1.192457914352417
4201830079.0,-0.4793570637702942,-0.0876330435276031,10.375938415527344,2.178990125656128,0.3252111375331878,1.2335431575775146
4201838412.0,-0.4995399713516235,0.1210260465741157,10.02840518951416,2.292128324508667,0.8190280795097351,1.1910747289657593
4201846745.0,-0.4626853466033935,-0.0574397668242454,9.505924224853516,2.07271671295166,0.612167477607727,1.3742166757583618
4201855078.0,-0.3988703787326813,-0.2486873716115951,9.672457695007324,1.8654204607009888,0.0123332543298602,1.163462519645691
4201863411.0,-0.3921875655651092,-0.1752083450555801,10.21139430999756,1.978225827217102,0.1047238036990165,1.2285739183425903
4201871744.0,-0.4311476051807403,0.0595877841114997,10.169769287109377,2.266719102859497,0.880450963973999,1.2353618144989014
4201880077.0,-0.4925495982170105,-0.0090828165411949,9.697432518005373,2.1239707469940186,0.9798340797424316,1.2432509660720823
4201888410.0,-0.5056571960449219,-0.2149890214204788,9.66173267364502,1.8700823783874512,0.4493377208709717,1.2069042921066284
4201896743.0,-0.5138531923294067,-0.1726501733064651,10.01632308959961,1.930455207824707,0.1514441519975662,1.195582628250122
4201905076.0,-0.5143293142318726,0.0285762138664722,10.13109302520752,2.14917540550232,0.5849907398223877,1.2609503269195557
4201913409.0,-0.4943946897983551,-0.0196582451462745,9.85805606842041,2.106476306915283,0.7741774320602417,1.2040610313415527
4201921742.0,-0.4192350506782532,-0.2314713299274444,9.684637069702148,2.059268951416016,0.3108159303665161,1.25641667842865
4201930075.0,-0.397157609462738,-0.1658685207366943,9.969816207885742,1.9616022109985352,-0.0641636550426483,1.2540088891983032
4201938408.0,-0.4158221781253814,0.0232659578323364,10.062804222106934,2.172407388687134,0.4837376475334167,1.2932244539260864
4201946741.0,-0.4933329224586487,-0.0142068080604076,9.865805625915527,2.108576536178589,0.932037889957428,1.3421732187271118
4201955074.0,-0.5080404877662659,-0.2649889290332794,9.749449729919434,2.0608062744140625,0.7898790240287781,1.2978861331939695
4201963407.0,-0.5042994618415833,-0.2504408657550812,9.951090812683104,2.046180486679077,0.0430447235703468,1.283849596977234
4201971740.0,-0.5224533677101135,-0.0068694273941218,10.100053787231444,2.2595467567443848,0.3621468842029571,1.2088253498077393
4201980073.0,-0.5258169770240784,0.0841049924492836,9.86099624633789,2.1646974086761475,0.7789929509162903,1.3236284255981443
4201988406.0,-0.4460106194019317,-0.1636105477809906,9.64257526397705,1.96959388256073,0.3536685705184936,1.246427059173584
4201996739.0,-0.3824739456176758,-0.2826114296913147,9.898595809936523,2.0182864665985107,0.1972168087959289,1.3409690856933594
4202005072.0,-0.4811607897281647,-0.1240544766187667,10.177976608276367,2.23682713508606,0.4745678007602691,1.3594884872436523
4202013405.0,-0.5393568277359009,0.0471992157399654,9.872407913208008,2.2701256275177,0.935495913028717,1.2798024415969849
4202021738.0,-0.493016630411148,-0.0626722052693367,9.640475273132324,2.1060407161712646,0.6634982824325562,1.2798793315887451
4202030071.0,-0.4634901583194732,-0.1797684282064438,9.87796115875244,2.0556318759918213,0.1691692173480987,1.192304253578186
4202038404.0,-0.5322300791740417,-0.0752581655979156,10.203987121582031,2.1308610439300537,0.3386073708534241,1.210618495941162
4202046737.0,-0.5532128214836121,-0.0189008861780166,9.93114185333252,2.23085880279541,0.8261487483978271,1.2786753177642822
4202055070.0,-0.4525850713253021,-0.0773356556892395,9.532065391540527,2.140056610107422,0.606250524520874,1.3156112432479858
4202063403.0,-0.3699490129947662,-0.2039971351623535,9.80956745147705,1.95706844329834,0.0272407382726669,1.2347983121871948
4202071736.0,-0.4006331861019134,-0.1114554554224014,10.27183723449707,2.026611089706421,0.3543344736099243,1.2471954822540283
4202080069.0,-0.489155650138855,0.0394453331828117,10.036629676818848,2.1724586486816406,0.9940244555473328,1.2150752544403076
4202088402.0,-0.5274045467376709,-0.0518338344991207,9.534117698669434,2.06549334526062,0.8456411361694336,1.3097453117370603
4202096735.0,-0.5002110600471497,-0.2838845252990722,9.65891933441162,1.8964905738830569,0.3493653535842895,1.2921741008758545
4202105068.0,-0.4774525463581085,-0.1854071319103241,10.22677230834961,2.079555988311768,0.0887917429208755,1.2648181915283203
4202113401.0,-0.4822056591510772,0.0523866042494773,10.177525520324709,2.290693998336792,0.7727943658828735,1.2861292362213137
4202121734.0,-0.4628134369850158,0.133635014295578,9.676426887512209,2.174891948699951,0.7418522834777832,1.1735804080963137
4202130067.0,-0.4134622812271118,-0.1425640285015106,9.632767677307127,1.8470808267593384,0.248598963022232,1.35651695728302
4202138400.0,-0.3782008290290832,-0.2287062257528305,10.0778169631958,1.8777925968170168,0.0179427713155746,1.2360533475875854
4202146733.0,-0.4153371453285217,-0.0019678028766065,10.246901512145996,2.156526565551758,0.4741834998130798,1.2684810161590576
4202155066.0,-0.5168737769126892,0.0828800797462463,9.923927307128906,2.107372999191284,1.0381834506988523,1.2574412822723389
4202163399.0,-0.4991816580295563,-0.0619766078889369,9.636270523071287,1.96295964717865,0.7651611566543579,1.2248342037200928
4202171732.0,-0.4817454516887665,-0.1687496155500412,9.917891502380373,1.8338639736175537,0.1953981816768646,1.3067998886108398
4202180065.0,-0.5276864171028137,-0.051057081669569,10.11660099029541,2.001739501953125,0.4228013753890991,1.2668417692184448
4202188398.0,-0.5299547910690308,-0.0407479479908943,9.877739906311035,2.088828086853028,0.833551287651062,1.2352850437164309
4202196731.0,-0.415895402431488,-0.1805935800075531,9.612465858459473,1.970925569534301,0.5221333503723145,1.2721182107925415
4202205064.0,-0.3540642559528351,-0.2509026825428009,9.809348106384276,1.963215589523316,-0.0840659067034721,1.2874866724014282
4202213397.0,-0.4368168711662292,-0.0952949300408363,10.095118522644045,2.150404691696167,0.3317171335220337,1.212846755981445
4202221730.0,-0.4863673746585846,-0.016502721235156,9.915712356567385,2.2451775074005127,0.9850338697433472,1.1965818405151367
4202230063.0,-0.5001680850982666,-0.1501154750585556,9.610624313354492,2.183011770248413,0.6676990985870361,1.306313157081604
4202238396.0,-0.5397923588752747,-0.2973033785820007,9.793415069580078,2.115851163864136,0.202493354678154,1.211207628250122
4202246729.0,-0.551042914390564,-0.0833931490778923,10.123887062072754,2.206397533416748,0.4428061246871948,1.2047783136367798
4202255062.0,-0.5171013474464417,0.1352890431880951,9.954479217529297,2.335365056991577,0.7867284417152405,1.218430757522583
4202263395.0,-0.4137058556079864,-0.0003592028515413,9.619237899780272,2.1196677684783936,0.4680617749691009,1.3208621740341189
4202271728.0,-0.3907220661640167,-0.2055698782205581,9.83555030822754,1.835016727447509,0.1696302741765976,1.315995454788208
4202280061.0,-0.481548547744751,-0.1351788341999054,10.157517433166504,2.076302528381348,0.328515350818634,1.2427386045455933
4202288394.0,-0.504538893699646,-0.0181706324219703,9.958663940429688,2.2463302612304688,0.7171857953071594,1.3376905918121338
4202296727.0,-0.504827082157135,0.0082753058522939,9.65930461883545,2.015571355819702,0.717313826084137,1.2309304475784302
4202305060.0,-0.5153149366378784,-0.1694276332855224,9.864697456359863,1.816420555114746,0.3590475022792816,1.2385377883911133
4202313393.0,-0.5422605276107788,-0.1597104668617248,10.193754196166992,1.9344764947891235,0.3584839999675751,1.3183262348175049
4202321726.0,-0.5239351987838745,-0.007290075533092,10.023542404174805,2.125046730041504,0.5002588629722595,1.3035980463027954
4202330059.0,-0.5092194676399231,-0.0565676987171173,9.713927268981934,1.9827593564987185,0.3712655007839203,1.2010128498077393
4202338392.0,-0.4126023650169372,-0.2401477098464965,9.840021133422852,1.7631430625915527,0.0829260870814323,1.2459659576416016
4202346725.0,-0.3456616401672363,-0.2013475745916366,10.239252090454102,2.031221628189087,0.0805695727467536,1.1603888273239136
4202355058.0,-0.4515617191791534,-0.0170148611068725,10.153993606567385,2.2108540534973145,0.5096848607063293,1.253522276878357
4202363391.0,-0.5224564075469971,-0.0052720820531249,9.79706573486328,2.1698458194732666,0.8485867381095886,1.2271140813827517
4202371724.0,-0.5161688923835754,-0.2749854624271393,9.67522430419922,1.9536104202270508,0.4065363109111786,1.2758835554122925
4202380057.0,-0.4900573492050171,-0.2790525257587433,10.045243263244627,2.060626983642578,-0.1189268976449966,1.1738876104354858
4202388390.0,-0.5392557978630066,-0.0355762466788291,10.213434219360352,2.249992847442627,0.2484196424484253,1.2134616374969482
4202396723.0,-0.5009064674377441,0.0931704714894294,9.819347381591797,2.28426456451416,0.7352949976921082,1.2289068698883057
4202405056.0,-0.4036744832992553,-0.1120801419019699,9.616951942443848,2.05806565284729,0.1707060784101486,1.2485274076461792
4202413389.0,-0.382769227027893,-0.2506797611713409,9.88319492340088,2.015878915786743,-0.1592437177896499,1.215792536735535
4202421722.0,-0.4703865051269531,-0.100090205669403,10.184868812561035,2.189671277999878,0.4588918685913086,1.1626431941986084
4202430055.0,-0.4952535927295685,0.0324475467205047,9.861125946044922,2.351630210876465,0.8914394974708557,1.2429436445236206
4202438388.0,-0.4807052612304687,-0.0703389272093772,9.527509689331056,2.09997034072876,0.4997465312480926,1.242661952972412
4202446721.0,-0.5221645832061768,-0.2057426273822784,9.830028533935549,2.0247669219970703,0.0845397859811782,1.255802035331726
4202455054.0,-0.5563634037971497,-0.1301368027925491,10.147863388061523,2.13664984703064,0.4031040370464325,1.3624595403671265
4202463387.0,-0.5065233707427979,-0.0218381714075803,9.87539291381836,2.215951442718506,0.6412139534950256,1.3356157541275024
4202471720.0,-0.4495093524456024,-0.1162387430667877,9.536439895629885,2.070104122161865,0.3812550902366638,1.299679160118103
4202480053.0,-0.3725485801696777,-0.2093717604875564,9.729835510253906,2.0062735080718994,-0.0075818141922354,1.2963236570358276
4202488386.0,-0.3681219518184662,-0.1287546455860138,10.10204029083252,2.144948720932007,0.051010750234127,1.364022135734558
4202496719.0,-0.4259396493434906,0.0120733398944139,9.931257247924805,2.2244043350219727,0.5056378245353699,1.3192996978759766
4202505052.0,-0.510148286819458,-0.0454484522342681,9.647689819335938,2.131014585494995,0.6461830139160156,1.356363296508789
4202513385.0,-0.5022105574607849,-0.2527540922164917,9.684823989868164,1.9819399118423464,0.3079471290111542,1.2909448146820068
4202521718.0,-0.5121482014656067,-0.219729870557785,10.043123245239258,2.196843385696411,-0.0096309529617428,1.287845253944397
4202530051.0,-0.5411149859428406,0.0190620217472314,10.113994598388672,2.398581027984619,0.2797458469867706,1.3032394647598269
4202538384.0,-0.4683555364608764,0.0074951653368771,9.70339584350586,2.2186667919158936,0.2979576289653778,1.3490633964538574
4202546717.0,-0.3793005645275116,-0.2126833349466323,9.624756813049316,2.0377275943756104,-0.2083461731672287,1.3827459812164309
4202555050.0,-0.4084362685680389,-0.2932891845703125,10.012192726135254,1.9921854734420776,-0.2360095530748367,1.2271651029586792
4202563383.0,-0.4683921039104461,-0.0775659009814262,10.154687881469728,2.275325059890747,0.2374823987483978,1.3616912364959717
4202571716.0,-0.475562572479248,-0.044919416308403,9.823648452758787,2.261084079742432,0.5104532837867737,1.2554177045822144
4202580049.0,-0.4378820359706878,-0.205598309636116,9.696971893310549,2.140005350112915,0.0171743463724851,1.305442452430725
4202588382.0,-0.5102803707122803,-0.2211874127388,10.096394538879396,2.087854623794556,-0.1199770793318748,1.3416095972061155
4202596715.0,-0.5344043970108032,-0.05122597143054,10.217283248901367,2.3924336433410645,0.0858461111783981,1.357951521873474
4202605048.0,-0.5058616995811462,-0.0795806124806404,9.803016662597656,2.319791793823242,0.2732398509979248,1.242687463760376
4202613381.0,-0.3802015483379364,-0.2225501090288162,9.658811569213867,2.164799928665161,-0.134372279047966,1.2906116247177124
4202621714.0,-0.3940948843955993,-0.2076027989387512,10.085396766662598,2.1379048824310303,-0.3968413472175598,1.33766508102417
4202630047.0,-0.4266558885574341,-0.0134189203381538,10.28288459777832,2.34230637550354,0.0273175798356533,1.2812880277633667
4202638380.0,-0.5101659893989563,-0.0085710287094116,9.879186630249023,2.353935480117798,0.5169592499732971,1.2669697999954224
4202646713.0,-0.5298725962638855,-0.1729035973548889,9.666858673095703,2.117593050003052,0.2968817949295044,1.370271921157837
4202655046.0,-0.5177084803581238,-0.2221028357744217,9.9652099609375,2.0697710514068604,-0.0851929411292076,1.3840266466140747
4202663379.0,-0.5217865705490112,-0.0162006337195634,10.337435722351074,2.2434611320495605,-0.0989477932453155,1.2193528413772583
4202671712.0,-0.4982078075408935,0.1781301945447921,9.994532585144045,2.3084700107574463,0.3641703724861145,1.2634092569351196
4202680045.0,-0.4208745062351227,0.0405655987560749,9.62326431274414,2.090902805328369,0.0187368113547563,1.3387408256530762
4202688378.0,-0.362853467464447,-0.1750406473875045,9.874671936035156,1.8381414413452148,-0.2923608720302582,1.2454793453216553
4202696711.0,-0.4584406018257141,-0.0147761180996894,10.254559516906738,1.931453943252564,-0.1534804701805114,1.356440186500549
4202705044.0,-0.5232999324798584,0.0969654843211174,10.020696640014648,2.1456918716430664,0.4233392775058746,1.1527303457260132
4202713377.0,-0.4963880479335785,0.0107543524354696,9.69430446624756,2.0290701389312744,0.440910667181015,1.267635703086853
4202721710.0,-0.5179933309555054,-0.0813705846667289,9.823884963989258,1.8046894073486328,0.17703278362751,1.3458359241485596
4202730043.0,-0.5415980219841003,-0.0541661754250526,10.132102966308594,1.9015878438949585,-0.0352451875805854,1.3128446340560913
4202738376.0,-0.5335828065872192,0.0240603443235158,9.994044303894045,2.22747802734375,0.3884526789188385,1.2362840175628662
4202746709.0,-0.4717788398265838,-0.0263077672570943,9.6821928024292,2.107731580734253,0.4171150326728821,1.2452232837677002
4202755042.0,-0.3869797587394714,-0.1096785888075828,9.745068550109863,1.916495442390442,0.0848215371370315,1.2496031522750854
4202763375.0,-0.3659279346466064,-0.076399028301239,10.052992820739746,2.0363190174102783,0.1133045852184295,1.2442755699157717
4202771708.0,-0.4200764894485473,0.0604889802634716,10.001227378845217,2.233241081237793,0.5134502053260803,1.184056520462036
4202780041.0,-0.5096158981323242,0.0211029257625341,9.714744567871094,2.135676622390747,0.7731528878211975,1.2182002067565918
4202788374.0,-0.534122109413147,-0.1282856464385986,9.711892127990724,1.996155858039856,0.5348637104034424,1.1981186866760254
4202796707.0,-0.5017534494400024,-0.1381290405988693,9.974968910217283,2.054120779037476,0.0262161698192358,1.1010150909423828
4202805040.0,-0.5276143550872803,0.0478283613920211,10.112505912780762,2.1171061992645264,0.3424751162528991,1.2318781614303589
4202813373.0,-0.4957474172115326,0.0969600230455398,9.815401077270508,2.178375244140625,0.6214397549629211,1.3232442140579224
4202821706.0,-0.3651143908500671,-0.0448526106774807,9.64444637298584,1.8474647998809808,0.1289804726839065,1.1449178457260132
4202830039.0,-0.3312621712684631,-0.1474605649709701,9.927160263061523,1.797030687332153,-0.0384213477373123,1.3593345880508425
4202838372.0,-0.4069915115833282,-0.0634577572345733,10.143635749816896,2.067542552947998,0.4683946967124939,1.273680567741394
4202846705.0,-0.4742834270000458,-0.0027232184074819,9.814247131347656,2.0561954975128174,0.9594452381134032,1.3637659549713137
4202855038.0,-0.4500828087329864,-0.0972337871789932,9.705913543701172,1.7505409717559814,0.5831721425056458,1.2521390914916992
4202863371.0,-0.4766726493835449,-0.1861859411001205,9.996217727661133,1.7061771154403689,0.0550321899354457,1.2546494007110596
4202871704.0,-0.5070459246635437,-0.0827646553516388,10.13565444946289,1.8935962915420528,0.3913727104663849,1.2830810546875
4202880037.0,-0.4991294145584106,-0.0792461857199668,9.85086441040039,2.061344146728516,0.6192882061004639,1.284643530845642
4202888370.0,-0.4011135101318359,-0.178524449467659,9.640172004699709,1.923052430152893,0.4187542796134949,1.2183793783187866
4202896703.0,-0.3141249418258667,-0.2516717612743377,9.935101509094238,1.844545125961304,-0.0315055102109909,1.277010440826416
4202905036.0,-0.3480295240879059,-0.1500622481107711,10.206619262695312,2.09753680229187,0.2842795848846435,1.3533921241760254
4202913369.0,-0.4553575813770294,-0.0370868556201458,9.93025016784668,2.1750454902648926,0.9700495004653932,1.3107445240020752
4202921702.0,-0.4828151166439056,-0.1687140613794326,9.564120292663574,2.114314079284668,0.8559636473655701,1.3048275709152222
4202930035.0,-0.475718080997467,-0.3325641751289367,9.831439018249512,1.9866783618927,0.2084102183580398,1.2348238229751587
4202938368.0,-0.482770174741745,-0.2556936144828796,10.247535705566406,2.077685594558716,0.234792873263359,1.232416033744812
4202946701.0,-0.503885805606842,-0.0441777147352695,10.011163711547852,2.3992726802825928,0.6884722709655762,1.2218631505966189
4202955034.0,-0.4522394835948944,-0.0464976243674755,9.571465492248535,2.2165915966033936,0.6368594765663147,1.200500726699829
4202963367.0,-0.3777079284191131,-0.2370647639036178,9.73684787750244,1.972744345664978,0.0798011347651481,1.2415090799331665
4202971700.0,-0.3670589029788971,-0.3121984302997589,10.156660079956056,2.0818099975585938,0.1255737841129303,1.1688416004180908
4202980033.0,-0.4072690308094024,-0.1338838785886764,10.074703216552734,2.422428131103516,0.6531245708465576,1.3270350694656372
4202988366.0,-0.5296995043754578,-0.006971264258027,9.651361465454102,2.3037827014923096,1.008291482925415,1.3101552724838257
4202996699.0,-0.5365786552429199,-0.1483504623174667,9.671751022338867,2.146408796310425,0.4665504693984985,1.2541370391845703
4203005032.0,-0.4973554313182831,-0.267334371805191,10.060771942138672,2.1113431453704834,-0.0067621585913002,1.221043348312378
4203013365.0,-0.5057082176208496,-0.1092383861541748,10.198312759399414,2.220101118087769,0.3648107647895813,1.2544443607330322
4203021698.0,-0.5382130146026611,0.0046921852044761,9.862910270690918,2.2977631092071533,0.7811957001686096,1.3283157348632812
4203030031.0,-0.4215277433395386,-0.1335397362709045,9.55869960784912,2.1058614253997803,0.4889628887176513,1.3087207078933716
4203038364.0,-0.319752424955368,-0.2466152310371399,9.929909706115724,2.0120880603790283,-0.1832954585552215,1.2702996730804443
4203046697.0,-0.3843610882759094,-0.1136630177497863,10.269261360168455,2.2943568229675293,0.2361248135566711,1.2464271783828735
4203055030.0,-0.4766162037849426,0.0287837646901607,9.96773624420166,2.395174503326416,1.1786264181137085,1.2802892923355105
4203063363.0,-0.5004589557647705,-0.0391234718263149,9.486458778381348,2.2096760272979736,0.9513510465621948,1.304443359375
4203071696.0,-0.5123081207275391,-0.2358839511871338,9.80654239654541,2.0076563358306885,0.1278278529644012,1.2074934244155884
4203080029.0,-0.5111120343208313,-0.1628748923540115,10.337772369384766,2.212160587310791,0.0900724604725837,1.3551340103149414
4203088362.0,-0.491054505109787,0.1373860985040664,10.050378799438477,2.4564692974090576,0.6195443868637085,1.239664912223816
4203096695.0,-0.4308022856712341,0.0823812782764434,9.535136222839355,2.265899181365967,0.6324539184570312,1.2919692993164062
4203105028.0,-0.3709885478019714,-0.1928057521581649,9.694504737854004,1.934194803237915,0.0020875600166618,1.3433256149291992
4203113361.0,-0.3570247888565063,-0.1589514762163162,10.198503494262695,2.0539417266845703,-0.0344255343079566,1.342429280281067
4203121694.0,-0.4538178443908691,-0.0006129286484792,10.169429779052734,2.386823892593384,0.7559656500816345,1.3304673433303833
4203130027.0,-0.5245599150657654,0.0637377128005027,9.642632484436035,2.288772821426392,1.098223090171814,1.223963499069214
4203138360.0,-0.4799907505512237,-0.0400981269776821,9.61233901977539,2.0385727882385254,0.2453203648328781,1.349755048751831
4203146693.0,-0.4948540031909942,-0.096112735569477,10.16834831237793,2.0021493434906006,-0.1227946504950523,1.328648805618286
4203155026.0,-0.5129076838493347,-0.0083216214552521,10.27094841003418,2.2549362182617188,0.6776118278503418,1.270350694656372
4203163359.0,-0.5035768151283264,0.0984242111444473,9.720070838928224,2.208984613418579,0.8019944429397583,1.3269070386886597
4203171692.0,-0.3957853615283966,-0.0581732764840126,9.570097923278809,1.936679720878601,0.2346648424863815,1.172555685043335
4203180025.0,-0.3337662518024444,-0.1166597679257392,10.102747917175291,1.89364755153656,-0.2836264073848724,1.3085927963256836
4203188358.0,-0.367653876543045,0.049833171069622,10.28208065032959,2.14932918548584,0.4007987678050995,1.2484251260757446
4203196691.0,-0.4626310169696808,0.1097238808870315,9.812273979187012,2.252426147460937,1.1659215688705444,1.3671724796295166
4203205024.0,-0.521083652973175,-0.105062261223793,9.555760383605955,1.7551772594451904,0.7739213109016418,1.3400216102600098
4203213357.0,-0.5009665489196777,-0.2282728552818298,9.97665023803711,1.8065845966339111,-0.0255886204540729,1.268045425415039
4203221690.0,-0.4896173477172851,-0.084622785449028,10.28901481628418,2.073561906814575,0.1812847554683685,1.1793947219848633
4203230023.0,-0.5241250991821289,0.1034908592700958,9.933911323547363,2.186981678009033,0.7661601901054382,1.369247317314148
4203238356.0,-0.4679655134677887,0.0309264007955789,9.493252754211426,1.8356571197509768,0.68411785364151,1.2434046268463137
4203246689.0,-0.3485650420188904,-0.2178021818399429,9.764564514160156,1.7404487133026123,-0.1099362894892692,1.1253228187561035
4203255022.0,-0.3742498755455017,-0.2602148354053497,10.23257064819336,1.8913934230804443,0.1169417947530746,1.265458345413208
4203263355.0,-0.4752517938613891,-0.0312222819775342,10.064870834350586,2.162571430206299,0.9756078124046326,1.218763828277588
4203271688.0,-0.5079352259635925,0.0191137380897998,9.587546348571776,2.1359071731567383,1.0396177768707275,1.2998584508895874
4203280021.0,-0.5105888843536377,-0.1571391224861145,9.720429420471191,1.823515772819519,0.2118937522172927,1.124451994895935
4203288354.0,-0.4951229095458984,-0.2122330516576767,10.15372085571289,1.899743676185608,0.0307242721319198,1.1876167058944702
4203296687.0,-0.5146234631538391,-0.0580879226326942,10.088512420654297,2.2365198135375977,0.5017188787460327,1.2800586223602295
4203305020.0,-0.5109474062919617,-0.0234100818634033,9.620095252990724,2.141746997833252,0.8000733852386475,1.2677123546600342
4203313353.0,-0.4025472104549408,-0.166703313589096,9.564563751220703,1.909425973892212,0.2365346550941467,1.154523253440857
4203321686.0,-0.3260896205902099,-0.2400074750185012,10.11988639831543,1.9969755411148071,-0.3685376346111297,1.2145373821258545
4203330019.0,-0.3989668786525726,-0.0804101154208183,10.251917839050291,2.172048568725586,0.5232347846031189,1.3288792371749878
4203338352.0,-0.5146067142486572,0.0228184331208467,9.720205307006836,2.136291265487671,1.2704789638519287,1.2783937454223633
4203346685.0,-0.5355072617530823,-0.163500964641571,9.466947555541992,1.817598938941956,0.4972107112407684,1.1577762365341189
4203355018.0,-0.5056140422821045,-0.3284881711006164,10.009100914001465,1.8656256198883057,-0.118875652551651,1.2388452291488647
4203363351.0,-0.464940071105957,-0.1465183049440384,10.357916831970217,2.114903450012207,0.2211917489767074,1.3188129663467407
4203371684.0,-0.4696291387081146,0.0648598000407219,9.86661148071289,2.391485929489136,0.8658508658409119,1.3057752847671509
4203380017.0,-0.4221798479557037,-0.0182937830686569,9.39580535888672,2.132653951644897,0.5217235684394836,1.281518578529358
4203388350.0,-0.3561760187149048,-0.2776346206665039,9.850414276123049,1.821082353591919,-0.2073216140270233,1.3037773370742798
4203396683.0,-0.356208324432373,-0.2489373981952667,10.32834529876709,2.094821691513061,0.0667378827929496,1.2970151901245115
4203405016.0,-0.4707485735416412,-0.0244743674993515,10.043593406677246,2.3009908199310303,0.9921546578407288,1.303598165512085
4203413349.0,-0.5266929864883423,0.0116704311221838,9.56079387664795,2.159292936325073,1.080677509307861,1.3179420232772827
4203421682.0,-0.4751430451869964,-0.1607536822557449,9.739378929138184,1.853689193725586,0.1826935410499572,1.1845430135726929
4203430015.0,-0.4615428447723388,-0.1468745172023773,10.234908103942873,1.89777147769928,-0.1463853567838668,1.286718249320984
4203438348.0,-0.4675065875053406,-0.0186362937092781,10.194387435913086,2.1949992179870605,0.6744611859321594,1.26356303691864
4203446681.0,-0.4741003513336181,0.0128014376387,9.661511421203612,2.103223323822021,0.9087546467781068,1.3355647325515747
4203455014.0,-0.3986944854259491,-0.1281807571649551,9.589628219604492,1.993517279624939,0.0357446633279323,1.2065457105636597
4203463347.0,-0.3356650769710541,-0.2401742339134216,10.120750427246094,1.8851693868637085,-0.1998934894800186,1.1431760787963867
4203471680.0,-0.3844079375267029,-0.0311865173280239,10.274736404418944,2.1805014610290527,0.4910888969898224,1.276703119277954
4203480013.0,-0.5305431485176086,0.0894246846437454,9.775054931640623,2.2305774688720703,1.180188775062561,1.25708270072937
4203488346.0,-0.5635684132575989,-0.151636928319931,9.530435562133787,1.92023515701294,0.6242316961288452,1.2454793453216553
4203496679.0,-0.506413996219635,-0.2857435643672943,9.95673942565918,1.941571950912476,-0.0809922143816948,1.2133080959320068
4203505012.0,-0.4779291749000549,-0.1048444435000419,10.32680892944336,2.100431442260742,0.0726803988218307,1.158851981163025
4203513345.0,-0.483534961938858,0.0967913344502449,9.998587608337402,2.171895265579224,0.808807909488678,1.2270883321762085
4203521678.0,-0.4141047894954681,0.0388687551021575,9.521395683288574,2.00996208190918,0.768465518951416,1.3048274517059326
4203530011.0,-0.3566612601280212,-0.2113663256168365,9.701987266540527,1.884221434593201,-0.0615253895521163,1.1557782888412476
4203538344.0,-0.3905436992645263,-0.2246582210063934,10.278944969177246,2.02771258354187,0.0865120887756347,1.2538808584213257
4203546677.0,-0.468231052160263,0.0154634611681103,10.087546348571776,2.2844696044921875,0.8091665506362915,1.3398423194885254
4203555010.0,-0.49314084649086,0.0975113213062286,9.548735618591309,2.1610348224639893,0.9193075895309448,1.2411506175994873
4203563343.0,-0.5381057858467102,-0.1282209753990173,9.667339324951172,1.8901127576828003,0.2879424095153808,1.227651834487915
4203571676.0,-0.5308749079704285,-0.1797880828380584,10.177922248840332,1.9239234924316408,0.0117441248148679,1.164743185043335
4203580009.0,-0.5212660431861877,0.0124561320990324,10.117712020874023,2.208292961120605,0.618596613407135,1.3056728839874268
4203588342.0,-0.5000470280647278,-0.0116036888211965,9.640689849853516,2.1428229808807373,0.6658549308776855,1.2512426376342771
4203596675.0,-0.3724400699138641,-0.1621810495853424,9.58091926574707,1.9284316301345823,0.1095136627554893,1.192765235900879
4203605008.0,-0.3107610940933227,-0.1615161746740341,10.095932006835938,1.9245386123657229,-0.1761234849691391,1.2301108837127686
4203613341.0,-0.3827612996101379,-0.0082685109227895,10.22607421875,2.200352430343628,0.4509513974189758,1.336384415626526
4203621674.0,-0.4778746962547302,0.0018032065127044,9.722895622253418,2.22901463508606,1.145891189575195,1.2617700099945068
4203630007.0,-0.4967348575592041,-0.1402048617601394,9.467878341674805,1.94344174861908,0.6365777850151062,1.2114380598068235
4203638340.0,-0.5164210796356201,-0.275747001171112,10.00867748260498,1.755996584892273,-0.1072980239987373,1.2485017776489258
4203646673.0,-0.5047321319580078,-0.111634150147438,10.313363075256348,2.1915154457092285,0.2982137501239776,1.226063847541809
4203655006.0,-0.4698273539543152,0.1312217563390731,9.86147403717041,2.333444118499756,0.8372652530670166,1.3059800863265991
4203663339.0,-0.4296617209911346,-0.0331191383302211,9.506685256958008,1.9924159049987795,0.4173967838287353,1.2841825485229492
4203671672.0,-0.3382268846035003,-0.27844899892807,9.84690284729004,1.7875277996063232,-0.0889326110482215,1.1070600748062134
4203680005.0,-0.3484864830970764,-0.1942927092313766,10.268665313720703,2.082347631454468,0.2080260217189788,1.242841124534607
4203688338.0,-0.4312281012535095,-0.0149371707811951,9.985121726989746,2.3505027294158936,0.929245948791504,1.3139203786849976
4203696671.0,-0.4856385886669159,-0.0282660089433193,9.614657402038574,2.138263702392578,0.9639021158218384,1.361870527267456
4203705004.0,-0.4659679234027862,-0.1646799594163894,9.777289390563965,1.9468482732772827,0.1899935901165008,1.19115149974823
4203713337.0,-0.4963063597679138,-0.181001991033554,10.1976318359375,1.968927502632141,-0.050383199006319,1.2061870098114014
4203721670.0,-0.5118184089660645,-0.1082880869507789,10.137386322021484,2.181065082550049,0.7537117004394531,1.2564679384231567
4203730003.0,-0.500441312789917,0.0013631650945171,9.663710594177246,2.1583704948425293,0.7950529456138611,1.2178927659988403
4203738336.0,-0.4214049577713012,-0.1609838306903839,9.648805618286133,1.9220536947250368,0.2830244600772857,1.2612577676773071
4203746669.0,-0.3294800221920013,-0.2494731098413467,10.125969886779783,1.9689536094665527,-0.1455913186073303,1.2499619722366333
4203755002.0,-0.3827466368675232,-0.0541000962257385,10.22828769683838,2.159779787063598,0.5718249678611755,1.301907658576965
4203763335.0,-0.5101314187049866,0.0505858622491359,9.780776023864746,2.222201347351074,1.076630473136902,1.234490990638733
4203771668.0,-0.5403568744659424,-0.1724918633699417,9.584500312805176,1.978225946426392,0.696028470993042,1.1674327850341797
4203780001.0,-0.5011011362075806,-0.3291839957237243,9.97168254852295,1.962396144866944,-0.1756624281406402,1.2819539308547974
4203788334.0,-0.4833240509033203,-0.1263917684555053,10.26307487487793,2.2642853260040283,0.2162481695413589,1.305186152458191
4203796667.0,-0.5164836049079895,0.0886652618646621,9.984512329101562,2.3038084506988525,0.8763014078140259,1.297527551651001
4203805000.0,-0.4842921793460846,-0.0022490662522614,9.517919540405272,2.0870349407196045,0.6058918833732605,1.221478819847107
4203813333.0,-0.3887595236301422,-0.2533231079578399,9.716900825500488,1.918365359306336,-0.045721411705017,1.1629247665405271
4203821666.0,-0.401942104101181,-0.2606988549232483,10.230154037475586,2.011037588119507,0.0089521743357181,1.362152099609375
4203829999.0,-0.463363379240036,-0.0223946329206228,10.142072677612305,2.4264492988586426,0.9250198006629944,1.3145354986190796
4203838332.0,-0.5151178240776062,0.0736071020364761,9.580352783203123,2.2876200675964355,1.0023233890533447,1.252062201499939
4203846665.0,-0.5088303685188293,-0.146159142255783,9.64658260345459,1.8700824975967407,0.1585393100976944,1.313254714012146
4203854998.0,-0.4684044420719147,-0.2211600691080093,10.179698944091797,1.879457235336304,-0.0870883986353874,1.2364118099212646
4203863331.0,-0.4580028653144836,-0.0044551854953169,10.21420192718506,2.247406005859375,0.6009740233421326,1.1751171350479126
4203871664.0,-0.4798363447189331,0.0579834729433059,9.668086051940918,2.17399525642395,0.9386721849441528,1.2748078107833862
4203879997.0,-0.3968421816825866,-0.1436037868261337,9.579845428466797,1.966212511062622,0.2466010451316833,1.173144817352295
4203888330.0,-0.3512438833713531,-0.2058028429746627,10.036876678466797,2.0045828819274902,-0.2353692054748535,1.240638256072998
4203896663.0,-0.3725895285606384,-0.0190041847527027,10.294846534729004,2.123612403869629,0.2654787302017212,1.1529864072799685
4203904996.0,-0.4905744194984436,0.0770359188318252,9.854940414428713,2.123023271560669,1.064873456954956,1.2556482553482056
4203913329.0,-0.5178835988044739,-0.1094662174582481,9.470221519470217,1.973922610282898,0.610374391078949,1.2356690168380735
4203921662.0,-0.5064421892166138,-0.2801517248153686,9.870904922485352,1.8646008968353271,0.0172511879354715,1.3687349557876587
4203929995.0,-0.4496046602725982,-0.1459074914455413,10.30327033996582,2.157371759414673,0.0016521182842552,1.157238483428955
4203938328.0,-0.4572329521179199,0.1366432011127472,10.023138046264648,2.3141567707061768,0.7189531922340393,1.2984752655029297
4203946661.0,-0.4355995953083038,0.0669342055916786,9.500411033630373,2.0281991958618164,0.7729223370552063,1.2683018445968628
4203954994.0,-0.3667534291744232,-0.2453977465629577,9.720958709716797,1.8005653619766235,0.0517279431223869,1.1738619804382324
4203963327.0,-0.3608153462409973,-0.2194836586713791,10.221551895141602,1.959655404090881,-0.002791951643303,1.270939826965332
4203971660.0,-0.472806304693222,0.0096425293013453,10.128787994384766,2.277451515197754,0.9230218529701232,1.2906886339187622
4203979993.0,-0.5291930437088013,0.056201908737421,9.63162899017334,2.204015254974365,1.179164171218872,1.2564678192138672
4203988326.0,-0.5058087706565857,-0.1241888925433158,9.640228271484377,1.8883966207504272,0.330769419670105,1.263153076171875
4203996659.0,-0.4810828864574432,-0.2132484763860702,10.119524002075195,1.8614250421524048,0.0218617524951696,1.179753303527832
4204004992.0,-0.4914389550685882,-0.0583530478179454,10.23987865447998,2.123586654663086,0.5740790367126465,1.292558193206787
4204013325.0,-0.4753436744213104,0.0067671132273972,9.738033294677734,2.1684882640838623,0.9040928483009338,1.208082675933838
4204021658.0,-0.3988885879516601,-0.1520605087280273,9.52375316619873,1.9883946180343628,0.3059236109256744,1.110876441001892
4204029991.0,-0.3213056921958923,-0.2469685673713684,10.004358291625977,1.9366282224655151,-0.1565541923046112,1.1940715312957764
4204038324.0,-0.3741421699523926,-0.0900767818093299,10.264366149902344,2.144308567047119,0.4871443510055542,1.308925747871399
4204046657.0,-0.4968922436237335,-0.002648742403835,9.815834045410156,2.296969175338745,1.0582393407821655,1.2928143739700315
4204054990.0,-0.5268768668174744,-0.1525675505399704,9.495240211486816,1.985090613365173,0.8591911792755127,1.3499343395233154
4204063323.0,-0.5129895806312561,-0.3416540622711181,9.853551864624023,1.94285249710083,-0.051049169152975,1.2722206115722656
4204071656.0,-0.4930975139141083,-0.1931631118059158,10.272151947021484,2.258855104446411,0.068582110106945,1.134621024131775
4204079989.0,-0.4823809564113617,0.0960298478603363,9.970617294311523,2.4622323513031006,0.7608836889266968,1.1948912143707275
4204088322.0,-0.4489452540874481,0.0594287700951099,9.502767562866213,2.1548104286193848,0.7573489546775818,1.3208621740341189
4204096655.0,-0.3889944851398468,-0.2570593655109405,9.723761558532717,1.949256181716919,0.0556725412607193,1.2572877407073977
4204104988.0,-0.3661027550697326,-0.2239617109298706,10.270554542541504,1.9777135848999023,0.0467331744730472,1.336153864860535
4204113321.0,-0.4347426891326904,0.0226967819035053,10.14071273803711,2.324094772338867,0.891926109790802,1.2301108837127686
4204121654.0,-0.5089981555938721,0.1135845184326171,9.651375770568848,2.228271961212158,1.1213783025741575,1.3385871648788452
4204129987.0,-0.50263512134552,-0.0537510626018047,9.731524467468262,1.8906763792037964,0.3494934439659118,1.2599003314971924
4204138320.0,-0.486337274312973,-0.1549582928419113,10.19843864440918,1.975536227226257,-0.1748171299695968,1.2206335067749023
4204146653.0,-0.5109571814537048,-0.0148889357224106,10.251605033874512,2.061779499053955,0.4416278302669525,1.3137924671173096
4204154986.0,-0.499212384223938,0.0353045500814914,9.770559310913086,2.063521146774292,0.8608815670013428,1.2462990283966064
4204163319.0,-0.4158052504062652,-0.1657103151082992,9.613229751586914,1.8149093389511108,0.2688342034816742,1.180342197418213
4204171652.0,-0.342606782913208,-0.2496026158332824,10.063250541687012,1.8770751953125,-0.2443085610866546,1.1776272058486938
4204179985.0,-0.3829589784145355,-0.0962081998586654,10.297937393188477,2.1081154346466064,0.3696774542331695,1.2658681869506836
4204188318.0,-0.4605035483837127,0.0453157871961593,9.825812339782717,2.216489553451538,1.2270371913909912,1.274013638496399
4204196651.0,-0.5241725444793701,-0.1500451415777206,9.561328887939451,1.9612177610397337,0.6959259510040283,1.2056236267089844
4204204984.0,-0.4907436668872833,-0.3523939847946167,9.946979522705078,1.9827593564987185,-0.0575551763176918,1.154190182685852
4204213317.0,-0.4859616160392761,-0.1675127446651458,10.325489044189451,2.264695405960083,0.0319537557661533,1.1029105186462402
4204221650.0,-0.507813036441803,0.0807398110628128,9.965622901916504,2.4178428649902344,0.8833197951316833,1.2141531705856323
4204229983.0,-0.4470595717430115,0.049038540571928,9.519027709960938,2.165721893310547,0.7402130365371704,1.2915081977844238
4204238316.0,-0.3833835422992706,-0.2089713364839553,9.681296348571776,1.9391897916793823,-0.0097077954560518,1.2648437023162842
4204246649.0,-0.3552468121051788,-0.2504470646381378,10.177863121032717,2.1182589530944824,0.097936026751995,1.343530535697937
4204254982.0,-0.4062907993793487,-0.0104019222781062,10.045950889587402,2.3118255138397217,0.8284540176391602,1.1832879781723022
4204263315.0,-0.4625422060489654,0.1002216935157775,9.552231788635254,2.174482107162476,1.1081870794296265,1.2940696477890017
4204271648.0,-0.4922520816326141,-0.0816926211118698,9.647052764892578,1.9279192686080933,0.3561531603336334,1.3362051248550415
4204279981.0,-0.4758377969264984,-0.1986616402864456,10.099656105041504,1.945362567901612,0.0612308271229267,1.245402455329895
4204288314.0,-0.5010879039764404,-0.0285946801304817,10.148272514343262,2.1401333808898926,0.6283812522888184,1.285693645477295
4204296647.0,-0.5251641273498535,0.0377957001328468,9.697821617126465,2.1615211963653564,0.9121612906455994,1.289177179336548
4204304980.0,-0.4292535781860351,-0.1368495225906372,9.525117874145508,1.9056607484817505,0.2678352296352386,1.255622625350952
4204313313.0,-0.3309409618377685,-0.228359654545784,9.996737480163574,1.8429569005966189,-0.1294543445110321,1.3230648040771484
4204321646.0,-0.3675557971000671,-0.0444445498287677,10.27596378326416,2.103479385375977,0.4020794332027435,1.253086805343628
4204329979.0,-0.4724625647068023,0.0093293245881795,9.857170104980469,2.114672899246216,1.334335207939148,1.1826989650726318
4204338312.0,-0.5096650123596191,-0.1444775760173797,9.533974647521973,2.008296728134156,0.7709500193595886,1.3328750133514404
4204346645.0,-0.4981400072574615,-0.3330782353878021,9.875097274780272,1.846338033676148,-0.0926979109644889,1.247887134552002
4204354978.0,-0.4844321012496948,-0.1942635476589203,10.345321655273438,2.1591391563415527,0.0269845947623252,1.138616919517517
4204363311.0,-0.4849376678466797,0.0907452031970024,10.028589248657228,2.4022183418273926,0.8187974691390991,1.2734757661819458
4204371644.0,-0.4545155167579651,0.0097514167428016,9.512550354003906,2.115799903869629,0.8004321455955505,1.2853864431381226
4204379977.0,-0.3872891366481781,-0.2796144187450409,9.755571365356444,1.89667010307312,0.0085679618641734,1.160414457321167
4204388310.0,-0.3873590528964996,-0.2492881417274475,10.257147789001465,2.099483728408813,0.0959125086665153,1.221530199050903
4204396643.0,-0.4559266567230224,-0.0444797128438949,10.13666534423828,2.444148540496826,0.8403646349906921,1.3026247024536133
4204404976.0,-0.4924264550209045,0.0131739228963851,9.645936965942385,2.2604689598083496,1.0936894416809082,1.259977102279663
4204413309.0,-0.4855923652648926,-0.1434705555438995,9.713963508605955,2.0029947757720947,0.3343554437160492,1.2143324613571167
4204421642.0,-0.4798593819141388,-0.2126040160655975,10.18195343017578,2.032067060470581,0.0276505649089813,1.1637187004089355
4204429975.0,-0.4972324073314667,-0.0817169472575187,10.238499641418455,2.1748149394989014,0.6353226900100708,1.2100036144256592
4204438308.0,-0.501067578792572,0.0086435405537486,9.701898574829102,2.2937674522399902,0.8706405758857727,1.259567141532898
4204446641.0,-0.4349530637264251,-0.1764467358589172,9.566632270812988,1.9983073472976685,0.2490087896585464,1.1625405550003052
4204454974.0,-0.3572581708431244,-0.2461775988340377,10.114668846130373,1.8968491554260247,-0.1534292697906494,1.257261872291565
4204463307.0,-0.3828797936439514,-0.0816826224327087,10.286640167236328,2.213646411895752,0.4357109665870666,1.330979824066162
4204471640.0,-0.4890229403972626,0.0259357299655675,9.820459365844728,2.3198940753936768,1.1243752241134644,1.3430439233779907
4204479973.0,-0.5550436973571777,-0.1693688035011291,9.55073356628418,2.011831760406494,0.8195658922195435,1.3111542463302612
4204488306.0,-0.5080159902572632,-0.3205017149448395,9.895639419555664,2.092695951461792,-0.0108860488981008,1.3161746263504028
4204496639.0,-0.5013094544410706,-0.1160930171608924,10.2866792678833,2.317768096923828,0.1660955101251602,1.2309305667877195
4204504972.0,-0.4873705208301544,0.1169706210494041,9.972295761108398,2.363131046295166,0.7778659462928772,1.3355389833450315
4204513305.0,-0.4485595822334289,0.0360473878681659,9.585981369018556,2.1245601177215576,0.6545077562332153,1.3058520555496216
4204521638.0,-0.3736385107040405,-0.2117259800434112,9.731229782104492,1.968671798706055,-0.0051228473894298,1.3384335041046145
4204529971.0,-0.3980604112148285,-0.2138245105743408,10.224098205566406,2.018465757369995,0.2057975977659225,1.28190279006958
4204538304.0,-0.4449892938137054,0.0217837374657392,10.099178314208984,2.3090336322784424,0.7611141800880432,1.260002613067627
4204546637.0,-0.5298154354095459,0.1169603243470192,9.672558784484863,2.1760447025299072,1.0100845098495483,1.2016791105270386
4204554970.0,-0.5424291491508484,-0.071693480014801,9.659996032714844,1.964906454086304,0.3719571530818939,1.3039054870605469
4204563303.0,-0.4981588423252105,-0.1046673730015754,10.052815437316896,1.8987191915512085,-0.0416487455368042,1.2743722200393677
4204571636.0,-0.4870215654373169,0.0141356633976101,10.16906452178955,2.077634811401367,0.4892191290855407,1.2286251783370972
4204579969.0,-0.5304390788078308,-0.0068576214835047,9.8107328414917,2.106553316116333,0.8752255439758301,1.1748865842819214
4204588302.0,-0.4428109228610992,-0.1120557934045791,9.626312255859377,2.047461032867432,0.2739314436912536,1.0898215770721436
4204596635.0,-0.329096257686615,-0.1503027081489563,9.916436195373535,1.958784461021424,-0.1627528518438339,1.1584678888320925
4204604968.0,-0.3470128774642944,0.0305673014372587,10.205368041992188,2.082501173019409,0.2361760437488556,1.240484595298767
4204613301.0,-0.4178783297538757,0.0886067077517509,9.902097702026367,2.198431491851806,0.9266846179962158,1.222733974456787
4204621634.0,-0.5050002932548523,-0.1198600679636001,9.623485565185549,1.915394186973572,0.641342043876648,1.2445828914642334
4204629967.0,-0.5315732359886169,-0.2524894475936889,9.862578392028809,1.867290735244751,0.1342570036649704,1.2692238092422483
4204638300.0,-0.4904020130634308,-0.0906746536493301,10.196253776550291,2.139749050140381,0.0949647724628448,1.1588263511657717
4204646633.0,-0.5122309923171997,0.1544605195522308,9.992119789123535,2.222841739654541,0.5667790174484253,1.2887163162231443
4204654966.0,-0.4847462177276611,0.0339919477701187,9.668285369873049,1.8988984823226929,0.6370388269424438,1.222042441368103
4204663299.0,-0.3756378889083862,-0.2205431163311004,9.704895973205566,1.8442121744155884,0.0329270996153354,1.2295472621917725
4204671632.0,-0.3586804270744324,-0.1875534206628799,10.061269760131836,1.9570428133010864,-0.0755619928240776,1.1930469274520874
4204679965.0,-0.4301391243934631,-0.0403852798044681,10.09597110748291,2.116799116134644,0.5283064246177673,1.217662334442139
4204688298.0,-0.4394860863685608,0.0246290564537048,9.721336364746094,2.0582449436187744,0.9001482129096985,1.265228033065796
4204696631.0,-0.4636225998401642,-0.1099082306027412,9.699238777160645,1.789167046546936,0.3116612136363983,1.289433479309082
4204704964.0,-0.4992587864398956,-0.2073770761489868,10.06379222869873,1.762451410293579,-0.0435954295098781,1.2108234167099
4204713297.0,-0.5397096872329712,-0.0270628556609153,10.14341926574707,2.000638484954834,0.4607360661029815,1.290868043899536
4204721630.0,-0.5337358713150024,0.0093980561941862,9.687616348266602,2.024331569671631,0.6117319464683533,1.3121020793914795
4204729963.0,-0.4419539868831634,-0.1601918339729309,9.59426212310791,1.6892459392547607,0.0207347217947244,1.1989895105361938
4204738296.0,-0.3041494190692901,-0.1981783211231231,10.092348098754885,1.817675828933716,-0.3225344121456146,1.3081573247909546
4204746629.0,-0.3594130277633667,-0.0617313124239444,10.236685752868652,1.997257232666016,0.2773381471633911,1.3386127948760986
4204754962.0,-0.4862121939659118,0.0158975850790739,9.746928215026855,2.0059916973114014,1.2165865898132324,1.2295986413955688
4204763295.0,-0.4690404236316681,-0.2115065455436706,9.565152168273926,1.8746931552886963,0.6893431544303894,1.2091072797775269
4204771628.0,-0.4802692532539367,-0.3585323393344879,9.9063138961792,1.8998973369598389,-0.0823753699660301,1.2430970668792725
4204779961.0,-0.4847334325313568,-0.1789253950119018,10.307244300842283,2.1542980670928955,0.2064635306596756,1.1972990036010742
4204788294.0,-0.4842670559883117,0.029078871011734,9.885625839233398,2.29855751991272,0.778941810131073,1.160158395767212
4204796627.0,-0.4517272412776947,-0.0302083194255828,9.452956199645996,2.14748477935791,0.5288955569267273,1.316405177116394
4204804960.0,-0.3983438014984131,-0.3001871705055237,9.814390182495115,1.8006421327590942,0.0407650545239448,1.2234766483306885
4204813293.0,-0.3841010928153991,-0.2720948755741119,10.223546981811523,2.1098318099975586,0.0599245056509971,1.2386404275894165
4204821626.0,-0.4415333867073059,-0.0385173857212066,10.03052806854248,2.442278861999512,0.6936206817626953,1.233312487602234
4204829959.0,-0.4938908219337463,-0.0416391901671886,9.591763496398926,2.175199270248413,0.916182816028595,1.2833372354507446
4204838292.0,-0.4855982661247253,-0.1661552488803863,9.738420486450195,2.02512526512146,0.3602257966995239,1.1684061288833618
4204846625.0,-0.4661826193332672,-0.2133949249982834,10.138708114624023,1.9355524778366089,-0.0036372211761772,1.2260637283325195
4204854958.0,-0.489078015089035,-0.088536724448204,10.12298583984375,2.257216215133667,0.5508469939231873,1.2797255516052246
4204863291.0,-0.469478964805603,-0.0596278607845306,9.70107650756836,2.2073962688446045,0.9428215026855468,1.2018582820892334
4204871624.0,-0.3941972255706787,-0.2033185958862304,9.572049140930176,2.070232391357422,0.2607401609420776,1.2568522691726685
4204879957.0,-0.3421024978160858,-0.2884990274906158,10.040170669555664,2.027174472808838,-0.0857820659875869,1.1614134311676023
4204888290.0,-0.3799519538879394,-0.0617341473698616,10.238463401794434,2.33272671699524,0.4751568436622619,1.2617956399917605
4204896623.0,-0.4905135929584503,0.0152711160480976,9.819501876831056,2.384339570999145,0.9955099821090698,1.4084372520446775
4204904956.0,-0.5139706134796143,-0.1866475939750671,9.509700775146484,2.1226134300231934,0.6787900924682617,1.3104372024536133
4204913289.0,-0.4758967757225036,-0.26624396443367,9.874051094055176,2.122434139251709,-0.0066597019322216,1.2580304145812988
4204921622.0,-0.4984236657619476,-0.101677767932415,10.304864883422852,2.225403070449829,0.1888409405946731,1.2776252031326294
4204929955.0,-0.4871188700199127,0.1221048906445503,9.990778923034668,2.463820695877075,0.8669009804725647,1.3009341955184937
4204938288.0,-0.3841862678527832,0.1179111897945404,9.575393676757812,2.1410810947418213,0.7035845518112183,1.2882294654846191
4204946621.0,-0.3422622382640838,-0.1680435985326767,9.76389217376709,1.8861682415008545,0.0310572572052478,1.1605682373046875
4204954954.0,-0.401102602481842,-0.2022882550954818,10.254920959472656,2.048434257507324,0.1411216109991073,1.228215217590332
4204963287.0,-0.4601960778236389,0.0445490628480911,10.083701133728027,2.362029552459717,0.8994055390357971,1.2235023975372314
4204971620.0,-0.4838100373744964,0.0884287059307098,9.610370635986328,2.15624475479126,1.047839879989624,1.2580302953720093
4204979953.0,-0.5159407258033752,-0.0967373177409172,9.711798667907717,1.856250524520874,0.2098446041345596,1.3016000986099243
4204988286.0,-0.5065851807594299,-0.1293527483940124,10.189559936523438,1.8867827653884888,0.1376124769449234,1.3230648040771484
4204996619.0,-0.5082207918167114,0.0284328889101743,10.186759948730469,2.174686908721924,0.5346587896347046,1.2843104600906372
4205004952.0,-0.5069633722305298,0.0041256584227085,9.708855628967283,2.178144931793213,0.8768649697303772,1.1734778881072998
4205013285.0,-0.3751482367515564,-0.1093256846070289,9.658921241760254,1.8264615535736084,0.3154777288436889,1.1982979774475098
4205021618.0,-0.362425148487091,-0.1215113252401351,10.142145156860352,2.0287880897521973,-0.0832462534308433,1.1580579280853271
4205029951.0,-0.4254920482635498,0.043760959059,10.246484756469728,2.1395442485809326,0.4910120666027069,1.1917918920516968
4205038284.0,-0.4724557399749756,0.1333766877651214,9.757326126098633,2.119232177734375,1.1271928548812866,1.2256540060043335
4205046617.0,-0.5245452523231506,-0.0695095211267471,9.66354274749756,1.830636501312256,0.5552269220352173,1.2504485845565796
4205054950.0,-0.5431432723999023,-0.2530614137649536,10.065969467163086,1.8905737400054927,0.0385110005736351,1.189819574356079
4205063283.0,-0.51833176612854,0.0354797430336475,10.25008773803711,2.103633165359497,0.3003909587860107,1.2886650562286377
4205071616.0,-0.5053995847702026,0.1928702145814895,9.88322925567627,2.2162845134735107,0.7870614528656006,1.2812881469726562
4205079949.0,-0.4666883051395416,0.0090248184278607,9.578186988830566,1.7656019926071167,0.5630136728286743,1.2697618007659912
4205088282.0,-0.3606992363929748,-0.2069816142320633,9.861985206604004,1.6200108528137207,-0.1357810646295547,1.1713262796401978
4205096615.0,-0.3986837565898895,-0.079021155834198,10.233532905578612,1.98404061794281,0.0644069984555244,1.304213047027588
4205104948.0,-0.4741516411304474,0.0428845733404159,10.003178596496582,2.124790668487549,0.771564781665802,1.2976555824279783
4205113281.0,-0.4727075695991516,0.0425422750413417,9.622173309326172,1.6981343030929563,0.8469475507736206,1.230034112930298
4205121614.0,-0.4666016399860382,-0.0869146063923835,9.803423881530762,1.5202946662902832,0.1025209873914718,1.1901270151138306
4205129947.0,-0.5550814867019653,-0.0860453397035598,10.261319160461426,1.699286937713623,0.0044184559956192,1.1698918342590332
4205138280.0,-0.5271094441413879,0.0414513610303401,10.113924980163574,1.7836089134216309,0.6081204414367676,1.2231183052062988
4205146613.0,-0.4749900102615356,-0.0286531932651996,9.605558395385742,1.848796963691712,0.5818913578987122,1.2103878259658811
4205154946.0,-0.393421471118927,-0.1982972919940948,9.717940330505373,1.5850473642349243,0.0339772813022136,1.2371034622192385
4205163279.0,-0.3051987290382385,-0.1593481451272964,10.17627239227295,1.7246191501617432,0.0892271772027015,1.2223496437072754
4205171612.0,-0.3821345567703247,0.0016470353584736,10.15402126312256,1.8804560899734497,0.6558908820152283,1.2450183629989624
4205179945.0,-0.4706044793128967,-0.0800678208470344,9.67394733428955,1.7823280096054075,0.9670781493186952,1.2216068506240845
4205188278.0,-0.4780733287334442,-0.2912007868289947,9.626580238342283,1.664810061454773,0.575667142868042,1.2146655321121216
4205196611.0,-0.4872432351112366,-0.2776137590408325,10.089998245239258,1.684251308441162,0.0846934765577316,1.222221851348877
4205204944.0,-0.5081290602684021,-0.0273275189101696,10.220535278320312,2.005966186523437,0.4298965334892273,1.207595944404602
4205213277.0,-0.4884606301784515,0.0337294712662696,9.768657684326172,1.966699242591858,0.7773791551589966,1.2727584838867188
4205221610.0,-0.3986183702945709,-0.130143865942955,9.535529136657717,1.672980785369873,0.2779528796672821,1.3391505479812622
4205229943.0,-0.3727655708789825,-0.2779355347156524,10.002469062805176,1.5077948570251465,-0.102969229221344,1.3005244731903076
4205238276.0,-0.3907504677772522,-0.1401596963405609,10.235267639160156,1.9475656747817995,0.2363553643226623,1.3253446817398071
4205246609.0,-0.4609383344650268,-0.048982486128807,9.880375862121582,2.051098346710205,0.8549391031265259,1.275166392326355
4205254942.0,-0.4826648235321045,-0.1348757147789001,9.580670356750488,1.7442140579223633,0.8272501230239868,1.223630428314209
4205263275.0,-0.4898045361042022,-0.2332027554512024,9.930010795593262,1.6885031461715698,0.1253688633441925,1.124349594116211
4205271608.0,-0.4958620071411133,-0.1660553365945816,10.161821365356444,1.810836672782898,0.16740183532238,1.2233229875564575
4205279941.0,-0.511725664138794,-0.129662737250328,9.851256370544434,2.083705186843872,0.6691334247589111,1.31151282787323
4205288274.0,-0.4323035180568695,-0.2738112211227417,9.591023445129396,1.887961268424988,0.6013325452804565,1.318172574043274
4205296607.0,-0.3589870035648346,-0.347213864326477,9.797568321228027,1.9223610162734983,-0.0928003638982772,1.2799817323684692
4205304940.0,-0.3445752263069153,-0.1731150150299072,10.128851890563965,2.058756828308105,0.0004994775517843,1.2440706491470337
4205313273.0,-0.4077014029026031,-0.0507821589708328,9.94121265411377,2.300555467605591,0.7137278318405151,1.258260726928711
4205321606.0,-0.4329933822154999,-0.2023792713880539,9.593790054321287,1.99397873878479,0.7941309213638306,1.381977677345276
4205329939.0,-0.4872825443744659,-0.3856539726257324,9.738445281982422,1.8970543146133425,0.3528489172458648,1.3261898756027222
4205338272.0,-0.4932524263858795,-0.2710998058319092,10.135116577148438,2.160266399383545,0.1774426251649856,1.3656870126724243
4205346605.0,-0.4885198175907135,-0.0077387178316712,10.010069847106934,2.498194694519043,0.467242032289505,1.35887348651886
4205354938.0,-0.4725569188594818,-0.0340229384601116,9.6508150100708,2.166721105575561,0.7114481925964355,1.3398423194885254
4205363271.0,-0.3746007084846496,-0.2089342623949051,9.728094100952148,2.073664426803589,0.2901964783668518,1.3230905532836914
4205371604.0,-0.3489102721214294,-0.2680077254772186,10.019230842590332,2.164390087127685,0.0346432514488697,1.321195125579834
4205379937.0,-0.3812619745731354,-0.10588139295578,10.024531364440918,2.3493244647979736,0.593776285648346,1.365046501159668
4205388270.0,-0.4407457411289215,-0.0131342420354485,9.764374732971191,2.223712921142578,0.9589585661888124,1.3772391080856323
4205396603.0,-0.4861133992671966,-0.1176383644342422,9.711822509765623,2.132551670074463,0.5179582834243774,1.4036474227905271
4205404936.0,-0.499657541513443,-0.1852217018604278,9.99263858795166,2.113725185394287,0.2213966399431228,1.3228856325149536
4205413269.0,-0.4881758093833923,-0.0234848950058221,10.087096214294434,2.1684885025024414,0.3701641261577606,1.3646624088287354
4205421602.0,-0.5298355221748352,0.0329859256744384,9.85364818572998,2.380138874053955,0.6601428985595703,1.244864583015442
4205429935.0,-0.4275649189949035,-0.0918815359473228,9.708477020263672,2.1153900623321533,0.4097124934196472,1.1288065910339355
4205438268.0,-0.3473654091358185,-0.1378705203533172,9.92992877960205,2.014930963516236,-0.0881385803222656,1.3285720348358154
4205446601.0,-0.3417190909385681,-0.0179922133684158,10.133552551269531,2.127556800842285,0.2000599950551986,1.2863595485687256
4205454934.0,-0.4361051619052887,0.0833784118294715,10.00312328338623,2.186034202575684,0.9680771827697754,1.2458378076553345
4205463267.0,-0.5166319012641907,0.0300430357456207,9.776219367980955,2.006376028060913,1.0269899368286133,1.2434813976287842
4205471600.0,-0.5250042676925659,-0.1614723056554794,9.863940238952637,1.905660629272461,0.2937056124210357,1.2250903844833374
4205479933.0,-0.5382876396179199,-0.093725211918354,10.222220420837402,1.9238979816436768,0.0519584752619266,1.2750637531280518
4205488266.0,-0.5149190425872803,0.1729422509670257,10.164846420288086,2.074817419052124,0.6618334650993347,1.2958369255065918
4205496599.0,-0.493914395570755,0.1857570111751556,9.782361030578612,2.062675714492798,0.610374391078949,1.2750381231307983
4205504932.0,-0.4215161502361297,-0.0567379668354988,9.818718910217283,1.647750973701477,0.297931969165802,1.270401954650879
4205513265.0,-0.4015933573246002,-0.1291933953762054,10.187334060668944,1.613581657409668,0.0313134044408798,1.262999415397644
4205521598.0,-0.4888487160205841,0.0717868655920028,10.205039024353027,1.97843074798584,0.5901391506195068,1.291866660118103
4205529931.0,-0.5794857740402222,0.1478558629751205,9.84756851196289,1.7986445426940918,1.131675362586975,1.1261171102523804
4205538264.0,-0.5187230706214905,-0.0073168636299669,9.76047134399414,1.5821529626846311,0.4057935178279876,1.2162280082702637
4205546597.0,-0.5117177367210388,-0.0795813798904419,10.13895320892334,1.4365360736846924,-0.1028923913836479,1.1895636320114136
4205554930.0,-0.5706748962402344,0.0408046431839466,10.305963516235352,1.694676160812378,0.535094141960144,1.258875608444214
4205563263.0,-0.562765896320343,0.1395260691642761,9.90383243560791,1.769930720329285,0.951479196548462,1.213256597518921
4205571596.0,-0.446097582578659,0.0027543380856513,9.59411334991455,1.4479598999023438,0.3087668418884277,1.1758599281311035
4205579929.0,-0.3472347557544708,-0.0856552943587303,10.064858436584473,1.2647156715393066,-0.084219604730606,1.070662260055542
4205588262.0,-0.3755832314491272,0.1070765405893325,10.371213912963867,1.4635332822799685,0.3403235077857971,1.2697104215621948
4205596595.0,-0.465581476688385,0.204976737499237,9.919575691223145,1.5795402526855469,1.0675116777420044,1.2065969705581665
4205604928.0,-0.5190213322639465,-0.0136541845276951,9.6000394821167,1.261027216911316,0.7607043385505676,1.2481175661087036
4205613261.0,-0.5071723461151123,-0.1371414512395858,9.947651863098145,1.0744531154632568,-0.0116032483056187,1.247169852256775
4205621594.0,-0.4875910580158233,0.0606865733861923,10.31491756439209,1.3954763412475586,0.0512925051152706,1.2349263429641724
4205629927.0,-0.4949760437011719,0.2053476721048355,10.063958168029783,1.2820053100585938,0.7440295219421387,1.2154850959777832
4205638260.0,-0.4566982388496399,0.0899625867605209,9.625819206237791,1.1000672578811646,0.5916504263877869,1.260438084602356
4205646593.0,-0.3598806858062744,-0.1224209293723106,9.763988494873049,0.7919793128967285,-0.0691584423184394,1.2300596237182615
4205654926.0,-0.3467918038368225,-0.1047676280140876,10.243529319763184,1.0227123498916626,-0.1600121259689331,1.278572916984558
4205663259.0,-0.402951180934906,0.0380688793957233,10.085722923278809,1.3134340047836304,0.7176724672317505,1.249705791473389
4205671592.0,-0.4507462978363037,0.0169149748980999,9.649211883544922,1.155496597290039,0.8872642517089844,1.2877684831619265
4205679925.0,-0.4945618808269501,-0.1396735608577728,9.805124282836914,0.8715883493423462,0.2127390205860138,1.2851814031600952
4205688258.0,-0.4560008943080902,-0.0975075587630271,10.154647827148438,0.927017629146576,0.0930949375033378,1.2032928466796875
4205696591.0,-0.5135465264320374,-0.015723567456007,10.062034606933594,1.0676909685134888,0.5114010572433472,1.2123345136642456
4205704924.0,-0.4973258078098297,-0.09292783588171,9.692978858947754,1.0344181060791016,0.697513997554779,1.2797255516052246
4205713257.0,-0.3829699158668518,-0.2087556719779968,9.716107368469238,0.8810657262802124,0.0784435868263244,1.3212974071502686
4205721590.0,-0.3221430778503418,-0.1657741814851761,10.060824394226074,0.9931535124778748,-0.2908496260643005,1.3109748363494873
4205729923.0,-0.3603390753269195,-0.0499251559376716,10.074697494506836,1.2338758707046509,0.4440355598926544,1.3944772481918335
4205738256.0,-0.4493731260299682,-0.1159050092101097,9.6926851272583,1.125322937965393,1.0532444715499878,1.3731919527053833
4205746589.0,-0.4719231128692627,-0.308230310678482,9.663683891296388,0.8625721335411072,0.4243638217449188,1.3279316425323486
4205754922.0,-0.4835751056671142,-0.3472490608692169,10.024194717407228,1.0039371252059937,-0.0130376443266868,1.340200662612915
4205763255.0,-0.4859512150287628,-0.1524569988250732,10.059600830078123,1.258747696876526,0.298367440700531,1.2335431575775146
4205771588.0,-0.4974526762962341,-0.0810014382004737,9.738786697387695,1.2832860946655271,0.6740001440048218,1.3394579887390137
4205779921.0,-0.4240517020225525,-0.2972296774387359,9.587084770202637,1.0558316707611084,0.3507229387760162,1.3697084188461304
4205788254.0,-0.3449439406394958,-0.4096347987651825,9.917010307312012,1.0622094869613647,-0.2617518603801727,1.3364866971969604
4205796587.0,-0.4200643301010132,-0.3118675947189331,10.052823066711426,1.4090006351470947,0.0567227192223072,1.3432999849319458
4205804920.0,-0.485517293214798,-0.2801363468170166,9.754676818847656,1.4676059484481812,0.817004382610321,1.2535734176635742
4205813253.0,-0.456591248512268,-0.2975193858146667,9.597427368164062,1.3509074449539185,0.6069164872169495,1.182545185089111
4205821586.0,-0.4453337788581848,-0.3804517090320587,9.879205703735352,1.3959885835647583,0.0580802746117115,1.319145679473877
4205829919.0,-0.5120657682418823,-0.3669562637805938,10.075346946716309,1.5645813941955566,0.231667935848236,1.3132033348083496
4205838252.0,-0.5011223554611206,-0.3007641434669494,9.76172924041748,1.7174729108810425,0.6606295704841614,1.2453769445419312
4205846585.0,-0.4723670780658722,-0.3496849536895752,9.541748046875,1.6303077936172483,0.416628360748291,1.2683017253875732
4205854918.0,-0.3797267973423004,-0.4979016482830047,9.813910484313965,1.5258017778396606,-0.0324276275932788,1.2525745630264282
4205863251.0,-0.3448548316955566,-0.3565931916236877,10.072274208068848,1.7397315502166748,0.1695277988910675,1.2941975593566897
4205871584.0,-0.409029483795166,-0.2236142754554748,9.838842391967772,2.0428249835968018,0.8432078957557678,1.2128212451934814
4205879917.0,-0.4919303953647613,-0.3723114728927612,9.536506652832031,1.861553192138672,0.8112669587135315,1.235874056816101
4205888250.0,-0.4738897681236267,-0.5550358891487122,9.724306106567385,1.8023585081100464,0.3113794326782226,1.2211458683013916
4205896583.0,-0.4572721123695373,-0.4480431675910949,10.056486129760742,2.1142375469207764,0.1288523972034454,1.17944598197937
4205904916.0,-0.4848307967185974,-0.2546777725219726,9.957417488098145,2.4371819496154785,0.6352202296257019,1.2196601629257202
4205913249.0,-0.4161969423294067,-0.2139102965593338,9.550307273864746,2.3110060691833496,0.7301466464996338,1.2261149883270264
4205921582.0,-0.3681384921073913,-0.333822637796402,9.617131233215332,2.0305044651031494,0.0644069984555244,1.2524209022521973
4205929915.0,-0.3227379322052002,-0.4639390707015991,10.04423713684082,2.195997953414917,-0.0232577268034219,1.2937623262405396
4205938248.0,-0.3332152068614959,-0.3184248507022857,10.008770942687988,2.512308359146118,0.5079687237739563,1.102577567100525
4205946581.0,-0.4293132126331329,-0.1766252517700195,9.654590606689451,2.55872106552124,0.9107781052589417,1.303393006324768
4205954914.0,-0.4736700654029846,-0.2493374049663543,9.678601264953612,2.229552745819092,0.5487465262413025,1.177294373512268
4205963247.0,-0.4352394640445709,-0.2854076623916626,10.04699420928955,2.2758374214172363,0.2529533803462982,1.2406895160675049
4205971580.0,-0.4551514685153961,-0.1393689960241317,10.111200332641602,2.4948649406433105,0.5115034580230713,1.232288122177124
4205979913.0,-0.4724762737751007,-0.1025160104036331,9.81320858001709,2.4919958114624023,0.80373615026474,1.2638702392578125
4205988246.0,-0.4029373228549957,-0.1710365861654281,9.642200469970703,2.2669496536254883,0.5062781572341919,1.3582332134246826
4205996579.0,-0.3123053312301636,-0.2265016436576843,9.9741792678833,2.277656078338623,-0.1074004992842674,1.3467323780059814
4206004912.0,-0.2993223667144775,-0.109381690621376,10.216789245605469,2.4945061206817627,0.1988817155361175,1.3083109855651855
4206013245.0,-0.406828761100769,0.0608806535601615,9.92943286895752,2.4991936683654785,1.0233782529830933,1.3551596403121948
4206021578.0,-0.4895659685134887,-0.0580774433910846,9.65180492401123,2.318971872329712,0.7556071281433105,1.2845666408538818
4206029911.0,-0.464994341135025,-0.2630699276924133,9.899640083312988,2.097332000732422,0.3232131898403168,1.3387919664382937
4206038244.0,-0.4687333405017853,-0.184221550822258,10.258685111999512,2.331907033920288,0.1825398355722427,1.2597720623016355
4206046577.0,-0.5124953389167786,0.0251221396028995,10.038347244262695,2.588024139404297,0.6530733704566956,1.3232698440551758
4206054910.0,-0.4629981219768524,0.0848896503448486,9.681631088256836,2.3855433464050293,0.754889965057373,1.2198907136917114
4206063243.0,-0.3685335516929626,-0.0916130989789962,9.828645706176758,2.2363147735595703,0.076343223452568,1.1604657173156738
4206071576.0,-0.3365093767642975,-0.1936016827821731,10.164673805236816,2.2472777366638184,-0.0645222589373588,1.3159443140029907
4206079909.0,-0.4293843805789947,0.0256761200726032,10.1342134475708,2.4691994190216064,0.7781476378440857,1.2808014154434204
4206088242.0,-0.5068450570106506,0.0933935344219207,9.738265991210938,2.4945061206817627,0.981524646282196,1.3708866834640503
4206096575.0,-0.5163968205451965,-0.0551614165306091,9.692405700683594,2.2449724674224854,0.3632738590240478,1.1503736972808838
4206104908.0,-0.5050269365310669,-0.073165014386177,10.127708435058594,2.102890491485596,-0.0085551543161273,1.1864386796951294
4206113241.0,-0.5236688256263733,0.0438977666199207,10.225327491760254,2.37737250328064,0.4608896970748901,1.2248855829238892
4206121574.0,-0.5359833240509033,0.0694875195622444,9.757213592529297,2.2361865043640137,0.9173097014427184,1.2378206253051758
4206129907.0,-0.4448534250259399,-0.0597165338695049,9.591543197631836,2.02778959274292,0.4413973391056061,1.3381516933441162
4206138240.0,-0.3687149882316589,-0.1518879681825637,10.049687385559082,1.975203275680542,-0.2023012042045593,1.174527883529663
4206146573.0,-0.3948602080345154,-0.0166192725300788,10.250083923339844,2.2008135318756104,0.2822816967964172,1.1978113651275637
4206154906.0,-0.4818205833435058,0.0827597975730896,9.82870388031006,2.2166941165924072,1.1284222602844238,1.1959669589996338
4206163239.0,-0.5555626749992371,-0.0788686946034431,9.59554672241211,1.9403423070907595,0.8457179665565491,1.2404333353042605
4206171572.0,-0.5451616048812866,-0.2503698766231537,9.871620178222656,1.8454415798187256,0.1298257559537887,1.289740800857544
4206179905.0,-0.5287424325942993,-0.159081369638443,10.223311424255373,2.0890841484069824,0.1624839156866073,1.133007287979126
4206188238.0,-0.4990912079811096,0.0478457994759082,9.906498908996582,2.2545266151428223,0.642853319644928,1.3030089139938354
4206196571.0,-0.4930045008659363,-0.0363087020814418,9.633708000183104,2.026585340499878,0.5839661359786987,1.197913646697998
4206204904.0,-0.3654150366783142,-0.2439933717250824,9.771411895751951,1.7151418924331665,0.1189397051930427,1.2387683391571045
4206213237.0,-0.3388459682464599,-0.2247145920991897,10.081802368164062,1.973333477973938,-0.036039225757122,1.2757552862167358
4206221570.0,-0.4212050139904022,-0.1250422000885009,10.037137031555176,2.1202566623687744,0.7703865170478821,1.314355969429016
4206229903.0,-0.4917409718036651,-0.1275966614484787,9.651402473449709,2.025586605072021,1.0221744775772097,1.3128961324691772
4206238236.0,-0.4851134419441223,-0.159422218799591,9.708698272705078,1.8370912075042725,0.3544881939888,1.308336615562439
4206246569.0,-0.4916426539421081,-0.2580413818359375,10.08286476135254,1.8475418090820312,0.0186343546956777,1.26819908618927
4206254902.0,-0.4972505271434784,-0.1537587493658065,10.142024040222168,1.992620825767517,0.5736948847770691,1.284054398536682
4206263235.0,-0.4622478485107422,-0.0730448812246322,9.737142562866213,2.100380182266236,0.8309130668640137,1.2472467422485352
4206271568.0,-0.364361822605133,-0.2294268310070037,9.63642406463623,1.864447236061096,0.1990866363048553,1.186822772026062
4206279901.0,-0.3007321953773498,-0.2947107553482055,10.058013916015623,1.849334955215454,-0.1826807409524917,1.2087485790252686
4206288234.0,-0.3165793418884277,-0.1160437762737274,10.195818901062012,2.0249717235565186,0.4708280563354492,1.1942765712738037
4206296567.0,-0.4538920521736145,-0.0477604418992996,9.794897079467772,2.113110303878784,1.0005816221237185,1.2924814224243164
4206304900.0,-0.4905543327331543,-0.2694416642189026,9.617944717407228,1.8942112922668457,0.5860152244567871,1.2329283952713013
4206313233.0,-0.464606761932373,-0.358846366405487,9.960092544555664,1.9870115518569944,0.0041623134166002,1.284643530845642
4206321566.0,-0.4845603704452514,-0.1825995743274688,10.245872497558594,2.191336154937744,0.2114070802927017,1.1892305612564087
4206329899.0,-0.4719560742378235,-0.038444735109806,9.98796272277832,2.2475593090057373,0.8205392360687256,1.213717699050903
4206338232.0,-0.3942286670207977,-0.0845583826303482,9.58607006072998,2.0097312927246094,0.6669306755065918,1.2754992246627808
4206346565.0,-0.3586707413196563,-0.3065806329250335,9.835271835327148,1.827562689781189,0.0204529669135808,1.152807116508484
4206354898.0,-0.3310230672359466,-0.3086655735969543,10.217201232910156,1.9962071180343628,0.1179919838905334,1.2310329675674438
4206363231.0,-0.4208898544311523,-0.0924537703394889,10.035228729248049,2.362285852432251,0.9825491905212402,1.1624892950057983
4206371564.0,-0.5215440392494202,-0.048220507800579,9.618261337280272,2.10593843460083,1.022584080696106,1.3302624225616455
4206379897.0,-0.5294905304908752,-0.2183374315500259,9.73324489593506,1.922207355499268,0.2450897842645645,1.2857961654663086
4206388230.0,-0.4992223978042602,-0.2651077210903168,10.158462524414062,2.0544023513793945,0.0421226099133491,1.1712749004364014
4206396563.0,-0.5211677551269531,-0.0939238369464874,10.165897369384766,2.250197649002075,0.7151879072189331,1.1331610679626465
4206404896.0,-0.5337833762168884,-0.0816264599561691,9.749021530151367,2.2369039058685303,0.9620322585105896,1.2992435693740845
4206413229.0,-0.410502165555954,-0.2187379598617553,9.577774047851562,1.9481801986694336,0.2346904277801513,1.3117176294326782
4206421562.0,-0.3407047688961029,-0.2440816164016723,10.035804748535156,1.9811713695526123,-0.2508658170700073,1.166075348854065
4206429895.0,-0.3925191462039947,-0.0783295333385467,10.24251651763916,2.189107656478882,0.6154203414916992,1.2759345769882202
4206438228.0,-0.480589210987091,-0.0361340939998626,9.774725914001465,2.256627082824707,1.251063346862793,1.2871025800704956
4206446561.0,-0.5440461039543152,-0.1899099647998809,9.45984935760498,2.016263008117676,0.7098345756530762,1.1622331142425537
4206454894.0,-0.5321583151817322,-0.3198642134666443,9.9801025390625,2.003481388092041,-0.0493074022233486,1.279597520828247
4206463227.0,-0.4989080727100372,-0.1331199556589126,10.286105155944824,2.2226881980896,0.2598179876804352,1.2581071853637695
4206471560.0,-0.5138101577758789,0.0693411529064178,9.898849487304688,2.246611833572388,0.884421169757843,1.2165608406066897
4206479893.0,-0.4179449379444122,-0.0161512680351734,9.524657249450684,1.932555675506592,0.7138303518295288,1.2735525369644165
4206488226.0,-0.3548345565795898,-0.2690014541149139,9.783767700195312,1.877280235290528,-0.1480759084224701,1.2459404468536377
4206496559.0,-0.3640113770961761,-0.2109474241733551,10.220438957214355,2.12007737159729,0.0731158331036567,1.3042385578155518
4206504892.0,-0.4328354299068451,0.0206682123243808,10.04261875152588,2.3345963954925537,0.9473552703857422,1.3119739294052124
4206513225.0,-0.486763447523117,-0.0086716879159212,9.578705787658691,2.187827110290528,0.929245948791504,1.333310604095459
4206521558.0,-0.4666132032871246,-0.1702937632799148,9.750690460205078,1.918954491615296,0.1150975599884986,1.2194039821624756
4206529891.0,-0.4740195274353027,-0.1563328951597213,10.244718551635742,1.904021382331848,0.0255245845764875,1.1911771297454834
4206538224.0,-0.4968584775924682,-0.0429864898324012,10.111886978149414,2.1162095069885254,0.6828626990318298,1.2584657669067385
4206546557.0,-0.467054933309555,-0.0443807356059551,9.609217643737791,2.12781310081482,0.8942569494247437,1.308874487876892
4206554890.0,-0.3707917034626007,-0.1974478960037231,9.671772003173828,1.8172916173934937,0.09370968490839,1.2902785539627075
4206563223.0,-0.314363032579422,-0.2094951122999191,10.135772705078123,2.0203356742858887,-0.3114691078662872,1.2688651084899902
4206571556.0,-0.3956164717674255,-0.0352597199380397,10.181666374206545,2.0158021450042725,0.6792511343955994,1.3831303119659424
4206579889.0,-0.4675676822662353,-0.0245358794927597,9.747710227966309,2.064494609832764,1.1726324558258057,1.3803383111953735
4206588222.0,-0.4981599152088165,-0.2611835896968841,9.572053909301758,1.9437745809555047,0.4426011443138122,1.2576972246170044
4206596555.0,-0.4874703288078308,-0.3371390104293823,10.03147315979004,1.9288157224655151,-0.1315290778875351,1.2844384908676147
4206604888.0,-0.4593178033828735,-0.1304923892021179,10.272878646850586,2.1473567485809326,0.3372498154640198,1.1944814920425415
4206613221.0,-0.4455201625823974,0.0673369616270065,9.843917846679688,2.1984312534332275,0.9893625974655152,1.2218374013900757
4206621554.0,-0.4225777685642242,-0.1134502366185188,9.542037010192873,1.9390616416931152,0.4762070775032043,1.2541884183883667
4206629887.0,-0.3478383421897888,-0.3267617225646972,9.905529022216797,1.753409743309021,-0.1731522381305694,1.208902359008789
4206638220.0,-0.4004077017307281,-0.2213866263628006,10.228947639465332,2.1085000038146973,0.2497772127389907,1.2395113706588743
4206646553.0,-0.4900206327438354,-0.0786957442760467,9.920862197875977,2.243973731994629,1.0033481121063232,1.2757810354232788
4206654886.0,-0.4882482588291168,-0.1005494222044944,9.562660217285156,2.1198723316192627,0.8513274788856506,1.310641884803772
4206663219.0,-0.4662850201129913,-0.2309953272342682,9.844000816345217,1.9030992984771729,-0.0045337197370827,1.256954550743103
4206671552.0,-0.4863358736038208,-0.2264572232961654,10.254176139831545,1.9174686670303345,0.1044164150953292,1.2196089029312134
4206679885.0,-0.5040053725242615,-0.0765252858400344,10.0639009475708,2.2475080490112305,0.8135721683502197,1.2950685024261477
4206688218.0,-0.4636686444282532,-0.1380739510059356,9.550992012023926,2.016365528106689,0.7822971940040588,1.2574412822723389
4206696551.0,-0.3877656757831573,-0.3102763593196869,9.739359855651855,1.9428012371063232,-0.0248201917856931,1.1897428035736084
4206704884.0,-0.3330440521240234,-0.2396208494901657,10.231313705444336,2.0238702297210693,-0.0461056232452392,1.1939178705215454
4206713217.0,-0.4054744243621826,-0.0236114654690027,10.090001106262209,2.291589975357056,0.7370110750198364,1.3505488634109497
4206721550.0,-0.5395799875259399,-0.1021481081843376,9.578242301940918,2.147945642471313,1.1697893142700195,1.3331313133239746
4206729883.0,-0.5259743928909302,-0.3233062326908111,9.638694763183594,1.8485920429229736,0.3798206746578216,1.2951451539993286
4206738216.0,-0.4873537719249725,-0.334173172712326,10.159173011779783,2.049715042114258,-0.1362677216529846,1.230392575263977
4206746549.0,-0.513160228729248,-0.10824004560709,10.220544815063477,2.37037992477417,0.3870695531368255,1.2309049367904663
4206754882.0,-0.4819177389144897,0.0078320428729057,9.702548027038574,2.275325059890747,0.97960364818573,1.265893816947937
4206763215.0,-0.3908911645412445,-0.1321373432874679,9.510096549987791,2.014495611190796,0.2230359613895416,1.3330031633377075
4206771548.0,-0.3424823582172394,-0.3131182491779327,10.039302825927734,1.9300966262817385,-0.1509702950716018,1.2193528413772583
4206779881.0,-0.3635557293891907,-0.1867129057645797,10.25127124786377,2.147843360900879,0.5951852202415466,1.339944839477539
4206788214.0,-0.4604100584983825,0.0021241698414087,9.803325653076172,2.3355700969696045,1.0865685939788818,1.2941207885742188
4206796547.0,-0.5056831240653992,-0.080458328127861,9.553221702575684,2.098381996154785,0.5840685963630676,1.2399468421936035
4206804880.0,-0.4767124652862549,-0.2451527267694473,9.947359085083008,1.909810304641724,0.0108476299792528,1.2800331115722656
4206813213.0,-0.470077246427536,-0.1372260302305221,10.241290092468262,2.1677966117858887,0.2396595776081085,1.242687463760376
4206821546.0,-0.5113266110420227,-0.0492789186537265,9.933286666870115,2.2394397258758545,0.7742798924446106,1.3019330501556396
4206829879.0,-0.4501463770866394,-0.0714305490255355,9.615326881408691,2.101327896118164,0.7424926161766052,1.2887163162231443
4206838212.0,-0.3421186804771423,-0.2512408494949341,9.757551193237305,1.9980769157409668,-0.182988092303276,1.2260382175445557
4206846545.0,-0.3112126588821411,-0.2082018852233886,10.186524391174316,2.050201892852783,-0.0441845580935478,1.192355394363403
4206854878.0,-0.3769322335720062,-0.0221632234752178,10.081632614135742,2.3194589614868164,0.8704100847244263,1.2324161529541016
4206863211.0,-0.4950154423713684,-0.0211385115981102,9.70744800567627,2.236033201217652,1.1436371803283691,1.389559626579285
4206871544.0,-0.5406521558761597,-0.2650443017482757,9.656850814819336,1.99861478805542,0.4737992882728576,1.3044689893722534
4206879877.0,-0.4608045220375061,-0.3022268116474151,10.08779525756836,2.015187263488769,-0.0893936678767204,1.2318270206451416
4206888210.0,-0.4639343023300171,-0.0760863721370697,10.151507377624512,2.338976621627808,0.3834066987037658,1.2235023975372314
4206896543.0,-0.4734035134315491,0.0697637796401977,9.828232765197754,2.232498407363892,0.8861116170883179,1.352188229560852
4206904876.0,-0.424442708492279,-0.0650980472564697,9.59101676940918,1.9754852056503296,0.5636540651321411,1.2626665830612185
4206913209.0,-0.356507658958435,-0.2492676824331283,9.875792503356934,1.997077703475952,-0.105274498462677,1.2223496437072754
4206921542.0,-0.3841338157653808,-0.1875044852495193,10.199886322021484,2.152607679367065,0.3498776853084564,1.1513214111328125
4206929875.0,-0.482676237821579,-0.0042186602950096,9.995701789855955,2.311415910720825,0.9997621178627014,1.3011391162872314
4206938208.0,-0.5181387662887573,-0.0086423447355628,9.624993324279783,2.1576790809631348,0.752661406993866,1.2995253801345823
4206946541.0,-0.5233098864555359,-0.1883949786424636,9.803361892700195,1.8469525575637813,0.1052616909146308,1.1440212726593018
4206954874.0,-0.4515247642993927,-0.1540930420160293,10.172107696533203,2.044694662094116,0.0527268983423709,1.2832348346710205
4206963207.0,-0.4882232546806335,0.0108568668365478,10.047141075134276,2.224685907363892,0.7296854853630066,1.2810574769973757
4206971540.0,-0.4846519529819488,-0.0652161538600921,9.63850212097168,1.9839636087417605,0.8217175602912903,1.172273874282837
4206979873.0,-0.3887036740779876,-0.2166991233825683,9.676790237426758,1.940316796302796,0.0819271355867385,1.2115405797958374
4206988206.0,-0.3502501845359802,-0.2059141993522644,10.11306381225586,1.9971548318862915,-0.0390360951423645,1.2464016675949097
4206996539.0,-0.3919769823551178,-0.0408482328057289,10.187676429748535,2.0596022605896,0.6216959357261658,1.204163670539856
4207004872.0,-0.505442202091217,-0.0370557755231857,9.743000030517578,2.048357486724853,1.1838003396987915,1.1425869464874268
4207013205.0,-0.5124552249908447,-0.2305601090192794,9.605637550354004,1.894774794578552,0.5153968334197998,1.199040770530701
4207021538.0,-0.4985311031341553,-0.3436391353607178,10.002538681030272,1.9915450811386108,-0.1693100780248642,1.1404353380203247
4207029871.0,-0.4385108649730682,-0.1156135946512222,10.219959259033203,2.1993277072906494,0.3918337523937225,1.2858986854553225
4207038204.0,-0.4575960040092468,0.0462006852030754,9.871190071105955,2.3029375076293945,0.8435152173042297,1.1789849996566772
