SampleTimeFine,Acc_X,Acc_Y,Acc_Z,Gyr_X,Gyr_Y,Gyr_Z
2498076064.0,0.0,0.0,0.0,0.0,0.0,0.0
2498084397.0,-0.6341996788978577,0.2647911012172699,10.210582733154297,-0.2891718745231628,0.1964355558156967,1.2436479330062866
2498092730.0,-0.5957817435264587,0.138150006532669,10.163373947143556,-0.3744544386863708,-0.2947173714637756,1.246683120727539
2498101063.0,-0.5809755325317383,-4.33012974099e-05,10.18283748626709,-0.5472097396850586,-0.8539914488792419,1.236219882965088
2498109396.0,-0.6127625703811646,0.1538218855857849,10.276339530944824,-0.4277705252170563,-0.6859108209609985,1.3077603578567505
2498117729.0,-0.6338205933570862,0.2458575218915939,10.229960441589355,-0.2597795724868774,-0.0871652513742446,1.3289049863815308
2498126062.0,-0.539967954158783,0.1053972765803337,10.122617721557615,-0.4325347542762756,-0.3037463724613189,1.208633303642273
2498134395.0,-0.464154988527298,-0.0446905381977558,10.080037117004396,-0.5112729072570801,-0.99138605594635,1.2080954313278198
2498142728.0,-0.4924304485321045,0.0792888924479484,10.246991157531738,-0.4426267445087433,-0.8193866014480591,1.2138330936431885
2498151061.0,-0.5540377497673035,0.2834171056747436,10.29185390472412,-0.389169842004776,-0.2752377688884735,1.3003835678100586
2498159394.0,-0.5989575982093811,0.2333257347345352,10.183209419250488,-0.3638885915279388,-0.1758289039134979,1.3042255640029907
2498167727.0,-0.5807033777236938,-0.0349628441035747,10.067490577697754,-0.5919577479362488,-0.5820450186729431,1.2247958183288574
2498176060.0,-0.5806543231010437,-0.0765078663825988,10.135625839233398,-0.5062653422355652,-1.0959819555282593,1.3335411548614502
2498184393.0,-0.6148011684417725,0.2057586759328842,10.303048133850098,-0.3399521112442016,-0.7827709913253784,1.26112961769104
2498192726.0,-0.5731644630432129,0.369444340467453,10.31407070159912,-0.2769923210144043,-0.4435873031616211,1.2223496437072754
2498201059.0,-0.4934245645999908,0.1758383363485336,10.193509101867676,-0.5261932611465454,-0.5133348703384399,1.2604635953903198
2498209392.0,-0.4753508865833282,-0.0195570215582847,10.071261405944824,-0.6931339502334595,-1.0565743446350098,1.372256875038147
2498217725.0,-0.5241597294807434,0.0688416138291359,10.204666137695312,-0.5458009243011475,-1.0846986770629885,1.3240253925323486
2498226058.0,-0.6050805449485779,0.2416943460702896,10.23709201812744,-0.3017228543758392,-0.5469279289245605,1.2291759252548218
2498234391.0,-0.593864917755127,0.228890836238861,10.260581970214844,-0.4573294222354889,-0.2491624802350998,1.2523056268692017
2498242724.0,-0.5677353143692017,0.0480816699564456,10.18736457824707,-0.6038171648979187,-0.603509783744812,1.1512573957443235
2498251057.0,-0.6012426614761353,0.0948241129517555,10.163064002990724,-0.5407549142837524,-1.0280656814575195,1.4043772220611572
2498259390.0,-0.6186287999153137,0.2595292627811432,10.259469985961914,-0.4994391202926636,-0.9792194962501526,1.3078627586364746
2498267723.0,-0.5174793601036072,0.2235053032636642,10.23924446105957,-0.5932512879371643,-0.790916383266449,1.3043922185897827
2498276056.0,-0.4490289986133575,0.0067894826643168,10.153549194335938,-0.6270748376846313,-0.879298210144043,1.3938241004943848
2498284389.0,-0.4452046751976013,0.0169018600136041,10.119120597839355,-0.6352970600128174,-1.00929057598114,1.3592449426651
2498292722.0,-0.591264545917511,0.211715430021286,10.232047080993652,-0.4917548894882202,-0.9306548237800598,1.3570934534072876
2498301055.0,-0.6053021550178528,0.2970718741416931,10.228164672851562,-0.4827386736869812,-0.7334765195846558,1.375177025794983
2498309388.0,-0.5486301779747009,0.0757772177457809,10.1227388381958,-0.6675838232040405,-0.6348487734794617,1.343530535697937
2498317721.0,-0.5585227608680725,-0.1277006715536117,10.101622581481934,-0.6786491274833679,-1.0276943445205688,1.2837470769882202
2498326054.0,-0.6020598411560059,0.0431770347058773,10.155677795410156,-0.5628728270530701,-1.1501303911209106,1.3431463241577148
2498334387.0,-0.5817620754241943,0.2854346334934234,10.192501068115234,-0.3150934875011444,-1.0208169221878052,1.222337007522583
2498342720.0,-0.4470026195049286,0.2261871993541717,10.20615577697754,-0.4661918580532074,-0.9807049036026,1.2430330514907837
2498351053.0,-0.4459608495235443,-0.0074146641418337,10.187307357788086,-0.6984360814094543,-1.4245996475219729,1.4255090951919556
2498359386.0,-0.4869207739830017,-0.0768357440829277,10.03978157043457,-0.7550820708274841,-1.4951798915863037,1.3992416858673096
2498367719.0,-0.5830109715461731,0.1745251715183258,10.139628410339355,-0.60017991065979,-1.3426340818405151,1.3103216886520386
2498376052.0,-0.588257372379303,0.2375066727399826,10.202682495117188,-0.5636028051376343,-1.0695607662200928,1.3375240564346311
2498384385.0,-0.5249226689338684,0.0515346340835094,10.284627914428713,-0.7539422512054443,-1.042691707611084,1.3382670879364014
2498392718.0,-0.5265828371047974,0.0613474585115909,10.141834259033203,-0.7715135216712952,-1.1906392574310305,1.4500473737716677
2498401051.0,-0.6310918927192688,0.1363060772418975,10.166929244995115,-0.8809375166893005,-1.3830533027648926,1.4404422044754028
2498409384.0,-0.5192872285842896,0.2265259623527526,10.23256778717041,-0.6391648054122925,-1.516119360923767,1.3743317127227783
2498417717.0,-0.43406742811203,0.0883950814604759,10.19770336151123,-0.7795692086219788,-1.38708758354187,1.459563136100769
2498426050.0,-0.3933931887149811,-0.0396535322070121,10.214496612548828,-0.8931939601898193,-1.5596507787704468,1.490044116973877
2498434383.0,-0.4928682148456573,0.080656960606575,10.074737548828123,-0.8623672127723694,-1.7449313402175903,1.4662355184555054
2498442716.0,-0.5546459555625916,0.2677623033523559,10.338964462280272,-0.8399036526679993,-1.417632818222046,1.5676168203353882
2498451049.0,-0.5138532519340515,0.1554524153470993,10.240608215332031,-0.9744038581848145,-1.310027241706848,1.6662057638168335
2498459382.0,-0.550197184085846,-0.0597910732030868,10.172914505004885,-1.069996356964111,-1.3645600080490112,1.6613136529922483
2498467715.0,-0.605618953704834,-0.0076528517529368,10.088890075683594,-0.9320123195648192,-1.7812010049819946,1.5108044147491455
2498476048.0,-0.5666136741638184,0.2207151353359222,10.202791213989258,-0.5854517817497253,-1.5034915208816528,1.5105483531951904
2498484381.0,-0.4428240358829498,0.3075986206531524,10.397457122802734,-0.5367974638938904,-1.0252865552902222,1.5023901462554932
2498492714.0,-0.3822328150272369,0.0868826583027839,10.243490219116213,-0.6110531687736511,-0.4651032984256744,1.5262113809585571
2498501047.0,-0.4181037843227386,-0.0416608043015003,10.130996704101562,-0.7020221948623657,-0.8373421430587769,1.718459129333496
2498509380.0,-0.5532718300819397,0.0972672998905181,10.13206958770752,-0.6722327470779419,-1.0402580499649048,1.537801742553711
2498517713.0,-0.5924844741821289,0.2406368553638458,10.23751163482666,-0.5380398035049438,-0.8844723105430603,1.561085224151611
2498526046.0,-0.4646071195602417,0.1624959707260131,10.270377159118652,-0.4692271649837494,-0.6334143877029419,1.6257482767105105
2498534379.0,-0.5043421983718872,0.0242006443440914,10.287784576416016,-0.6125643849372864,-0.5806746482849121,1.6670897006988523
2498542712.0,-0.5862480998039246,0.0595364160835742,10.127820014953612,-0.5648579001426697,-0.4883994162082672,1.6883111000061035
2498551045.0,-0.6201106309890747,0.2320982068777084,10.173254013061523,-0.3956502377986908,-0.7246394157409668,1.6484551429748535
2498559378.0,-0.4787249565124511,0.1468066424131393,10.212407112121582,-0.3288483321666717,-0.8554513454437256,1.5589336156845093
2498567711.0,-0.4180550575256347,-0.004999837372452,10.21662712097168,-0.4235698282718658,-0.7602945566177368,1.428659439086914
2498576044.0,-0.4472374320030212,0.0045105479657649,10.097371101379396,-0.5317386388778687,-0.815134584903717,1.5327556133270264
2498584377.0,-0.5502968430519104,0.2039203941822052,10.19140625,-0.2162737846374511,-0.6237193942070007,1.5264804363250732
2498592710.0,-0.5315993428230286,0.2138485163450241,10.214374542236328,-0.2857395708560943,0.00778672657907,1.3826308250427246
2498601043.0,-0.5140891075134277,-0.0120453871786594,10.182937622070312,-0.2763007581233978,0.0925570502877235,1.267661452293396
2498609376.0,-0.5892511010169983,-0.0757556930184364,10.069879531860352,-0.420483261346817,-0.1687978208065033,1.264638900756836
2498617709.0,-0.6008458733558655,0.1394665539264679,10.121150970458984,-0.1906851679086685,-0.4935990869998932,1.1642436981201172
2498626042.0,-0.5199329853057861,0.3353538811206817,10.267111778259276,0.0274840723723173,-0.1022648364305496,1.1638596057891846
2498634375.0,-0.3831992447376251,0.1843859851360321,10.233800888061523,-0.2533504068851471,0.2040814161300659,1.1312143802642822
2498642708.0,-0.3816613852977752,-0.013847904279828,10.134033203125,-0.3431666493415832,0.3904377520084381,1.2488988637924194
2498651041.0,-0.4720232486724853,0.09262216091156,10.16780948638916,-0.2980600297451019,0.2012254148721695,1.1430864334106443
2498659374.0,-0.5547100901603699,0.3047965168952942,10.267984390258787,-0.1404556632041931,0.6410731077194214,1.0692663192749023
2498667707.0,-0.5191318988800049,0.261600911617279,10.299635887145996,-0.1500609964132309,0.7476794123649597,1.0347893238067627
2498676040.0,-0.5323217511177063,0.1044529676437377,10.238414764404297,-0.39616259932518,0.4688685834407806,1.1128361225128174
2498684373.0,-0.6108241677284241,0.0752908214926719,10.185598373413086,-0.5472096800804138,-0.2583580017089844,1.1046139001846311
2498692706.0,-0.6354585886001587,0.2006944715976715,10.268278121948242,-0.3774129450321197,-0.254387766122818,1.171543836593628
2498701039.0,-0.4965074360370636,0.1550307124853134,10.200963020324709,-0.3921411633491516,0.0286110993474721,1.046520709991455
2498709372.0,-0.4386194944381714,-0.0284826215356588,10.129369735717772,-0.4910120666027069,-0.0784692093729972,1.108122944831848
2498717705.0,-0.4699704051017761,-0.0398127250373363,10.147767066955566,-0.4098789393901825,-0.2162865847349167,1.0657697916030884
2498726038.0,-0.5405905246734619,0.1511895209550857,10.236605644226074,-0.2599588632583618,-0.1327585726976394,1.0648990869522097
2498734371.0,-0.5389524102210999,0.2157011330127716,10.310043334960938,-0.2062073945999145,0.3958679437637329,1.107047200202942
2498742704.0,-0.554574191570282,0.04585687443614,10.14953327178955,-0.4068436920642853,0.2514293193817138,1.1647815704345703
2498751037.0,-0.5266709923744202,-0.029026236385107,10.243621826171877,-0.3831505477428436,-0.3178854584693908,1.0835846662521362
2498759370.0,-0.5969263911247253,0.136719137430191,10.244980812072754,-0.3006086647510528,-0.3457922041416168,1.118663311004639
2498767703.0,-0.5494170188903809,0.3632571399211883,10.409117698669434,-0.218425378203392,0.0758949741721153,1.1076362133026123
2498776036.0,-0.4534829258918762,0.2472093999385833,10.241719245910645,-0.4191641211509704,0.0480266883969306,1.2484633922576904
2498784369.0,-0.4238205552101135,0.0339972488582134,10.179683685302734,-0.6279714107513428,-0.5195719003677368,1.1395772695541382
2498792702.0,-0.4657428562641144,0.0449845269322395,10.185848236083984,-0.6090808510780334,-0.6544180512428284,1.2121552228927612
2498801035.0,-0.5585013031959534,0.176567792892456,10.249022483825684,-0.4766680896282196,-0.2427588999271392,1.2946457862854004
2498809368.0,-0.5393455028533936,0.1963598132133484,10.221641540527344,-0.4345326721668243,0.0732567086815834,1.2022039890289309
2498817701.0,-0.5261062383651733,0.0660492703318595,10.175477981567385,-0.779300332069397,-0.1902753412723541,1.1001057624816897
2498826034.0,-0.5836791396141052,0.0843034088611602,10.199939727783203,-0.5899854898452759,-0.4010805189609527,1.1090195178985596
2498834367.0,-0.5929494500160217,0.2504924237728119,10.29281997680664,-0.4478777050971985,-0.3064614832401275,1.2026653289794922
2498842700.0,-0.5402613878250122,0.2379679381847381,10.198945045471191,-0.4786660671234131,-0.0870499834418296,1.0785129070281982
2498851033.0,-0.4141214489936828,0.1043026447296142,10.13002109527588,-0.6585676074028015,-0.1225385069847107,1.1053695678710938
2498859366.0,-0.3982059061527252,0.056099746376276,10.148425102233888,-0.5595173239707947,-0.2718694806098938,1.0206375122070312
2498867699.0,-0.4763006567955017,0.2305575907230377,10.233450889587402,-0.4097637236118316,0.084757499396801,1.0505166053771973
2498876032.0,-0.5759111642837524,0.2695191204547882,10.27418613433838,-0.4278473556041717,0.6850270628929138,1.0930875539779663
2498884365.0,-0.5415918231010437,0.0804909393191337,10.16010570526123,-0.5256937146186829,0.4661278128623962,0.9748265147209167
2498892698.0,-0.5910105109214783,-0.0465290732681751,10.020689964294434,-0.7124471068382263,-0.4264898002147674,1.1075594425201416
2498901031.0,-0.6116039752960205,0.0770501121878624,10.130386352539062,-0.4888348281383514,-0.8579103350639343,1.0401684045791626
2498909364.0,-0.567549467086792,0.2229111939668655,10.246733665466309,-0.4190488755702972,-0.674371600151062,1.0921268463134766
2498917697.0,-0.4324467480182647,0.1745291650295257,10.206348419189451,-0.5161012411117554,-0.4223274886608124,1.221171498298645
2498926030.0,-0.387555330991745,-0.0026680105365812,10.0875825881958,-0.8332053422927856,-0.6215806007385254,1.146762132644653
2498934363.0,-0.4372604489326477,0.001695223734714,10.08124542236328,-0.6790845990180969,-0.6733213663101196,1.1827499866485596
2498942696.0,-0.4980238378047943,0.1270201802253723,10.178466796875,-0.4501701295375824,-0.32694011926651,1.0963020324707031
2498951029.0,-0.4985460042953491,0.1963884532451629,10.248672485351562,-0.4737992882728576,0.0440820939838886,1.130048751831055
2498959362.0,-0.4825736880302429,0.0635172426700592,10.130836486816406,-0.6032536029815674,0.0763816460967063,1.0137089490890503
2498967695.0,-0.5203765034675598,0.0395480692386627,10.146493911743164,-0.5901007056236267,-0.2552714943885803,1.177473545074463
2498976028.0,-0.576840877532959,0.111269898712635,10.218944549560549,-0.471506804227829,-0.5681493282318115,1.2658170461654663
2498984361.0,-0.501335859298706,0.1144668757915496,10.169261932373049,-0.5473249554634094,-0.1478709727525711,1.1883594989776611
2498992694.0,-0.39234060049057,7.1528429543e-06,10.148860931396484,-0.7036229968070984,-0.123972900211811,1.1832879781723022
2499001027.0,-0.3895507454872131,-0.0823075324296951,10.061253547668455,-0.6742051243782043,-0.5441103577613831,1.206635355949402
2499009360.0,-0.4493415951728821,0.0454348586499691,10.103490829467772,-0.5062013268470764,-0.4808688461780548,1.2046886682510376
2499017693.0,-0.5215852856636047,0.117220789194107,10.197271347045898,-0.3304876685142517,-0.1438623517751693,1.2682377099990845
2499026026.0,-0.4920869767665863,0.0097350189462304,10.16491985321045,-0.4891166388988495,0.1586802005767822,1.1926500797271729
2499034359.0,-0.4905634224414825,-0.1317052990198135,10.111008644104004,-0.4579824805259704,0.0533800683915615,1.1931366920471191
2499042692.0,-0.5652033686637878,-0.0409071072936058,10.188931465148926,-0.2405945062637329,-0.2222803235054016,1.2225801944732666
2499051025.0,-0.5577644109725952,0.2162161320447921,10.274901390075684,-0.2018145322799682,-0.2366499155759811,1.2489116191864014
2499059358.0,-0.4663224518299103,0.2295204252004623,10.270187377929688,-0.384111076593399,-0.2267628461122512,1.197247862815857
2499067691.0,-0.4041317403316498,0.0197027325630188,10.168746948242188,-0.7718592882156372,-0.981870412826538,1.3428902626037598
2499076024.0,-0.4302561283111572,-0.0739173516631126,10.164016723632812,-0.9624933004379272,-1.5795656442642212,1.3070943355560305
2499084357.0,-0.4605278968811035,0.0996512770652771,10.29669952392578,-0.6482579112052917,-1.2554945945739746,1.3858838081359863
2499092690.0,-0.5289670825004578,0.233621135354042,10.32032299041748,-0.8226268887519836,-0.6634087562561035,1.4046207666397097
2499101023.0,-0.5207040309906006,0.0861774608492851,10.187618255615234,-0.9258393049240112,-0.9055783748626708,1.4457186460494995
2499109356.0,-0.5452219843864441,0.0168249309062957,10.235357284545898,-1.173093557357788,-1.4347941875457764,1.4091159105300903
2499117689.0,-0.5735458731651306,0.1164811700582504,10.249791145324709,-1.111798644065857,-1.5985459089279177,1.402148723602295
2499126022.0,-0.5006042718887329,0.1516185253858566,10.259075164794922,-0.9821394681930542,-1.1718641519546509,1.4571170806884766
2499134355.0,-0.3304947912693023,0.0392778478562831,10.28475284576416,-0.8720750212669373,-0.790340006351471,1.627579689025879
2499142688.0,-0.2358826100826263,-0.0549415275454521,10.237000465393066,-0.997738480567932,-0.7408533096313477,1.9946829080581665
2499151021.0,-0.5498495697975159,0.0975380316376686,10.15921688079834,-0.8389174342155457,-0.7612550854682922,2.159113645553589
2499159354.0,-0.6297959089279175,0.2962356507778168,10.36353588104248,-0.5233756303787231,-0.6957337856292725,1.7928555011749268
2499167687.0,-0.5479114651679993,0.1565084457397461,10.259142875671388,-0.5096848607063293,-0.2420417368412017,1.6716619729995728
2499176020.0,-0.5537924766540527,-0.0196606386452913,10.232284545898438,-0.7954115867614746,-0.0212213937193155,1.6107255220413208
2499184353.0,-0.7195822596549988,0.0326211526989936,10.03249454498291,-0.8549262881278992,-0.5414336919784546,1.4981380701065063
2499192686.0,-0.7035464644432068,0.2758422493934631,10.310837745666504,-0.2676303386688232,-0.6545076966285706,1.2192119359970093
2499201019.0,-0.4781387448310852,0.3522634506225586,10.461247444152832,-0.6032792925834656,-0.4378113448619842,1.2529971599578855
2499209352.0,-0.4323535859584808,0.1775478720664978,10.289579391479492,-0.8599339723587036,-0.4439075291156769,1.3581438064575195
2499217685.0,-0.4431114792823791,0.0728685036301612,10.197186470031738,-1.1411014795303345,-0.6202359199523926,1.2869616746902466
2499226018.0,-0.4866153597831726,0.1623119711875915,10.270745277404783,-0.8284411430358887,-0.7625101208686829,1.1574687957763672
2499234351.0,-0.4911785721778869,0.2254790663719177,10.437735557556152,-0.6847068667411804,-0.2744693160057068,1.2301491498947144
2499242684.0,-0.466436892747879,0.1422342807054519,10.399017333984377,-0.8196939826011658,0.2592929303646087,1.2639857530593872
2499251017.0,-0.5411268472671509,0.135031372308731,10.281438827514648,-1.0202789306640625,0.066597007215023,1.2263071537017822
2499259350.0,-0.6536625623703003,0.2149643898010254,10.199088096618652,-1.0026180744171145,-0.3543985486030578,1.146992564201355
2499267683.0,-0.6196290254592896,0.2047217488288879,10.21883773803711,-0.8443732261657715,-0.4596986770629883,1.2198394536972046
2499276016.0,-0.4725957810878753,0.0426736027002334,10.287182807922363,-0.8948332667350769,-0.6016271114349365,1.1438677310943604
2499284349.0,-0.4135702550411224,-0.0095473900437355,10.207926750183104,-0.9679108262062072,-0.5744248628616333,1.254828691482544
2499292682.0,-0.4838325977325439,0.1402386426925659,10.172064781188965,-0.835344135761261,-0.4189079999923706,1.1943148374557495
2499301015.0,-0.5361059904098511,0.2106940448284149,10.172179222106934,-0.5873983502388,-0.0851801335811615,1.1641925573349
2499309348.0,-0.5859823822975159,0.0553916171193122,10.188724517822266,-0.8297731876373291,0.135973185300827,1.2418420314788818
2499317681.0,-0.6235562562942505,-0.123150497674942,10.12979221343994,-0.8852664232254028,-0.2936800122261047,1.2148319482803345
2499326014.0,-0.5887861251831055,-0.1085584685206413,10.0066556930542,-0.6015759110450745,-0.5828775763511658,1.1690208911895752
2499334347.0,-0.6399074792861938,0.1406608968973159,10.1509428024292,-0.4030399620532989,-0.6135377287864685,1.126398682594299
2499342680.0,-0.5600035190582275,0.1149887889623642,10.14134407043457,-0.492741048336029,-0.3862370550632477,1.0580600500106812
2499351013.0,-0.4117176532745361,-0.0539038255810737,10.14328956604004,-0.7525206208229065,-0.5949930548667908,1.165767788887024
2499359346.0,-0.4944185614585876,-0.0606271587312221,9.948531150817873,-0.7755606174468994,-0.8387253284454346,1.1560215950012207
2499367679.0,-0.514275074005127,-0.0462931990623474,10.128089904785156,-0.5565589070320129,-0.5773576498031616,1.1235685348510742
2499376012.0,-0.4829027354717254,0.0576805248856544,10.0620756149292,-0.4123379588127136,-0.2106514573097229,1.116127371788025
2499384345.0,-0.4841831028461456,-0.0029183598235249,10.200304985046388,-0.6883313655853271,-0.1895965635776519,1.249885082244873
2499392678.0,-0.5193464756011963,-0.0711493268609047,10.043442726135254,-0.6215806007385254,-0.4852616786956787,1.140204668045044
2499401011.0,-0.51155686378479,0.0423164665699005,10.080981254577637,-0.5270385146141052,-0.6067756414413452,1.114667534828186
2499409344.0,-0.5502824187278748,0.0684601068496704,10.038536071777344,-0.4621832072734833,-0.5528063774108887,1.1948912143707275
2499417677.0,-0.4050869643688202,-0.064411349594593,10.084893226623535,-0.6350921392440796,-0.5889095664024353,1.1515647172927856
2499426010.0,-0.3708961308002472,-0.1297951936721801,10.056682586669922,-0.6304816007614136,-0.6890101432800293,1.2653944492340088
2499434343.0,-0.3606102168560028,-0.0198720376938581,10.0618314743042,-0.5115547180175781,-0.9559617042541504,1.2928786277770996
2499442676.0,-0.4299287796020508,0.0767929255962371,10.115915298461914,-0.3319989144802093,-0.5120669603347778,1.2670336961746216
2499451009.0,-0.4143427312374115,-0.0213154722005128,10.090980529785156,-0.4973003566265106,-0.2359583377838134,1.2350287437438965
2499459342.0,-0.4418025016784668,-0.217761144042015,10.077569007873535,-0.7151494026184082,-0.3769902884960174,1.2852839231491089
2499467675.0,-0.4582468867301941,-0.1910238265991211,10.046096801757812,-0.408111572265625,-0.6444541215896606,1.1616438627243042
2499476008.0,-0.4674024879932403,0.0178611073642969,10.163496017456056,-0.1300818920135498,-0.6014862656593323,1.0646812915802002
2499484341.0,-0.4070396721363067,0.0726442709565162,10.18696403503418,-0.2248161286115646,-0.4461231231689453,1.220018744468689
2499492674.0,-0.2825159132480621,-0.0640467926859855,10.127044677734377,-0.2907599806785583,-0.5586336255073547,1.2470288276672363
2499501007.0,-0.2979588210582733,-0.1598231196403503,10.112016677856444,-0.4358133673667907,-0.8104983568191528,1.2285099029541016
2499509340.0,-0.308223158121109,-0.1158188357949256,10.092153549194336,-0.1789025962352752,-0.6576070189476013,1.1322259902954102
2499517673.0,-0.3719549775123596,0.0465864650905132,10.262298583984377,0.0699780881404876,-0.0555444657802581,1.07712984085083
2499526006.0,-0.4046005606651306,0.0075748604722321,10.153983116149902,-0.1916328817605972,0.151098370552063,1.166062355041504
2499534339.0,-0.4116748571395874,-0.0867712274193763,10.189918518066406,-0.2176185548305511,-0.1153409108519554,1.2151776552200315
2499542672.0,-0.4202438294887543,-0.0356783792376518,10.181785583496094,-0.0969242602586746,-0.3500953614711761,1.145276427268982
2499551005.0,-0.4278043806552887,0.1373274326324463,10.276689529418944,-0.0124741336330771,-0.3487122356891632,1.0819580554962158
2499559338.0,-0.3625418543815613,0.0904834643006324,10.221633911132812,-0.1505604833364486,-0.0817094221711158,1.1536269187927246
2499567671.0,-0.3015495538711548,-0.0592756085097789,10.16284465789795,-0.0438643805682659,-0.18666373193264,1.1454174518585205
2499576004.0,-0.2975654304027557,-0.0642897561192512,10.146636962890623,-0.0620889030396938,-0.3317811489105224,1.1960437297821045
2499584337.0,-0.3864538073539734,0.1741001904010772,10.231691360473633,0.0223484188318252,-0.1049927398562431,1.3281620740890503
2499592670.0,-0.4700633883476257,0.2530675828456878,10.286189079284668,-0.0431215651333332,0.5256808996200562,1.1925987005233765
2499601003.0,-0.4895048141479492,0.0651981607079505,10.146557807922363,-0.2020835131406784,0.2703326344490051,1.2104774713516235
2499609336.0,-0.5373215675354004,-0.0596618615090847,10.132817268371582,-0.222600519657135,-0.2037484347820282,1.254790186882019
2499617669.0,-0.5705966353416443,0.0863064676523208,10.207386016845703,-0.0198894534260034,-0.3028498888015747,1.1705448627471924
2499626002.0,-0.5291817784309387,0.309660941362381,10.256389617919922,0.0593865998089313,-0.043800339102745,1.1959413290023804
2499634335.0,-0.4696199893951416,0.2084553837776184,10.226018905639648,-0.1771224588155746,0.1135094910860061,1.2119760513305664
2499642668.0,-0.4434905648231506,0.0500913597643375,10.128890991210938,-0.3157210350036621,-0.2216143459081649,1.2029597759246826
2499651001.0,-0.464634358882904,0.0527522154152393,10.176815032958984,-0.2874557375907898,-0.4159367382526397,1.24308443069458
2499659334.0,-0.5240744948387146,0.185787945985794,10.220990180969238,-0.0730005651712417,-0.1202331930398941,1.2755759954452517
2499667667.0,-0.5532938838005066,0.1810386031866073,10.280051231384276,-0.2099214494228363,0.3677179515361786,1.2727200984954834
2499676000.0,-0.6174119710922241,0.0840101391077041,10.087010383605955,-0.2674510180950165,0.0820936188101768,1.1982338428497314
2499684333.0,-0.6219897866249084,0.0821647047996521,10.22003173828125,-0.1545690894126892,-0.2538498938083648,1.1641926765441897
2499692666.0,-0.6139999628067017,0.1917321979999542,10.243521690368652,-0.1959104835987091,-0.2600997388362884,1.2284331321716309
2499700999.0,-0.580531895160675,0.2391266971826553,10.279400825500488,-0.2509554624557495,-0.2241117358207702,1.2156002521514893
2499709332.0,-0.4819585680961609,0.0758988186717033,10.129663467407228,-0.2680145800113678,-0.1593333631753921,1.2915465831756592
2499717665.0,-0.4356439113616943,0.0510712973773479,10.128304481506348,-0.289402425289154,-0.4680873155593872,1.165012240409851
2499725998.0,-0.4854348301887512,0.1284006834030151,10.26216983795166,-0.2660422623157501,-0.4108651578426361,1.1122981309890747
2499734331.0,-0.5544669032096863,0.2552849650382995,10.228157997131348,-0.3215610980987549,-0.0181604921817779,1.1381300687789917
2499742664.0,-0.5716695189476013,0.0925792455673217,10.169761657714844,-0.3617882430553436,0.1413137316703796,1.1736698150634766
2499750997.0,-0.5664622187614441,-0.1225353553891182,10.07168960571289,-0.4308441877365112,-0.1724990457296371,1.1862207651138306
2499759330.0,-0.5758610963821411,0.0112085053697228,10.168624877929688,-0.1997782289981842,-0.5356577038764954,1.1314064264297483
2499767663.0,-0.545862078666687,0.2464729994535446,10.261146545410156,-0.0572350062429904,-0.3605587482452392,1.1992071866989136
2499775996.0,-0.4525389075279236,0.2635107338428497,10.313570022583008,-0.304617315530777,-0.1472946554422378,1.1459039449691772
2499784329.0,-0.3812822997570038,0.0437897033989429,10.181621551513672,-0.5328144431114197,-0.387786716222763,1.129843831062317
2499792662.0,-0.3764755725860595,-0.0199850425124168,10.120429039001465,-0.570762038230896,-0.6159199476242065,1.197068452835083
2499800995.0,-0.4155873358249664,0.1540364772081375,10.264544486999512,-0.3168865144252777,-0.5674706101417542,1.1855548620224
2499809328.0,-0.439292162656784,0.1355750262737274,10.267483711242676,-0.4266947209835052,0.0683131664991378,1.21811044216156
2499817661.0,-0.4275611937046051,0.0037981595378369,10.156264305114746,-0.464667797088623,0.1805419325828552,1.1526533365249634
2499825994.0,-0.448933869600296,-0.0891530364751815,10.107625007629396,-0.5173690915107727,-0.3762090504169464,1.1348642110824585
2499834327.0,-0.4732747375965118,0.0130613567307591,10.225260734558104,-0.3926790356636047,-0.3009800612926483,1.2102469205856323
2499842660.0,-0.4409084022045135,0.1076645925641059,10.213708877563477,-0.3553078472614288,-0.102930799126625,1.1893457174301147
2499850993.0,-0.3616048097610473,-0.0292408224195241,10.121193885803224,-0.3749795854091644,-0.1171723082661628,1.1203665733337402
2499859326.0,-0.3235516846179962,-0.1586071401834488,10.101116180419922,-0.319473534822464,-0.4674469530582428,1.1365292072296145
2499867659.0,-0.3606463372707367,-0.0502129569649696,10.1708345413208,-0.2936287820339203,-0.4398092031478882,1.1924450397491455
2499875992.0,-0.4433403611183166,0.1365477740764618,10.278220176696776,-0.192862406373024,0.0401118956506252,1.2124242782592771
2499884325.0,-0.47690150141716,0.059282761067152,10.157637596130373,-0.1861770451068878,0.3340864479541778,1.2290990352630615
2499892658.0,-0.5302476286888123,-0.1580419689416885,10.096095085144045,-0.3283872902393341,0.0874213799834251,1.1662416458129885
2499900991.0,-0.5542237162590027,-0.0633384212851524,10.123997688293455,-0.145988330245018,-0.4037187099456787,1.1249772310256958
2499909324.0,-0.5243033766746521,0.1770614683628082,10.276517868041992,0.0091186668723821,-0.2925017476081848,1.202101707458496
2499917657.0,-0.4994401037693023,0.2920005023479461,10.281124114990234,-0.1491900980472564,0.0240517668426036,1.1251308917999268
2499925990.0,-0.4367311298847198,0.0895106792449951,10.162623405456545,-0.3168096542358398,-0.0761383101344108,1.1404993534088137
2499934323.0,-0.4301502704620361,-0.0488106720149517,10.09423542022705,-0.3860449492931366,-0.4271045327186584,1.107482671737671
2499942656.0,-0.4617017209529876,0.0660493522882461,10.208873748779297,-0.2640699446201324,-0.2940898239612579,1.191138744354248
2499950989.0,-0.5591091513633728,0.2193061709403991,10.252098083496094,-0.1493565887212753,0.1487034410238266,1.1998347043991089
2499959322.0,-0.5799310207366943,0.1400812715291977,10.207993507385254,-0.3054113388061523,0.2549384534358978,1.1609139442443848
2499967655.0,-0.56709885597229,0.0173671022057533,10.155305862426758,-0.4687404632568359,-0.2109844386577606,1.1152437925338743
2499975988.0,-0.5930925011634827,0.0264079347252845,10.190433502197266,-0.3398752212524414,-0.4453034400939941,1.1130024194717407
2499984321.0,-0.5683792233467102,0.1123067885637283,10.229388236999512,-0.302388846874237,-0.2710882425308227,1.131098985671997
2499992654.0,-0.4773091971874237,0.059289913624525,10.180720329284668,-0.3125064373016357,-0.0968346148729324,1.0322279930114746
2500000987.0,-0.4147504568099975,-0.0894606038928031,10.07605266571045,-0.3552822470664978,-0.2983930706977844,1.0338929891586304
2500009320.0,-0.4190064668655395,-0.0257934164255857,10.130650520324709,-0.3088692426681518,-0.6255380511283875,1.1739259958267212
2500017653.0,-0.4711076915264129,0.1275924146175384,10.265151977539062,-0.2168245166540146,-0.1208735778927803,1.068946123123169
2500025986.0,-0.5422071218490601,0.1487435102462768,10.272512435913086,-0.296267032623291,0.1954366117715835,1.1531784534454346
2500034319.0,-0.5195181369781494,-0.0674441531300544,10.132245063781738,-0.305897980928421,-0.0212726201862096,1.224206566810608
2500042652.0,-0.5304619669914246,-0.1212192326784133,10.10369110107422,-0.1851524859666824,-0.500694215297699,1.149208426475525
2500050985.0,-0.5003699660301208,0.0772578567266464,10.256053924560549,-0.0175713635981082,-0.5138471722602844,1.1756037473678589
2500059318.0,-0.4515804350376129,0.2881665825843811,10.313390731811523,-0.0707209035754203,-0.1319901645183563,1.2010899782180786
2500067651.0,-0.3919686377048492,0.1584211587905883,10.24255657196045,-0.2994560003280639,-0.0433905124664306,1.1456093788146973
2500075984.0,-0.3659895062446594,-0.0364437364041805,10.122438430786133,-0.3747747242450714,-0.3143506944179535,1.144930720329285
2500084317.0,-0.3929413557052612,0.0109297428280115,10.194496154785156,-0.2778247892856598,-0.4383235871791839,1.2563014030456543
2500092650.0,-0.4611651301383972,0.2209084182977676,10.263392448425291,-0.2138916850090026,0.010578678920865,1.1969531774520874
2500100983.0,-0.4537477493286133,0.2071248739957809,10.240317344665527,-0.2515189945697784,0.3254544734954834,1.204765558242798
2500109316.0,-0.4678601026535034,0.0602270178496837,10.159132957458496,-0.3099194467067718,-0.0800316780805587,1.2379615306854248
2500117649.0,-0.4805208444595337,0.0137048475444316,10.174439430236816,-0.3467271327972412,-0.5595045685768127,1.2807631492614746
2500125982.0,-0.5079948902130127,0.1482426673173904,10.26761245727539,-0.3980708420276642,-0.1497408300638198,1.1307276487350464
2500134315.0,-0.4497705399990082,0.1581422239542007,10.208179473876951,-0.2979960143566131,-0.0061218016780912,1.233440637588501
2500142648.0,-0.3821978569030761,-0.016401469707489,10.09646701812744,-0.4229294657707214,-0.2713188230991363,1.305634379386902
2500150981.0,-0.3169496357440948,-0.0732522681355476,10.146479606628418,-0.4544605612754822,-0.5297920107841492,1.2212611436843872
2500159314.0,-0.3710823357105255,0.0749188736081123,10.215611457824709,-0.2253156155347824,-0.3368143439292907,1.2025883197784424
2500167647.0,-0.4517592489719391,0.148879274725914,10.268406867980955,-0.3175396621227264,0.2675791084766388,1.204240322113037
2500175980.0,-0.4725885987281799,-0.0105501990765333,10.118947982788086,-0.4187287390232086,0.3166175484657287,1.0653471946716309
2500184313.0,-0.5167998671531677,-0.1833630055189132,10.057333946228027,-0.3129674792289734,-0.2036972045898437,1.02549147605896
2500192646.0,-0.5426719784736633,-0.0427886955440044,10.206742286682127,-0.2201159447431564,-0.518521785736084,1.0589181184768677
2500200979.0,-0.5244535803794861,0.210100457072258,10.320372581481934,-0.0209652502089738,-0.0549041107296943,1.0393743515014648
2500209312.0,-0.4551997780799866,0.1846792548894882,10.246161460876465,-0.2352795600891113,0.0224636830389499,1.1550226211547852
2500217645.0,-0.4113170802593231,-0.0648905932903289,10.08309841156006,-0.4539482593536377,-0.2414269596338272,1.175693392753601
2500225978.0,-0.4333836138248443,-0.1335650384426117,10.10881233215332,-0.3223166763782501,-0.4909351766109466,1.0498762130737305
2500234311.0,-0.4980882108211517,0.0570510737597942,10.221269607543944,-0.1075157523155212,-0.1765973418951034,1.1701607704162598
2500242644.0,-0.520555317401886,0.1741431206464767,10.27696132659912,-0.1967301368713379,0.4111084640026092,1.19564688205719
2500250977.0,-0.5484156012535095,0.1004545241594314,10.188416481018066,-0.3396575450897217,0.2956651151180267,1.1109405755996704
2500259310.0,-0.5555827617645264,-0.0410859286785125,10.16409683227539,-0.2952680885791778,-0.4030015766620636,1.1984387636184692
2500267643.0,-0.5604395270347595,0.028518384322524,10.23139762878418,-0.2055926322937011,-0.550257682800293,1.1853243112564087
2500275976.0,-0.5471996665000916,0.1010696738958358,10.227685928344728,-0.1980620622634887,-0.1227818131446838,1.2024089097976685
2500284309.0,-0.4618805348873138,0.0086048701778054,10.13194465637207,-0.2585116624832153,0.0364234447479248,1.1819689273834229
2500292642.0,-0.4227330088615417,-0.0676945075392723,10.110164642333984,-0.2954473793506622,-0.2792079448699951,1.1718769073486328
2500300975.0,-0.4086848497390747,0.0237402860075235,10.257319450378418,-0.1961794346570968,-0.586642861366272,1.2016021013259888
2500309308.0,-0.4751276075839996,0.2006515562534332,10.30883502960205,-0.1177486330270767,-0.0613717064261436,1.2182769775390625
2500317641.0,-0.5036531090736389,0.0979939475655555,10.20610523223877,-0.2586909532546997,0.2434376776218414,1.121288537979126
2500325974.0,-0.5017791390419006,-0.1025575101375579,10.069872856140137,-0.1855110824108123,-0.0711435303092002,1.138603925704956
2500334307.0,-0.5210416913032532,-0.1119777560234069,10.10703182220459,-0.0777776166796684,-0.4830460250377655,1.163449764251709
2500342640.0,-0.529303252696991,0.1687355637550354,10.277054786682127,-0.0229887757450342,-0.2777223289012909,1.1089682579040527
2500350973.0,-0.4834249019622803,0.3606463372707367,10.346923828125,-0.0281372349709272,0.0058400449343025,1.1861438751220703
2500359306.0,-0.4082202017307281,0.1302103102207183,10.196141242980955,-0.4174479842185974,-0.0316976159811019,1.2030494213104248
2500367639.0,-0.3871762454509735,-0.0603270791471004,10.078927993774414,-0.4250554144382477,-0.4913450181484222,1.1081998348236084
2500375972.0,-0.4195071756839752,0.0467219427227973,10.188759803771973,-0.1771608591079712,-0.4931380748748779,1.1939563751220703
2500384305.0,-0.4496491551399231,0.2220170497894287,10.272798538208008,-0.0793913155794143,-0.0170462727546691,1.1392443180084229
2500392638.0,-0.4737614095211029,0.198791816830635,10.24074649810791,-0.224060520529747,0.2154669314622879,1.171979308128357
2500400971.0,-0.4864434003829956,0.0523015893995761,10.17015552520752,-0.418933629989624,-0.2035947442054748,1.173721194267273
2500409304.0,-0.4956061840057373,0.0880801081657409,10.200855255126951,-0.3455360233783722,-0.4973772168159485,1.111209511756897
2500417637.0,-0.4929379522800445,0.1937135457992553,10.247491836547852,-0.3178213834762573,-0.269974023103714,1.1474792957305908
2500425970.0,-0.4286198019981384,0.1557102352380752,10.18630599975586,-0.3889393210411072,-0.0738842561841011,1.1747711896896362
2500434303.0,-0.3700806498527527,-0.0388112030923366,10.11489963531494,-0.4064467251300812,-0.1570152789354324,1.1361067295074463
2500442636.0,-0.3640010356903076,-0.0423162207007408,10.123711585998535,-0.2761086523532867,-0.4111468493938446,1.1607602834701538
2500450969.0,-0.4450355768203735,0.1770114004611969,10.27564525604248,-0.1674530506134033,-0.1645074337720871,1.1787927150726318
2500459302.0,-0.4913144707679748,0.2250785082578659,10.262727737426758,-0.2755195498466491,0.2465882450342178,1.2248215675354004
2500467635.0,-0.5116145610809326,-0.0158363245427608,10.127066612243652,-0.43317511677742,0.0830669552087783,1.1242855787277222
2500475968.0,-0.5182733535766602,-0.1799723803997039,10.06475830078125,-0.3111360967159271,-0.3912830352783203,1.170122146606445
2500484301.0,-0.5301615595817566,0.0003650560101959,10.23609733581543,-0.1430554986000061,-0.6096699833869934,1.192457914352417
2500492634.0,-0.4720304012298584,0.256365031003952,10.319671630859377,-0.1382272094488144,-0.0785460397601127,1.0768479108810425
2500500967.0,-0.4432471692562103,0.1791929751634597,10.211427688598633,-0.330756664276123,0.092019148170948,1.193328857421875
2500509300.0,-0.4127977192401886,-0.0651051774621009,10.082769393920898,-0.4504775404930115,-0.267079621553421,1.1506297588348389
2500517633.0,-0.4308800995349884,-0.0809344202280044,10.134805679321287,-0.3035158812999725,-0.5526911020278931,1.0775140523910522
2500525966.0,-0.5108417272567749,0.0982442945241928,10.262999534606934,-0.1691692024469375,-0.1927855461835861,1.17133891582489
2500534299.0,-0.5414130091667175,0.1525772958993911,10.289814949035645,-0.2971122860908508,0.1786592900753021,1.2475413084030151
2500542632.0,-0.545854926109314,0.0083974376320838,10.1730375289917,-0.3876586556434631,0.0576832555234432,1.186963677406311
2500550965.0,-0.552871823310852,-0.0467152185738086,10.189582824707031,-0.3399392962455749,-0.4474422633647918,1.146826148033142
2500559298.0,-0.5251547694206238,0.0706697404384613,10.215404510498049,-0.305897980928421,-0.4068692922592163,1.1264883279800415
2500567631.0,-0.4660935401916504,0.1495731025934219,10.224059104919434,-0.279284805059433,-0.1018550023436546,1.1455453634262085
2500575964.0,-0.4464873671531677,-0.0244912710040807,10.15141487121582,-0.3451390266418457,-0.0811843201518058,1.177998661994934
2500584297.0,-0.3906668126583099,-0.1512110978364944,10.138532638549805,-0.3067432940006256,-0.5149869918823242,1.2479256391525269
2500592630.0,-0.4044860601425171,0.0214874073863029,10.176586151123049,-0.1576171964406967,-0.327900618314743,1.1262835264205933
2500600963.0,-0.4864290952682495,0.1723406016826629,10.268270492553713,-0.2790542542934418,0.1668511182069778,1.1961591243743896
2500609296.0,-0.546162486076355,0.0591683164238929,10.198580741882324,-0.3196528255939483,0.3699975907802582,1.1389113664627075
2500617629.0,-0.5274434685707092,-0.1927548050880432,10.007227897644045,-0.3313329219818115,-0.1877651512622833,1.1913690567016602
2500625962.0,-0.4992183148860931,-0.0987231060862541,10.205876350402832,-0.144528329372406,-0.5325327515602112,1.1829935312271118
2500634295.0,-0.5207555890083313,0.1843001544475555,10.261597633361816,0.0078763775527477,-0.3013002276420593,1.1015273332595823
2500642628.0,-0.4152439832687378,0.2051077783107757,10.326881408691406,-0.1324896216392517,-0.0270614344626665,1.317980408668518
2500650961.0,-0.3726273477077484,0.0519940145313739,10.092597007751465,-0.2831525504589081,-0.1891739219427108,1.19446861743927
2500659294.0,-0.3934491872787475,-0.1381926983594894,10.146228790283203,-0.2602277994155884,-0.5035117864608765,1.2275621891021729
2500667627.0,-0.4317813515663147,0.0239119548350572,10.165913581848145,-0.0778288543224334,-0.3704458177089691,1.2006672620773315
2500675960.0,-0.4882888197898865,0.2355216592550277,10.316494941711426,0.0598092451691627,0.213904470205307,1.194314956665039
2500684293.0,-0.5146470665931702,0.1407178789377212,10.208415985107422,-0.2342805862426757,0.2105233818292617,1.1155511140823364
2500692626.0,-0.508037805557251,-0.0203569903969764,10.126787185668944,-0.2949222922325134,-0.1878291815519333,1.134006142616272
2500700959.0,-0.5157341957092285,0.0832450240850448,10.153911590576172,-0.2815516591072082,-0.5580573081970215,1.2159717082977295
2500709292.0,-0.4835894107818603,0.1737997829914093,10.274723052978516,-0.2306817919015884,-0.1383168697357177,1.155573487281799
2500717625.0,-0.4516803920269012,0.1323418617248535,10.159605026245115,-0.2891718745231628,0.0789686813950538,1.1346594095230105
2500725958.0,-0.3714397251605987,-0.0525731854140758,10.077354431152344,-0.3540527522563934,-0.248137891292572,1.2210817337036133
2500734291.0,-0.3872334659099579,0.0192196890711784,10.201992988586426,-0.2369828820228576,-0.4775773882865906,1.165319561958313
2500742624.0,-0.4542984068393707,0.218805506825447,10.248478889465332,-0.2172471284866333,-0.0194796249270439,1.131303787231445
2500750957.0,-0.5027876496315002,0.2171531617641449,10.28785514831543,-0.2247008681297302,0.2976374328136444,1.231711745262146
2500759290.0,-0.5489805340766907,-0.0247132051736116,10.07154655456543,-0.2909392714500427,0.1508678197860717,1.2071731090545654
2500767623.0,-0.5469778776168823,-0.1050180420279502,10.105100631713867,-0.2873789072036743,-0.4930355548858642,1.11263108253479
2500775956.0,-0.530218780040741,0.1172565519809722,10.238722801208496,-0.1053769588470459,-0.3935115039348602,1.2269346714019775
2500784289.0,-0.4895262718200683,0.3340091407299042,10.302604675292969,-0.1294799447059631,-0.0704647526144981,1.1229408979415894
2500792622.0,-0.4565090537071228,0.1665825545787811,10.17377471923828,-0.4036034941673279,0.02032489515841,1.228932499885559
2500800955.0,-0.4095503389835357,-0.0538251437246799,10.083785057067873,-0.449645072221756,-0.28602135181427,1.1119651794433594
2500809288.0,-0.423884630203247,-0.0227889567613601,10.176872253417969,-0.3058980107307434,-0.5762307047843933,1.1423437595367432
2500817621.0,-0.5098045468330383,0.2158155739307403,10.289328575134276,-0.1203228682279586,0.0524835661053657,1.1724402904510498
2500825954.0,-0.5309627056121826,0.2211945205926895,10.258728981018066,-0.3131980299949646,0.250584065914154,1.2001293897628784
2500834287.0,-0.5156341195106506,0.0092843901365995,10.14573574066162,-0.374185562133789,-0.0653547197580337,1.12507963180542
2500842620.0,-0.5453539490699768,-0.0072239767760038,10.171442985534668,-0.4082396328449249,-0.4854921400547027,1.1271158456802368
2500850953.0,-0.5214422345161438,0.14618980884552,10.209145545959473,-0.307562917470932,-0.2549512684345245,1.1124261617660522
2500859286.0,-0.4713079631328583,0.1701017618179321,10.261547088623049,-0.2904781997203827,0.0089905960485339,1.148260474205017
2500867619.0,-0.409871906042099,-0.0201209019869565,10.119413375854492,-0.4217639863491058,-0.0589127354323864,1.1518081426620483
2500875952.0,-0.3727273643016815,-0.0968778654932975,10.132538795471191,-0.408867210149765,-0.5806362628936768,1.241035223007202
2500884285.0,-0.4215098917484283,0.0969710946083068,10.261640548706056,-0.2692440450191498,-0.4202912151813507,1.0394768714904783
2500892618.0,-0.4731678366661072,0.1828268319368362,10.28654670715332,-0.2178618609905243,0.2195139825344085,1.1977728605270386
2500900951.0,-0.4953701496124267,0.0384465306997299,10.167366027832031,-0.4002096354961395,0.3053216934204101,1.2313789129257202
2500909284.0,-0.5001485347747803,-0.1752519756555557,10.113232612609863,-0.4237106442451477,-0.2264554351568222,1.201217770576477
2500917617.0,-0.5041180849075317,-0.043703868985176,10.169411659240724,-0.195129245519638,-0.5974520444869995,1.058264970779419
2500925950.0,-0.485656589269638,0.2042136639356613,10.294049263000488,-0.1851140707731247,-0.2378281503915786,1.2284202575683594
2500934283.0,-0.4366739094257355,0.2036915123462677,10.21289348602295,-0.2365602701902389,0.0862943679094314,1.1888078451156616
2500942616.0,-0.3800734579563141,-0.0615859776735305,10.074271202087402,-0.3730072677135467,-0.1955518871545791,1.1848888397216797
2500950949.0,-0.4076190590858459,-0.1274278908967971,10.080744743347168,-0.3828175067901611,-0.5350173115730286,1.175642013549805
2500959282.0,-0.4465305209159851,0.0612497925758361,10.24290657043457,-0.2285942733287811,-0.2505968809127807,1.2392934560775757
2500967615.0,-0.4834392070770263,0.1915531307458877,10.281739234924316,-0.1333605051040649,0.2228694558143615,1.26849365234375
2500975948.0,-0.4892544448375702,0.0537965334951877,10.182686805725098,-0.3291813433170318,0.0451835095882415,1.1588135957717896
2500984281.0,-0.4857779443264007,-0.0686812698841095,10.112746238708496,-0.3794364631175995,-0.4037443697452545,1.1431119441986084
2500992614.0,-0.4984457194805145,0.0396915264427661,10.21355152130127,-0.2651457190513611,-0.4842242896556854,1.1366828680038452
2501000947.0,-0.4963501989841461,0.1612821519374847,10.261947631835938,-0.2145576626062393,-0.1640975922346115,1.1597100496292114
2501009280.0,-0.4463159441947937,0.0454849265515804,10.146772384643556,-0.3357769548892975,0.1089245304465293,1.014208436012268
2501017613.0,-0.4083057343959808,-0.1008550822734832,10.08666706085205,-0.2692056000232696,-0.4403855204582214,1.1659470796585083
2501025946.0,-0.3909388184547424,0.0053642326965928,10.198115348815918,-0.2943460047245025,-0.4971082806587219,1.115218162536621
2501034279.0,-0.4524387717247009,0.1794362217187881,10.270495414733888,-0.2311812490224838,0.0710282698273658,1.0828930139541626
2501042612.0,-0.5224436521530151,0.1176640838384628,10.194009780883787,-0.1378429979085922,0.4143871068954468,1.2578893899917605
2501050945.0,-0.520226240158081,-0.1245739161968231,10.057326316833496,-0.2781322002410888,-0.156105950474739,1.171082854270935
2501059278.0,-0.5234522223472595,-0.1246096789836883,10.122274398803713,-0.1572585999965667,-0.6242573857307434,1.1207765340805054
2501067611.0,-0.5071293115615845,0.1412397623062133,10.29798412322998,0.0386518761515617,-0.3168352544307709,1.0850446224212646
2501075944.0,-0.4775881767272949,0.2707065045833587,10.33000659942627,-0.1213986650109291,0.0525860227644443,1.1267188787460327
2501084277.0,-0.4151366949081421,0.0871860012412071,10.126079559326172,-0.2963950932025909,-0.1399177461862564,1.1829935312271118
2501092610.0,-0.3934564292430877,-0.1114269867539405,10.041790008544922,-0.366872638463974,-0.4346223175525665,1.2089790105819702
2501100943.0,-0.4459582865238189,0.0165731366723775,10.2081937789917,-0.1902881562709808,-0.4897697567939758,1.1606194972991943
2501109276.0,-0.5252904295921326,0.2220456153154373,10.279135704040527,-0.1434012949466705,0.1476404517889022,1.1865283250808716
2501117609.0,-0.5318138599395752,0.2057229131460189,10.242548942565918,-0.1763796061277389,0.2718054354190826,1.1495282649993896
2501125942.0,-0.5370714664459229,0.0252065155655145,10.122374534606934,-0.3364173471927643,-0.1136503592133522,1.23210871219635
2501134275.0,-0.5222362279891968,0.0232038218528032,10.202900886535645,-0.3151191174983978,-0.5407036542892456,1.204278826713562
2501142608.0,-0.5299398303031921,0.1748512387275695,10.286274909973145,-0.1832058131694793,-0.3388891220092773,1.2278438806533811
2501150941.0,-0.4573028683662414,0.1680202186107635,10.230796813964844,-0.2389936000108719,-0.0513949617743492,1.1878345012664795
2501159274.0,-0.3991070091724396,-0.0097490865737199,10.101788520812988,-0.2748535275459289,-0.3022864162921905,1.1134763956069946
2501167607.0,-0.3654316067695617,-0.0190909374505281,10.122374534606934,-0.3298472762107849,-0.4634511768817901,1.0451632738113403
2501175940.0,-0.4061454534530639,0.1958237290382385,10.275094985961914,-0.228901594877243,-0.4298709332942962,1.0772322416305542
2501184273.0,-0.4640406966209411,0.2062522321939468,10.277276039123535,-0.3552566170692444,0.2526331841945648,1.1528966426849363
2501192606.0,-0.5176154971122742,-0.0049068504013121,10.111838340759276,-0.3588425815105438,0.1073236390948295,1.1348642110824585
2501200939.0,-0.5112349987030029,-0.1501736491918563,10.07490062713623,-0.3203444480895996,-0.3780020773410797,1.165191650390625
2501209272.0,-0.5221790075302124,0.0407425947487354,10.218515396118164,-0.1180944368243217,-0.4769242703914642,1.1331994533538818
2501217605.0,-0.4961283504962921,0.2852839827537536,10.349656105041504,-0.1100771725177764,-0.1079768016934394,1.1530503034591677
2501225938.0,-0.4376681447029114,0.2186051905155182,10.21583366394043,-0.3165278732776642,0.0630878582596778,1.1161658763885498
2501234271.0,-0.3749949336051941,-0.054054033011198,10.054679870605469,-0.5075844526290894,-0.2769282758235931,1.1491570472717283
2501242604.0,-0.3614115715026855,-0.1042453348636627,10.073541641235352,-0.4249017238616943,-0.4956226050853729,1.1992584466934204
2501250937.0,-0.4350000917911529,0.1026720106601715,10.243321418762209,-0.1448612958192825,-0.1086940020322799,1.161554217338562
2501259270.0,-0.4814650118350982,0.2107370644807815,10.307110786437988,-0.1247541233897209,0.3369808793067932,1.3020483255386353
2501267603.0,-0.4800487458705902,0.02071463316679,10.164762496948242,-0.3802048861980438,0.0435698106884956,1.1731576919555664
2501275936.0,-0.5229300260543823,-0.038360696285963,10.188502311706545,-0.4310491383075714,-0.4159367084503174,1.0588668584823608
2501284269.0,-0.5472353100776672,0.0639896616339683,10.225382804870604,-0.2230615615844726,-0.3753637969493866,1.1874504089355469
2501292602.0,-0.4958136081695556,0.1427278220653534,10.217299461364746,-0.3269528746604919,-0.0722961798310279,1.1800991296768188
2501300935.0,-0.4302864074707031,0.038460835814476,10.129591941833496,-0.4074071943759918,-0.0614613518118858,1.182583570480347
2501309268.0,-0.3981629908084869,-0.0975003987550735,10.090229034423828,-0.3555639982223511,-0.3467270731925964,1.1661648750305176
2501317601.0,-0.4035777151584625,0.0391260497272014,10.23889446258545,-0.2117144763469696,-0.3643752932548523,1.135325312614441
2501325934.0,-0.4941398501396179,0.2093279510736465,10.294772148132324,-0.3285281658172607,0.1780317425727844,1.1883083581924438
2501334267.0,-0.5191891193389893,0.0482173152267932,10.169540405273438,-0.3259411454200744,0.2450385838747024,1.2248342037200928
2501342600.0,-0.5111492872238159,-0.1742361038923263,10.067697525024414,-0.3349445462226867,-0.1625607460737228,1.143368124961853
2501350933.0,-0.5344604253768921,-0.0827369317412376,10.165513038635254,-0.0738330334424972,-0.5349916815757751,1.1873478889465332
2501359266.0,-0.5058204531669617,0.17181096971035,10.293899536132812,-0.0887277051806449,-0.3772464394569397,1.1074954271316528
2501367599.0,-0.4578463137149811,0.2380823791027069,10.286038398742676,-0.1818226426839828,0.0538155063986778,1.2266913652420044
2501375932.0,-0.4395422041416168,-0.009076957590878,10.113655090332031,-0.3222911357879638,-0.1167368739843368,1.088118314743042
2501384265.0,-0.4200793206691742,-0.1495230346918106,10.079392433166504,-0.3565373420715332,-0.514705240726471,1.1809955835342407
2501392598.0,-0.4625457525253296,0.0516363717615604,10.239280700683594,-0.1417107582092285,-0.274059534072876,1.1400638818740845
2501400931.0,-0.4995760023593902,0.2154650837182998,10.320887565612791,-0.1038016974925994,0.2753274440765381,1.1623740196228027
2501409264.0,-0.4967864155769348,0.0803979560732841,10.218830108642578,-0.3136078715324402,0.2071167081594467,1.2477974891662598
2501417597.0,-0.5098904371261597,0.0026250933296978,10.127202033996582,-0.3268504738807678,-0.3996973037719726,1.1519745588302612
2501425930.0,-0.5053769946098328,0.0329674519598484,10.19669246673584,-0.2226517498493194,-0.5464412569999695,1.0586364269256592
2501434263.0,-0.4727455377578735,0.1616972684860229,10.269686698913574,-0.2774149775505066,-0.084949605166912,1.1082509756088257
2501442596.0,-0.413019448518753,0.1058048531413078,10.161528587341309,-0.2342550009489059,-0.0647143721580505,1.1253870725631714
2501450929.0,-0.3862392008304596,-0.0745183154940605,10.10031509399414,-0.299648106098175,-0.2733935415744781,1.1424204111099243
2501459262.0,-0.3506395220756531,0.007188607007265,10.156679153442385,-0.3029523491859436,-0.5128353834152222,1.2834012508392334
2501467595.0,-0.4569737613201141,0.2202073186635971,10.280144691467283,-0.165711298584938,-0.0911482572555542,1.1541261672973633
2501475928.0,-0.5113424062728882,0.1629200726747512,10.185927391052246,-0.1521101146936416,0.3285025060176849,1.1142704486846924
2501484261.0,-0.5136098861694336,-0.0740748420357704,10.070430755615234,-0.2643645107746124,-0.0592713356018066,1.2209151983261108
2501492594.0,-0.529460608959198,-0.1009552255272865,10.10512924194336,-0.1931057274341583,-0.5218644142150879,1.1050876379013062
2501500927.0,-0.4908638596534729,0.1011555045843124,10.276904106140137,-0.0345920249819755,-0.4026685655117035,1.2348878383636477
2501509260.0,-0.4186058342456817,0.2906629145145416,10.299478530883787,-0.1159812584519386,0.1561059355735778,1.1617207527160645
2501517593.0,-0.3966537415981293,0.1136801317334175,10.164254188537598,-0.264185220003128,0.0573630779981613,1.1590312719345093
2501525926.0,-0.3696946799755096,-0.1122924834489822,10.038865089416504,-0.3533996045589447,-0.4158214926719665,1.1421771049499512
2501534259.0,-0.4091068506240845,-0.0042201774194836,10.167658805847168,-0.2582555115222931,-0.5014882683753967,1.1886540651321411
2501542592.0,-0.5133380889892578,0.2034840732812881,10.327045440673828,-0.194962739944458,0.086268737912178,1.1961592435836792
2501550925.0,-0.5166069269180298,0.1703664064407348,10.23558235168457,-0.224675253033638,0.3364173769950866,1.1053054332733154
2501559258.0,-0.5354403853416443,0.0398413352668285,10.142194747924805,-0.3677563667297363,-0.1152000278234481,1.1869893074035645
2501567591.0,-0.5170859098434448,0.0080686938017606,10.181585311889648,-0.3377108871936798,-0.3449853062629699,1.1480811834335327
2501575924.0,-0.5250687599182129,0.1623909920454025,10.264923095703123,-0.2007003426551818,-0.179671049118042,1.1609652042388916
2501584257.0,-0.4695984423160553,0.1512468606233596,10.2191162109375,-0.3334845304489136,0.0075561986304819,1.092293381690979
2501592590.0,-0.3964534699916839,-0.0194271206855773,10.111065864562988,-0.356306791305542,-0.1293902993202209,1.215984582901001
2501600923.0,-0.3559898436069488,-0.021537210792303,10.15564250946045,-0.3558969795703888,-0.528818666934967,1.215088129043579
2501609256.0,-0.4167031645774841,0.1545657813549041,10.2675199508667,-0.2137123644351959,-0.2424771338701248,1.1472615003585815
2501617589.0,-0.4799772202968597,0.2041135281324386,10.265703201293944,-0.3110720515251159,0.2688213884830475,1.105715274810791
2501625922.0,-0.523166298866272,-0.009620476514101,10.127875328063965,-0.3922051787376404,0.2165555655956268,1.2396905422210691
2501634255.0,-0.5379723310470581,-0.1788066178560257,10.073678016662598,-0.3272474706172943,-0.232807770371437,1.1350563764572144
2501642588.0,-0.5384158492088318,0.0089557245373725,10.24513816833496,-0.1969862580299377,-0.4253115057945251,1.1883211135864258
2501650921.0,-0.5156627297401428,0.2391410022974014,10.334920883178713,-0.0904054418206214,-0.0272407382726669,1.0906541347503662
2501659254.0,-0.4382977783679962,0.1707956045866012,10.204846382141112,-0.3113538026809692,0.0542765632271766,1.0760538578033447
2501667587.0,-0.4010095298290252,-0.0879940539598465,10.087725639343262,-0.4285133183002472,-0.28543221950531,1.1630399227142334
2501675920.0,-0.4072185158729553,-0.0907338112592697,10.147144317626951,-0.2535552978515625,-0.4433311522006988,1.2376413345336914
2501684253.0,-0.4577891230583191,0.1146313548088073,10.27059555053711,-0.1218341141939163,-0.1041090562939643,1.1701351404190063
2501692586.0,-0.4840400218963623,0.1800513565540313,10.272777557373049,-0.1898655146360397,0.3716625273227691,1.126795768737793
2501700919.0,-0.5061492919921875,0.0286256056278944,10.164376258850098,-0.352823257446289,0.1007663905620575,1.0321255922317505
2501709252.0,-0.5178515315055847,-0.041751142591238,10.175813674926758,-0.3420653343200683,-0.3490579724311828,1.0760027170181274
2501717585.0,-0.5335591435432434,0.0885378867387771,10.212421417236328,-0.3105341494083404,-0.5067135691642761,1.2369883060455322
2501725918.0,-0.4857209622859955,0.1553597450256347,10.19793701171875,-0.2827427387237549,-0.0157655607908964,1.1828908920288086
2501734251.0,-0.4356939792633056,0.0145059656351804,10.13619327545166,-0.4108651280403137,-0.0821832716464996,1.1464931964874268
2501742584.0,-0.3656819462776184,-0.1058763787150383,10.113819122314451,-0.3480846285820007,-0.4866576492786407,1.1541516780853271
2501750917.0,-0.3888499438762665,0.0818573608994484,10.226112365722656,-0.2130976021289825,-0.5024104118347168,1.2340680360794067
2501759250.0,-0.4333192408084869,0.2036342918872833,10.302590370178224,-0.2123035788536071,0.1276101171970367,1.2077112197875977
2501767583.0,-0.4906063377857208,0.0670650526881218,10.167887687683104,-0.4024508893489837,0.3491092324256897,1.1450716257095337
2501775916.0,-0.4980665147304535,-0.1813243925571441,10.053506851196287,-0.3626335263252258,-0.2422978430986404,1.177127718925476
2501784249.0,-0.5110276937484741,-0.0659563615918159,10.16322422027588,-0.1565670073032379,-0.6107586026191711,1.0880670547485352
2501792582.0,-0.4984029233455658,0.1949649155139923,10.338991165161133,-0.0398045144975185,-0.1341929733753204,1.1089297533035278
2501800915.0,-0.4489767551422119,0.2538686692714691,10.246747970581056,-0.113586314022541,0.0568123795092105,1.1954164505004885
2501809248.0,-0.405666321516037,0.0120453871786594,10.111108779907228,-0.3141458034515381,-0.1588210761547088,1.1719282865524292
2501817581.0,-0.3985993266105652,-0.1245166882872581,10.06705379486084,-0.3726743459701538,-0.577536940574646,1.1729782819747925
2501825914.0,-0.4273179769515991,0.0403634943068027,10.212543487548828,-0.1840766966342926,-0.300083577632904,1.2052778005599976
2501834247.0,-0.492587685585022,0.2011236399412155,10.263392448425291,-0.1215267404913902,0.2433608770370483,1.211527705192566
2501842580.0,-0.5029807686805725,0.1067204177379608,10.182165145874023,-0.2969073951244354,0.2193090617656707,1.168470025062561
2501850913.0,-0.5121936202049255,-0.0118236495181918,10.13507080078125,-0.3507485091686249,-0.2653250396251678,1.0937278270721436
2501859246.0,-0.505233883857727,0.068931944668293,10.200862884521484,-0.269679456949234,-0.5568150281906128,1.094905972480774
2501867579.0,-0.5106486082077026,0.1910810470581054,10.268027305603027,-0.1420181095600128,-0.1421974152326584,1.128409504890442
2501875912.0,-0.4420957565307617,0.0907910391688346,10.207743644714355,-0.2711266577243805,0.0500374063849449,1.1413064002990725
2501884245.0,-0.3902090489864349,-0.0620580650866031,10.115435600280762,-0.3392733633518219,-0.2775430381298065,1.2110153436660769
2501892578.0,-0.3771479427814483,-0.0376525670289993,10.131443977355955,-0.2204232960939407,-0.522927463054657,1.1591721773147583
2501900911.0,-0.4909855723381042,0.2244489043951034,10.322224617004396,-0.1935539543628692,-0.1392517834901809,1.2332741022109983
2501909244.0,-0.5333946347236633,0.1908593028783798,10.22963809967041,-0.4161032140254974,0.3369936347007751,1.179163932800293
2501917577.0,-0.4998049139976501,-0.0592398457229137,10.094449996948242,-0.4155909419059753,0.0107195563614368,1.1796507835388184
2501925910.0,-0.5465558767318726,-0.0805553197860717,10.045095443725586,-0.2453587502241134,-0.5930975675582886,1.1080076694488523
2501934243.0,-0.5090535283088684,0.0584172680974006,10.29601001739502,-0.0485133603215217,-0.4434079527854919,1.1977856159210205
2501942576.0,-0.4500640332698822,0.3227434456348419,10.23708438873291,-0.0820680037140846,0.034976240247488,1.170404076576233
2501950909.0,-0.4457079470157623,0.1494014263153076,10.20903778076172,-0.3230338990688324,0.1288652122020721,1.0673964023590088
2501959242.0,-0.378650039434433,-0.0904691591858863,10.05926513671875,-0.3972895741462707,-0.4255933165550232,1.1167805194854736
2501967575.0,-0.402798056602478,-0.0351490713655948,10.164239883422852,-0.2684628069400787,-0.5377452373504639,1.1101337671279907
2501975908.0,-0.5075943470001221,0.184529036283493,10.301002502441406,-0.1589747369289398,-0.0463233403861522,1.2378334999084473
2501984241.0,-0.5133954286575317,0.1685783863067627,10.272334098815918,-0.2414269596338272,0.2621873021125793,1.0938302278518677
2501992574.0,-0.514775812625885,0.0204785894602537,10.159833908081056,-0.4185621738433838,-0.0368588827550411,1.1356455087661743
2502000907.0,-0.5021653175354004,-0.057022463530302,10.18911075592041,-0.3391836881637573,-0.5248868465423584,1.1596715450286863
2502009240.0,-0.5051695108413696,0.1369984000921249,10.22400188446045,-0.2461400032043457,-0.3941134810447693,1.242828369140625
2502017573.0,-0.4477965831756592,0.1596586108207702,10.230110168457031,-0.2628661096096039,-0.0775983184576034,1.096033215522766
2502025906.0,-0.419900506734848,-0.0086120227351784,10.157694816589355,-0.3843544423580169,-0.1570280790328979,1.0808182954788208
2502034239.0,-0.3684644103050232,-0.1263191998004913,10.064650535583496,-0.2698843777179718,-0.4805870652198791,1.1239781379699707
2502042572.0,-0.4413304030895233,0.0985447168350219,10.303348541259766,-0.2724842429161072,-0.4353651404380798,1.1849528551101685
2502050905.0,-0.4999479651451111,0.2266020625829696,10.262770652770996,-0.2876991033554077,0.2245215773582458,1.1902552843093872
2502059238.0,-0.509268045425415,0.0399985425174236,10.17873191833496,-0.2751480937004089,0.3422189652919769,1.3233723640441897
2502067571.0,-0.5125011801719666,-0.1813245713710785,10.064658164978027,-0.3762347102165222,-0.3008008003234863,1.144367218017578
2502075904.0,-0.5043613314628601,-0.0810133516788482,10.17401885986328,-0.2338835895061493,-0.5942502021789551,1.1707626581192017
2502084237.0,-0.4613297581672668,0.2140273600816726,10.300980567932127,-0.0784051716327667,-0.2249442189931869,1.0474812984466553
2502092570.0,-0.4214812815189361,0.2518658936023712,10.245209693908691,-0.2081412672996521,0.0428654216229915,1.194455862045288
2502100903.0,-0.3793295621871948,-0.0102071072906255,10.139082908630373,-0.3984166085720062,-0.2086663693189621,1.1965689659118652
2502109236.0,-0.3916180431842804,-0.1511679738759994,10.075687408447266,-0.2865848839282989,-0.48191899061203,1.2131414413452148
2502117569.0,-0.5078017711639404,0.0586390048265457,10.24824333190918,-0.181681752204895,-0.2022756040096283,1.2463886737823486
2502125902.0,-0.5307624340057373,0.1811388432979583,10.240053176879885,-0.1463725417852401,0.3122375011444092,1.1820199489593506
2502134235.0,-0.5405762791633606,0.0650838389992713,10.17963981628418,-0.2729196548461914,0.1512136310338974,1.19402015209198
2502142568.0,-0.5184952616691589,-0.0381675697863101,10.106931686401367,-0.3423342406749725,-0.411953717470169,1.1595691442489624
2502150901.0,-0.4876164495944977,0.072615660727024,10.242162704467772,-0.2975989878177643,-0.4671907722949981,1.170698642730713
2502159234.0,-0.4249718487262726,0.1586858183145523,10.254680633544922,-0.3247500360012054,-0.202775090932846,1.1853243112564087
2502167567.0,-0.3998796939849853,0.0475234873592853,10.195783615112305,-0.2348184883594513,0.012397289276123,1.208786964416504
2502175900.0,-0.3796371519565582,-0.1098247542977333,10.062933921813965,-0.3580870032310486,-0.3858528137207031,1.1781907081604004
2502184233.0,-0.3804382681846618,-0.008461813442409,10.20115566253662,-0.1747402995824813,-0.442665159702301,1.140230417251587
2502192566.0,-0.4979237020015716,0.2252930998802185,10.288684844970703,-0.2279282659292221,0.0316079631447792,1.181328535079956
2502200899.0,-0.5581005811691284,0.194135308265686,10.256511688232422,-0.3108287453651428,0.3512479662895202,1.250589370727539
2502209232.0,-0.5462125539779663,-0.1003400832414627,10.067161560058594,-0.3192173838615417,-0.0636897906661033,1.1167293787002563
2502217565.0,-0.5160990953445435,-0.1233007088303566,10.123175621032717,-0.2722920775413513,-0.6223874092102051,1.110044002532959
2502225898.0,-0.4752420485019684,0.1169704422354698,10.252792358398438,-0.1531091034412384,-0.4935479164123535,1.094650149345398
2502234231.0,-0.408341497182846,0.2922437191009521,10.322553634643556,-0.1685288548469543,-0.0041366987861692,1.1949552297592163
2502242564.0,-0.3521416187286377,0.1356679797172546,10.14456272125244,-0.353066623210907,0.0177762787789106,1.1911643743515017
2502250897.0,-0.3710394203662872,-0.0943889170885086,10.091602325439451,-0.4409234225749969,-0.4258622527122497,1.0896422863006592
2502259230.0,-0.4161595702171325,-0.0218161717057228,10.181241989135742,-0.2881857454776764,-0.3843159675598144,1.21369206905365
2502267563.0,-0.5112493634223938,0.1698228120803833,10.29222583770752,-0.1925678253173828,0.0082093626260757,1.243276596069336
2502275896.0,-0.5374574661254883,0.1616757065057754,10.242262840270996,-0.1592949330806732,0.4197020828723907,1.1648712158203125
2502284229.0,-0.5337234139442444,-0.0145630864426493,10.133160591125488,-0.4226604700088501,-0.1265599280595779,1.1343648433685305
2502292562.0,-0.4944258034229278,0.0007157732616178,10.166078567504885,-0.2678992748260498,-0.6466825604438782,1.0535262823104858
2502300895.0,-0.4759001135826111,0.1875547021627426,10.278706550598145,-0.3139408528804779,-0.414681613445282,1.173234462738037
2502309228.0,-0.4169036448001861,0.1895647346973419,10.195855140686035,-0.2949351072311401,0.1360115855932235,1.1948271989822388
2502317561.0,-0.3686217665672302,-0.0362792201340198,10.11722469329834,-0.3385689258575439,-0.125356063246727,1.0629266500473022
2502325894.0,-0.385688453912735,-0.0832018703222274,10.135786056518556,-0.2702045142650604,-0.4738121032714844,1.2099522352218628
2502334227.0,-0.4342491626739502,0.1382855474948883,10.299514770507812,-0.1267136335372924,-0.4164106547832489,1.1468902826309204
2502342560.0,-0.488374650478363,0.2168670445680618,10.270123481750488,-0.2041326314210891,0.3594445884227752,1.235733151435852
2502350893.0,-0.5450537800788879,0.0466150790452957,10.129469871520996,-0.3369296193122864,0.3038104176521301,1.261116862297058
2502359226.0,-0.533387303352356,-0.1507960706949234,10.102174758911133,-0.3889265656471252,-0.4052940309047699,1.1880266666412354
2502367559.0,-0.5041109323501587,-0.0186331551522016,10.168130874633787,-0.1891739219427108,-0.5437005162239075,1.1799708604812622
2502375892.0,-0.4671807885169983,0.2561576068401336,10.330772399902344,-0.140583723783493,-0.2847918570041656,1.2181873321533203
2502384225.0,-0.4132054448127746,0.2094423919916153,10.171449661254885,-0.3041434586048126,0.1638670861721038,1.1959158182144165
2502392558.0,-0.4087921380996704,-0.0467295236885547,10.116251945495604,-0.3747490644454956,-0.269705057144165,1.201128363609314
2502400891.0,-0.4067893326282501,-0.0878512188792228,10.084614753723145,-0.3552054464817047,-0.4642708599567413,1.1008485555648804
2502409224.0,-0.4777812957763672,0.099753551185131,10.266925811767578,-0.1276357471942901,-0.1588594913482666,1.1916511058807373
2502417557.0,-0.4880456328392029,0.2043567299842834,10.245718002319336,-0.2024805247783661,0.3580742180347442,1.178293228149414
2502425890.0,-0.4800702035427093,0.0620723702013492,10.19675636291504,-0.3391580581665039,0.0739610940217971,1.200218915939331
2502434223.0,-0.4954276382923126,-0.0606706999242305,10.111072540283203,-0.392640620470047,-0.3593164980411529,1.1513981819152832
2502442556.0,-0.4909568428993225,0.0617361888289451,10.239745140075684,-0.277415007352829,-0.4990293681621551,1.1541517972946167
2502450889.0,-0.491629421710968,0.1910524070262909,10.264150619506836,-0.2915540039539337,0.0023821238428354,1.2364503145217896
2502459222.0,-0.4311230778694153,0.0657703652977943,10.1542329788208,-0.3460483253002167,0.0428141914308071,1.1369006633758545
2502467555.0,-0.3763682842254638,-0.0986305549740791,10.067840576171877,-0.3819082379341125,-0.3447420001029968,1.176756501197815
2502475888.0,-0.3741652071475982,-0.0152641665190458,10.195669174194336,-0.1292878538370132,-0.4257726073265075,1.0810487270355225
2502484221.0,-0.4500640332698822,0.2061949968338012,10.331215858459473,-0.2110485136508941,-0.0173792615532875,1.1416521072387695
2502492554.0,-0.5163137912750244,0.0983302891254425,10.196470260620115,-0.4210083484649658,0.4011444747447967,1.2130132913589478
2502500887.0,-0.5234377384185791,-0.1240517124533653,10.120993614196776,-0.2643004655838012,-0.0720912590622901,1.209043025970459
2502509220.0,-0.4974086880683899,-0.1459895223379135,10.111043930053713,-0.2489319592714309,-0.3983910381793976,1.142369270324707
2502517553.0,-0.4878024160861969,0.1495870798826217,10.297969818115234,-0.0612052120268344,-0.3710093796253204,1.16544771194458
2502525886.0,-0.4586689174175262,0.2727952003479004,10.274243354797363,-0.0867426171898841,0.1344747394323349,1.1683422327041626
2502534219.0,-0.3974548578262329,0.0654413625597953,10.183080673217772,-0.350786954164505,-0.1209504306316375,1.2498080730438232
2502542552.0,-0.4019754827022552,-0.1331287175416946,10.079177856445312,-0.3389787673950195,-0.3774513304233551,1.172094464302063
2502550885.0,-0.443955510854721,0.0141197117045521,10.2098388671875,-0.1976138055324554,-0.439591497182846,1.0549349784851074
2502559218.0,-0.5058419108390808,0.2130974978208542,10.32876205444336,-0.1514441668987274,0.038472581654787,1.2730275392532349
2502567551.0,-0.5447177290916443,0.1576918214559555,10.203916549682615,-0.2290168851613998,0.3190381228923797,1.1538316011428833
2502575884.0,-0.5299755930900574,-0.0076034720987081,10.171320915222168,-0.3461124002933502,-0.2787213325500488,1.2312250137329102
2502584217.0,-0.489633560180664,-0.0013948043342679,10.13290309906006,-0.2531070411205292,-0.5804569125175476,1.0837125778198242
2502592550.0,-0.4755209982395172,0.1697441190481186,10.268098831176758,-0.2339091897010803,-0.2653378546237945,1.1684317588806152
2502600883.0,-0.4268745183944702,0.1526202112436294,10.195368766784668,-0.2185150235891342,0.0996521711349487,1.253496527671814
2502609216.0,-0.3998150825500488,-0.000872574513778,10.10096549987793,-0.3120326101779938,-0.0868834853172302,1.170788288116455
2502617549.0,-0.40606689453125,-0.0527450628578662,10.10023593902588,-0.2794385254383087,-0.4698803722858429,1.10917329788208
2502625882.0,-0.4706785380840301,0.1355821341276168,10.284722328186035,-0.2293114364147186,-0.2414525747299194,1.1737723350524902
2502634215.0,-0.5444170832633972,0.2194347828626632,10.269722938537598,-0.2351002395153045,0.1796582490205764,1.2368345260620115
2502642548.0,-0.5335233807563782,0.0266371872276067,10.134799003601074,-0.310482919216156,0.1567847430706024,1.0847373008728027
2502650881.0,-0.513216495513916,-0.164307951927185,10.029702186584473,-0.3058211505413055,-0.3087668418884277,1.1102490425109863
2502659214.0,-0.4714081287384033,0.0032402379438281,10.245718002319336,-0.1733955591917038,-0.6199285387992859,1.1963895559310913
2502667547.0,-0.47634357213974,0.298616886138916,10.341995239257812,-0.0663280636072158,-0.1260860860347747,1.1920608282089231
2502675880.0,-0.4148650467395782,0.221180260181427,10.210003852844238,-0.26629838347435,0.0856027826666832,1.1170111894607544
2502684213.0,-0.3961888253688812,-0.0396195985376834,10.129255294799805,-0.4661406278610229,-0.2037228196859359,1.1714669466018677
2502692546.0,-0.4045934081077575,-0.0903332531452179,10.119019508361816,-0.3101499676704407,-0.5175740122795105,1.1235939264297483
2502700879.0,-0.4781389534473419,0.1023714914917945,10.266911506652832,-0.1122800111770629,-0.185562327504158,1.1808418035507202
2502709212.0,-0.5253691673278809,0.2259869277477264,10.27019500732422,-0.0858845263719558,0.2931420803070068,1.2584657669067385
2502717545.0,-0.5513268113136292,0.0786812752485275,10.168782234191896,-0.3027090728282928,0.1832058280706405,1.0838022232055664
2502725878.0,-0.5303263068199158,-0.0412363708019256,10.156758308410645,-0.3895284533500671,-0.3078958988189697,1.052924394607544
2502734211.0,-0.4847839176654815,0.0686672925949096,10.23511028289795,-0.3403619229793548,-0.5102099180221558,1.2051881551742554
2502742544.0,-0.4852917790412903,0.1862743347883224,10.26413631439209,-0.233922004699707,-0.0201712101697921,1.117728352546692
2502750877.0,-0.4096290171146393,0.0701479315757751,10.116323471069336,-0.2911953926086426,0.1259708255529403,1.08781099319458
2502759210.0,-0.384329229593277,-0.0811917558312416,10.08946418762207,-0.4094563722610473,-0.3964187204837799,1.1800734996795654
2502767543.0,-0.4056877791881561,0.0271808039397001,10.177780151367188,-0.2236763089895248,-0.517497181892395,1.2170346975326538
2502775876.0,-0.5066716074943542,0.2422310262918472,10.294986724853516,-0.24795863032341,0.0025614236947149,1.1865026950836182
2502784209.0,-0.5255551338195801,0.141540452837944,10.17237949371338,-0.3395550549030304,0.4066259562969208,1.218878984451294
2502792542.0,-0.5414632558822632,-0.1129791811108589,10.06993007659912,-0.4411539435386657,-0.0826827436685562,1.246554970741272
2502800875.0,-0.5008634924888611,-0.1369483321905136,10.087997436523438,-0.2327821552753448,-0.5657416582107544,1.2010130882263184
2502809208.0,-0.4944402575492859,0.1364190280437469,10.301910400390623,-0.0283165369182825,-0.4132215976715088,1.155765414237976
2502817541.0,-0.4487550556659698,0.2720082998275757,10.301867485046388,-0.2201159447431564,0.0427757762372493,1.1209814548492432
2502825874.0,-0.4045215845108032,0.0900829136371612,10.150885581970217,-0.4542043805122375,0.0004098277131561,1.1547664403915403
2502834207.0,-0.3744942545890808,-0.1414331644773483,10.07252597808838,-0.3839189410209656,-0.5096335411071777,1.2554304599761963
2502842540.0,-0.4350359141826629,-0.0264297556132078,10.198716163635254,-0.2230103462934494,-0.5770503282546997,1.129229187965393
2502850873.0,-0.5004414916038513,0.1981337517499923,10.261146545410156,-0.1238576248288154,0.1567847281694412,1.2251287698745728
2502859206.0,-0.503731906414032,0.1564901769161224,10.26028823852539,-0.2164018601179123,0.3417451083660126,1.2108104228973389
2502867539.0,-0.4966862499713897,-0.0291621405631303,10.125779151916504,-0.3291557431221008,-0.1404812783002853,1.2282538414001465
2502875872.0,-0.528516411781311,-0.0315941087901592,10.180669784545898,-0.279156744480133,-0.5639358758926392,1.2706965208053589
2502884205.0,-0.5028019547462463,0.1362330466508865,10.275738716125488,-0.2607401013374328,-0.3384024202823639,1.1351203918457031
2502892538.0,-0.4515160620212555,0.1391871720552444,10.19441032409668,-0.2798611223697662,0.1170954853296279,1.013516902923584
2502900871.0,-0.4079481065273285,-0.0368514470756053,10.066524505615234,-0.3434612452983856,-0.2636985182762146,1.2096705436706543
2502909204.0,-0.3731065988540649,-0.0706343278288841,10.116988182067873,-0.3096760809421539,-0.5737844705581665,1.1815718412399292
2502917537.0,-0.4321390092372894,0.1447735428810119,10.304850578308104,-0.1789666414260864,-0.2576023638248443,1.1698660850524902
2502925870.0,-0.503739058971405,0.2174967229366302,10.305193901062012,-0.2073472291231155,0.3123784363269806,1.1407171487808228
2502934203.0,-0.5254979133605957,0.0057008159346878,10.140950202941896,-0.3618010878562927,0.2616878449916839,1.235336184501648
2502942536.0,-0.5243605971336365,-0.1508749127388,10.072075843811035,-0.2737905383110046,-0.425529271364212,1.1397438049316406
2502950869.0,-0.5078160762786865,0.0052072694525122,10.207149505615234,-0.1099490970373153,-0.6082484722137451,1.0863765478134155
2502959202.0,-0.4803849160671234,0.3007912337779999,10.355972290039062,-0.0270742457360029,-0.1171339005231857,1.1433298587799072
2502967535.0,-0.4390915632247925,0.2105653882026672,10.214195251464844,-0.2359967529773712,0.1276869773864746,1.195160150527954
2502975868.0,-0.4053587615489959,-0.0426810123026371,10.129549026489258,-0.434378981590271,-0.2785163521766662,1.17833149433136
2502984201.0,-0.3897156119346618,-0.1181222572922706,10.088284492492676,-0.3481102883815765,-0.4795880913734436,1.189858078956604
2502992534.0,-0.4850915074348449,0.1109262853860855,10.301002502441406,-0.1190933659672737,-0.1382015943527221,1.214089035987854
2503000867.0,-0.528351902961731,0.1969749927520752,10.245431900024414,-0.0733079388737678,0.2197317034006118,1.2137433290481567
2503009200.0,-0.5228515267372131,0.0713496953248977,10.167695045471191,-0.2838825285434723,0.1140986084938049,1.1921249628067017
2503017533.0,-0.5273719429969788,-0.0868712812662124,10.138689994812012,-0.3555000126361847,-0.5064446330070496,1.05193829536438
2503025866.0,-0.511306643486023,0.0612571872770786,10.228358268737791,-0.3145172297954559,-0.4956610798835754,1.2805966138839722
2503034199.0,-0.4918008744716644,0.1779627352952957,10.252140998840332,-0.1737797707319259,0.0404704846441745,1.233043551445007
2503042532.0,-0.4549494087696075,0.0398985594511032,10.121408462524414,-0.3441144227981567,0.1518924087285995,1.2393958568572998
2503050865.0,-0.4247645735740661,-0.1012988910079002,10.077554702758787,-0.2505712509155273,-0.4153732359409332,1.161528706550598
2503059198.0,-0.401689350605011,0.0320304296910762,10.19370937347412,-0.2861622273921966,-0.4533719420433044,1.1779857873916626
2503067531.0,-0.4619449079036712,0.228340208530426,10.300179481506348,-0.2083333730697631,-0.0824650302529335,1.2679046392440796
2503075864.0,-0.5275292992591858,0.1640433073043823,10.232592582702637,-0.2793360650539398,0.3987880349159241,1.1775120496749878
2503084197.0,-0.5182875990867615,-0.1129505038261413,10.096430778503418,-0.3915263414382934,-0.070093348622322,1.0427554845809937
2503092530.0,-0.5075085163116455,-0.0998250767588615,10.13234519958496,-0.2250466495752334,-0.5122846961021423,1.1176387071609497
2503100863.0,-0.4845264256000519,0.1720115691423416,10.304099082946776,0.0004098277422599,-0.3554615378379822,1.1305612325668335
2503109196.0,-0.4483330547809601,0.313616394996643,10.27646827697754,-0.2073087990283966,0.0042007346637547,1.145263671875
2503117529.0,-0.3947296440601349,0.1074070930480957,10.169575691223145,-0.3168865144252777,0.0381908230483531,1.148670315742493
2503125862.0,-0.4038781225681305,-0.0986377075314521,10.054865837097168,-0.5202891230583191,-0.4844804108142853,1.145955204963684
2503134195.0,-0.4478107392787933,0.0118883727118372,10.169082641601562,-0.2539907395839691,-0.4077785611152649,1.188077688217163
2503142528.0,-0.5186740756034851,0.20698182284832,10.29917812347412,-0.1009072884917259,0.193182572722435,1.298641800880432
2503150861.0,-0.5275865197181702,0.1458679288625717,10.228057861328123,-0.2573846578598022,0.2849071621894836,1.1392956972122192
2503159194.0,-0.5181018710136414,0.0006079916493035,10.189654350280762,-0.3071018159389496,-0.300698310136795,1.1433424949645996
2503167527.0,-0.4888753592967987,-0.0180609282106161,10.188953399658203,-0.4645781517028808,-0.6339907050132751,1.1779985427856443
2503175860.0,-0.4788756966590881,0.1396091878414154,10.257805824279783,-0.3056674599647522,-0.2459862977266311,1.0923701524734497
2503184193.0,-0.4485048651695251,0.1035874634981155,10.211105346679688,-0.2479201853275299,0.0082093626260757,1.1991430521011353
2503192526.0,-0.3990285098552704,-0.0727873295545578,10.115185737609863,-0.2923993170261383,-0.2175032943487167,1.171569585800171
2503200859.0,-0.3761894702911377,-0.0733237937092781,10.15717315673828,-0.233460932970047,-0.4524626433849334,1.142061710357666
2503209192.0,-0.4661722481250763,0.1484429538249969,10.313627243041992,-0.2164787054061889,-0.3137615621089935,1.1915740966796875
2503217525.0,-0.5151620507240295,0.1700731515884399,10.263306617736816,-0.2856371402740478,0.3557305037975311,1.1164988279342651
2503225858.0,-0.5281158685684204,-0.0176102984696626,10.123697280883787,-0.3312048316001892,0.2545799016952514,1.1583268642425537
2503234191.0,-0.5235952734947205,-0.1932197511196136,10.010403633117676,-0.313812792301178,-0.3730841279029846,1.1729013919830322
2503242524.0,-0.503853440284729,-0.0184829458594322,10.224653244018556,-0.1552862972021103,-0.4816372990608215,1.105023741722107
2503250857.0,-0.4820229411125183,0.2666080892086029,10.344720840454102,-0.077226921916008,-0.1605756431818008,1.178344488143921
2503259190.0,-0.4220820963382721,0.1857092678546905,10.239945411682127,-0.2683475315570831,0.0454652644693851,1.1263346672058103
2503267523.0,-0.3896940350532532,-0.0725655928254127,10.076825141906738,-0.3972383737564087,-0.283255010843277,1.151359796524048
2503275856.0,-0.4124687016010284,-0.0718574598431587,10.11179542541504,-0.2346520125865936,-0.5328016877174377,1.1492979526519775
2503284189.0,-0.4712436497211456,0.1156756654381752,10.273885726928713,-0.1283273100852966,-0.1093215495347976,1.2058030366897583
2503292522.0,-0.5144683122634888,0.2057732194662094,10.254801750183104,-0.1049415171146392,0.2962158024311065,1.2276262044906616
2503300855.0,-0.5255048871040344,0.076399490237236,10.176464080810549,-0.3329850733280182,0.0505496971309185,1.1079310178756714
2503309188.0,-0.5370712280273438,-0.026973370462656,10.139777183532717,-0.342052549123764,-0.5371561050415039,1.0526554584503174
2503317521.0,-0.5369852185249329,0.1132441312074661,10.22010326385498,-0.3062309622764587,-0.3764908015727997,1.100822925567627
2503325854.0,-0.4918654263019562,0.1764033734798431,10.23807144165039,-0.2776710987091064,-0.022476490586996,1.2055083513259888
2503334187.0,-0.4229261577129364,0.0188477411866188,10.101716995239258,-0.3777587711811065,-0.0546607822179794,1.1919201612472534
2503342520.0,-0.3885639011859894,-0.0925792455673217,10.07631015777588,-0.244923323392868,-0.5447635650634766,1.101527452468872
2503350853.0,-0.4002087116241455,0.0713567584753036,10.263729095458984,-0.1788129806518554,-0.3569343388080597,1.1296005249023438
2503359186.0,-0.4731749892234802,0.2449063062667846,10.302053451538086,-0.2219729423522949,0.1804394870996475,1.155368447303772
2503367519.0,-0.5118288397789001,0.0779445320367813,10.21172046661377,-0.3145555853843689,0.4101094901561737,1.16242516040802
2503375852.0,-0.514289379119873,-0.1647228151559829,10.012134552001951,-0.3391964733600616,-0.2263914197683334,1.186374545097351
2503384185.0,-0.5303904414176941,-0.0732737258076667,10.17527675628662,-0.1815152615308761,-0.5780235528945923,1.2307637929916382
2503392518.0,-0.4695483744144439,0.1891497820615768,10.30394172668457,-0.0323763936758041,-0.3551925718784332,1.165767788887024
2503400851.0,-0.4536404609680176,0.2878661751747131,10.307382583618164,-0.1601530015468597,0.0233345683664083,1.1023341417312622
2503409184.0,-0.4018610119819641,0.0544832050800323,10.124412536621094,-0.3078702688217163,-0.1937076449394226,1.2293808460235596
2503417517.0,-0.3882348537445068,-0.1302318125963211,10.071395874023438,-0.2521593272686004,-0.5196231603622437,1.195441961288452
2503425850.0,-0.4420528411865234,0.0573157295584678,10.214560508728027,-0.2297212481498718,-0.308638721704483,1.2385506629943848
2503434183.0,-0.5022510290145874,0.1970177739858627,10.253607749938965,-0.2152492105960846,0.1930032521486282,1.1736186742782593
2503442516.0,-0.5184237360954285,0.1052826941013336,10.221012115478516,-0.3385305404663086,0.1930032521486282,1.0783593654632568
2503450849.0,-0.5015717148780823,-0.0356427952647209,10.112653732299805,-0.2840746641159057,-0.412888616323471,1.2385505437850952
2503459182.0,-0.4972870945930481,0.0496049672365188,10.230281829833984,-0.2522361278533935,-0.5361699461936951,1.12920343875885
2503467515.0,-0.4807427227497101,0.1916889101266861,10.291667938232422,-0.233332872390747,-0.119042158126831,1.2058669328689575
2503475848.0,-0.4587475955486297,0.1051038727164268,10.22164821624756,-0.2561039328575134,0.0089905960485339,1.1385270357131958
2503484181.0,-0.3886494636535644,-0.1022854000329971,10.06045913696289,-0.3759913742542267,-0.3299113810062408,1.147018313407898
2503492514.0,-0.3534935116767883,0.0037623953539878,10.142938613891602,-0.193438708782196,-0.5812382698059082,1.158250093460083
2503500847.0,-0.4636544287204742,0.2279253453016281,10.3688325881958,-0.2888645529747009,-0.0059553091414272,1.2077112197875977
2503509180.0,-0.4887180924415588,0.1583140045404434,10.22167682647705,-0.3244171142578125,0.330910325050354,1.3002296686172483
2503517513.0,-0.4878098368644714,-0.0738387182354927,10.091137886047363,-0.4131703972816467,0.0845013633370399,1.1508219242095947
2503525846.0,-0.5457977056503296,-0.0765783339738845,10.099828720092772,-0.1911718547344207,-0.4549472332000732,1.193187952041626
2503534179.0,-0.5317136645317078,0.0586608201265335,10.227907180786133,-0.1440672576427459,-0.4272582232952118,1.1245160102844238
2503542512.0,-0.4666443467140198,0.2928159832954407,10.319363594055176,-0.0983074307441711,0.1254457235336303,1.1156920194625854
2503550845.0,-0.4338842928409576,0.1238228678703308,10.149040222167969,-0.4150786399841308,-0.1168265044689178,1.1507834196090698
2503559178.0,-0.3610469102859497,-0.1172780096530914,10.133475303649902,-0.3531818389892578,-0.5129890441894531,1.1443159580230713
2503567511.0,-0.4002087116241455,-0.0110940597951412,10.099749565124512,-0.2148521989583969,-0.4551137089729309,1.1879754066467283
2503575844.0,-0.5103840231895447,0.1878766119480133,10.36354637145996,-0.165250226855278,0.0680826306343078,1.1649866104125977
2503584177.0,-0.5028377175331116,0.1137230470776557,10.21669864654541,-0.2590495347976684,0.3962265849113464,1.202998161315918
2503592510.0,-0.5134954452514648,0.0222310367971658,10.13774585723877,-0.2368420213460922,-0.1065680235624313,1.1429582834243774
2503600843.0,-0.534438967704773,-0.0234541725367307,10.163581848144531,-0.2685011923313141,-0.444624662399292,1.125438213348389
2503609176.0,-0.4997619986534118,0.1637714952230453,10.266754150390623,-0.3013002574443817,-0.29535773396492,1.1429455280303955
2503617509.0,-0.4555001854896545,0.1351529657840728,10.208244323730469,-0.305398553609848,0.0346688665449619,1.1649994850158691
2503625842.0,-0.4214240610599518,-0.0483460649847984,10.106659889221191,-0.362454205751419,-0.1727808117866516,1.086965560913086
2503634175.0,-0.3702096939086914,-0.0571941323578357,10.149876594543455,-0.3379926681518554,-0.5480037331581116,1.1867331266403198
2503642508.0,-0.4210091829299927,0.1249458640813827,10.255925178527832,-0.2233561277389526,-0.2621616721153259,1.2467087507247925
2503650841.0,-0.4888108670711517,0.1997429132461547,10.266075134277344,-0.212764635682106,0.3082929253578186,1.1420618295669556
2503659174.0,-0.5245324969291687,0.0044062999077141,10.11741065979004,-0.3543345034122467,0.1837565004825592,1.1314319372177124
2503667507.0,-0.5122365355491638,-0.1703020334243774,10.047991752624512,-0.3713680207729339,-0.4362744987010956,1.198541283607483
2503675840.0,-0.5332944989204407,-0.0001430568518117,10.210533142089844,-0.0854362696409225,-0.5834025740623474,1.18017578125
2503684173.0,-0.469154953956604,0.2631601393222809,10.300444602966309,-0.038651879876852,-0.0678521171212196,1.1996042728424072
2503692506.0,-0.448705106973648,0.2140346616506576,10.23355770111084,-0.2276209145784378,0.1946938037872314,1.156277775764465
2503700839.0,-0.3683502376079559,-0.0427170768380165,10.086423873901367,-0.3867237269878387,-0.3666934072971344,1.1768587827682495
2503709172.0,-0.3920257091522217,-0.0556700900197029,10.138968467712402,-0.2666442096233368,-0.626677930355072,1.1138478517532349
2503717505.0,-0.4538979530334472,0.1334434449672699,10.270773887634276,-0.2151211500167846,-0.0783155262470245,1.0869144201278689
2503725838.0,-0.4987320899963379,0.1911527663469314,10.295065879821776,-0.1993940025568008,0.2355484962463379,1.2676997184753418
2503734171.0,-0.5135097503662109,0.0163442455232143,10.171428680419922,-0.4060753285884857,0.0132425604388117,1.281890034675598
2503742504.0,-0.5019863843917847,-0.0393261052668094,10.162529945373535,-0.3567806482315063,-0.5110551714897156,1.2114635705947876
2503750837.0,-0.509139358997345,0.1114198341965675,10.237635612487791,-0.2632759511470794,-0.4365817904472351,1.1938793659210205
2503759170.0,-0.4911070466041565,0.1952583044767379,10.25387191772461,-0.2740723490715027,0.0230912342667579,1.1802655458450315
2503767503.0,-0.4364164173603058,0.0382176414132118,10.157322883605955,-0.2843180000782013,-0.055019374936819,1.2084667682647705
2503775836.0,-0.394300252199173,-0.0907979235053062,10.08265495300293,-0.3522469401359558,-0.3584455847740173,1.0900264978408811
2503784169.0,-0.4082055985927582,0.0436681061983108,10.242663383483888,-0.2107411175966262,-0.41496342420578,1.0180121660232544
2503792502.0,-0.4947263896465301,0.2225678563117981,10.304163932800291,-0.146603062748909,0.0808129012584686,1.1868610382080078
2503800835.0,-0.5212634205818176,0.1298026442527771,10.201091766357422,-0.1906595379114151,0.3824717104434967,1.2242323160171509
2503809168.0,-0.5200760364532471,-0.1160691827535629,10.050273895263672,-0.3855326473712921,-0.1931953579187393,1.2815827131271362
2503817501.0,-0.504618763923645,-0.0723581612110138,10.184439659118652,-0.1993940025568008,-0.575820803642273,1.1352996826171875
2503825834.0,-0.4976876378059387,0.1836280971765518,10.291302680969238,-0.119042158126831,-0.3287459015846252,1.1787927150726318
2503834167.0,-0.4548778831958771,0.2663432657718658,10.28842067718506,-0.2126365602016449,0.0750753208994865,1.2289196252822876
2503842500.0,-0.4145215451717376,0.039061676710844,10.125707626342772,-0.3579204976558685,-0.0618199557065963,1.2679301500320437
2503850833.0,-0.4057736396789551,-0.1200533136725425,10.074579238891602,-0.3958680033683777,-0.474298745393753,1.1597996950149536
2503859166.0,-0.4346281886100769,0.0785882845520973,10.25831413269043,-0.2813467681407928,-0.3881581425666809,1.230699896812439
2503867499.0,-0.5063712000846863,0.2108300477266311,10.256068229675291,-0.1954110264778137,0.1731138080358505,1.1229665279388428
2503875832.0,-0.4871157705783844,0.1033371239900589,10.181478500366213,-0.2711522579193115,0.0829773098230362,1.212923526763916
2503884165.0,-0.5133094787597656,-0.0267802439630031,10.120772361755373,-0.3539246618747711,-0.3193198442459106,1.2273828983306885
2503892498.0,-0.5256767272949219,0.0235185474157333,10.249923706054688,-0.3289507925510406,-0.505099892616272,1.1887309551239014
2503900831.0,-0.5010782480239868,0.1802799999713897,10.281618118286133,-0.2529021501541137,-0.2863799631595611,1.1035892963409424
2503909164.0,-0.4700276255607605,0.1437292248010635,10.181364059448242,-0.1813872009515762,0.0479498468339443,1.1714158058166504
2503917497.0,-0.4018469452857971,-0.0846827402710914,10.031161308288574,-0.336891233921051,-0.3068713247776031,1.1513854265213013
2503925830.0,-0.402569055557251,-0.0523013472557067,10.11689567565918,-0.2494954466819763,-0.5651140809059143,1.2003086805343628
2503934163.0,-0.4515661299228668,0.2022251784801483,10.309836387634276,-0.1289292424917221,-0.094503715634346,1.225051999092102
2503942496.0,-0.497680515050888,0.1752589643001556,10.250746726989746,-0.2726122736930847,0.4326628148555755,1.1812645196914673
2503950829.0,-0.5326221585273743,-0.0469298027455806,10.087811470031738,-0.3545778691768646,0.0111293839290738,1.1585190296173096
2503959162.0,-0.5589660406112671,-0.1359254717826843,10.087711334228516,-0.239288181066513,-0.5154609084129333,1.1805472373962402
2503967495.0,-0.5109776258468628,0.0729303881525993,10.263299942016602,-0.1183633804321289,-0.3872359991073608,1.0782183408737185
2503975828.0,-0.4818083941936493,0.297694057226181,10.345757484436035,-0.1379710733890533,-0.1261885166168213,1.100131273269653
2503984161.0,-0.4348714053630829,0.1470123827457428,10.183874130249023,-0.3165023028850555,0.0068390006199479,1.1502327919006348
2503992494.0,-0.3683213293552398,-0.1203537359833717,10.058842658996582,-0.4599163830280304,-0.3863266706466675,1.2164455652236938
2504000827.0,-0.4093929529190063,-0.0124674048274755,10.163381576538086,-0.2953193485736847,-0.5306628942489624,1.152512550354004
2504009160.0,-0.4609363675117492,0.1532139033079147,10.319986343383787,-0.1154305562376976,0.1165447756648063,1.1479276418685913
2504017493.0,-0.4949981868267059,0.1581064462661743,10.255581855773926,-0.1507013440132141,0.3942030966281891,1.0761563777923584
2504025826.0,-0.5162993669509888,0.0088552199304103,10.150734901428224,-0.3252623677253723,-0.0074409348890185,1.1756165027618408
2504034159.0,-0.5190889835357666,-0.0539395883679389,10.166536331176758,-0.4920622408390045,-0.4146304130554199,1.0196770429611206
2504042492.0,-0.5024800896644592,0.1396377980709076,10.245095252990724,-0.3875177502632141,-0.2138276249170303,1.2017300128936768
2504050825.0,-0.4694196283817291,0.1385648697614669,10.267369270324709,-0.2864439785480499,0.0565178096294403,1.254956603050232
2504059158.0,-0.4078407883644104,-0.0276528913527727,10.139326095581056,-0.328348845243454,-0.1728704571723938,1.1889742612838743
2504067491.0,-0.3711681663990021,-0.0719432979822158,10.097554206848145,-0.3210360109806061,-0.6016143560409546,1.197798490524292
2504075824.0,-0.4279974997043609,0.1266410797834396,10.25974464416504,-0.1797735095024109,-0.3134798407554626,1.137195110321045
2504084157.0,-0.4916293919086456,0.2243991792201995,10.291646003723145,-0.2587806284427643,0.2499565184116363,1.2170730829238892
2504092490.0,-0.5062281489372253,0.0487680844962596,10.13924789428711,-0.2620208263397217,0.2263273894786834,1.1154999732971191
2504100823.0,-0.4946119487285614,-0.1548447459936142,10.076224327087402,-0.3929607570171356,-0.3463940918445587,1.1380404233932495
2504109156.0,-0.5018577575683594,-0.0154143767431378,10.171600341796877,-0.1742280274629593,-0.6065194606781006,1.116793513298035
2504117489.0,-0.4656786918640136,0.2695761024951935,10.342059135437012,-0.0685693025588989,-0.2502254545688629,1.2179185152053833
2504125822.0,-0.4325037896633148,0.2367877066135406,10.2431640625,-0.2855730950832367,0.1102308705449104,1.3195557594299316
2504134155.0,-0.3981200754642486,-0.0284540094435215,10.115378379821776,-0.3709965646266937,-0.2883906662464142,1.0667688846588137
2504142488.0,-0.4141853749752044,-0.1076932027935981,10.10944938659668,-0.2844844758510589,-0.5731313228607178,1.1858365535736084
2504150821.0,-0.4537191390991211,0.1157759130001068,10.23598289489746,-0.1751629561185836,-0.1863307505846023,1.1862976551055908
2504159154.0,-0.5103768110275269,0.2191416472196579,10.280237197875977,-0.2233817428350448,0.2035179287195205,1.2684810161590576
2504167487.0,-0.527457594871521,0.083616629242897,10.176478385925291,-0.3300138115882873,0.1491132825613021,1.1395390033721924
2504175820.0,-0.503202497959137,-0.0439685247838497,10.143854141235352,-0.3700872659683227,-0.4501317143440246,1.1753089427947998
2504184153.0,-0.5203908085823059,0.0444263070821762,10.22748565673828,-0.1931697279214859,-0.4913194179534912,1.2702099084854126
2504192486.0,-0.485105812549591,0.1590649187564849,10.236483573913574,-0.2260968685150146,0.0446840338408947,1.1917662620544434
2504200819.0,-0.4402002692222595,0.0374665930867195,10.126386642456056,-0.3022992014884949,0.0758309438824653,1.1772942543029783
2504209152.0,-0.378142386674881,-0.1123428717255592,10.087590217590332,-0.3186410963535309,-0.42442786693573,1.1167421340942385
2504217485.0,-0.4025762975215912,0.0009084110497497,10.207006454467772,-0.1698735803365707,-0.5040881633758545,1.1007587909698486
2504225818.0,-0.4798270165920257,0.1930838376283645,10.30321216583252,-0.1893532425165176,0.0646759420633316,1.2620645761489868
2504234151.0,-0.5350183844566345,0.1211049407720565,10.212650299072266,-0.3023119866847992,0.3646954596042633,1.294312834739685
2504242484.0,-0.5442526936531067,-0.1228286176919937,10.068120002746582,-0.3694212734699249,-0.0541100688278675,1.1249258518218994
2504250817.0,-0.527100145816803,-0.1626914143562317,10.108640670776367,-0.1635853052139282,-0.5888840556144714,1.17487370967865
2504259150.0,-0.5144539475440979,0.1291799992322921,10.260345458984377,-0.0872548893094062,-0.3918080925941467,1.1763849258422852
2504267483.0,-0.4646558165550232,0.2704704403877258,10.285459518432615,-0.1596663445234298,0.0204145461320877,1.1392443180084229
2504275816.0,-0.3916753828525543,0.0793464854359626,10.155963897705078,-0.2998914420604706,-0.0886764824390411,1.241816520690918
2504284149.0,-0.4059453010559082,-0.1089020371437072,10.081167221069336,-0.3887472450733185,-0.4913322329521179,1.0895910263061523
2504292482.0,-0.4434404969215393,0.0068381177261471,10.249831199645996,-0.2059640437364578,-0.3119813799858093,1.1517568826675415
2504300815.0,-0.5398823022842407,0.2003010660409927,10.292819023132324,-0.1067729368805885,0.2287863343954086,1.2215172052383425
2504309148.0,-0.5359553694725037,0.1844074428081512,10.220975875854492,-0.2311684489250183,0.1913767606019973,1.090666890144348
2504317481.0,-0.5365776419639587,0.0167090408504009,10.125943183898926,-0.3311152458190918,-0.2145448476076126,1.08339262008667
2504325814.0,-0.5267066359519958,0.0534677505493164,10.21146297454834,-0.3304620087146759,-0.6131150722503662,1.124208688735962
2504334147.0,-0.5115355849266052,0.1978476345539093,10.25185489654541,-0.1934002786874771,-0.3335869908332824,1.1911131143569946
2504342480.0,-0.4532327353954315,0.1516259610652923,10.199639320373535,-0.2391344755887985,-0.0100663928315043,1.190485596656799
2504350813.0,-0.4056594371795654,-0.0146492477506399,10.128533363342283,-0.3669879138469696,-0.282640278339386,1.1263859272003174
2504359146.0,-0.3758962154388428,-0.02903338894248,10.127488136291504,-0.2624306380748749,-0.6272541880607605,1.2463117837905884
2504367479.0,-0.4338699877262115,0.1693221032619476,10.250560760498049,-0.1422486454248428,-0.2164530903100967,1.0879390239715576
2504375812.0,-0.5024943947792053,0.2233546674251556,10.271074295043944,-0.2500333487987518,0.1461292058229446,1.1906776428222656
2504384145.0,-0.5107916593551636,-0.0134473443031311,10.097525596618652,-0.4640915095806122,0.0404448807239532,1.1075338125228882
2504392478.0,-0.5145540833473206,-0.1297311186790466,10.092239379882812,-0.3423214256763458,-0.5243874192237854,1.1049724817276
2504400811.0,-0.4901700317859649,0.0550196692347526,10.241447448730469,-0.0926338732242584,-0.6177513003349304,1.0564079284667969
2504409144.0,-0.4628247022628784,0.2683889865875244,10.325657844543455,-0.1026490405201911,-0.0991655066609382,1.2031261920928955
2504417477.0,-0.3795012235641479,0.1606599986553192,10.184110641479492,-0.3255825340747833,0.0217592921108007,1.15144944190979
2504425810.0,-0.3836572766304016,-0.0728877335786819,10.129655838012695,-0.3600080609321594,-0.3337022364139557,1.1561881303787231
2504434143.0,-0.3884637355804443,-0.0558136329054832,10.154297828674316,-0.2506352961063385,-0.3754022121429443,1.2193528413772583
2504442476.0,-0.4222967028617859,0.1556601673364639,10.25617504119873,-0.0938505604863166,-0.0021003673318773,1.108007788658142
2504450809.0,-0.4823090434074402,0.1935988515615463,10.226326942443848,-0.2824353277683258,0.3768365979194641,1.133609175682068
2504459142.0,-0.5077588558197021,0.0224098563194274,10.166357040405272,-0.3289763927459717,-0.0052893389947712,1.1030513048171997
2504467475.0,-0.5051120519638062,-0.016358183696866,10.188101768493652,-0.3862242698669433,-0.4663968086242676,1.100361943244934
2504475808.0,-0.515720009803772,0.0939381048083305,10.245409965515137,-0.3250574469566345,-0.3803586065769195,1.2428796291351318
2504484141.0,-0.4616659283638,0.1461254358291626,10.249237060546877,-0.2844204604625702,0.1936051994562149,1.1820329427719116
2504492474.0,-0.4502786099910736,0.0062515847384929,10.09939956665039,-0.3815752863883972,-0.122026227414608,1.1457375288009644
2504500807.0,-0.3383436501026153,-0.1289083212614059,10.13088607788086,-0.3726487159729004,-0.5162677764892578,1.163885235786438
2504509140.0,-0.3817972838878631,0.1059479117393493,10.246161460876465,-0.1343850940465927,-0.4540251493453979,1.1229023933410645
2504517473.0,-0.4950554072856903,0.1739499866962433,10.288169860839844,-0.2483556121587753,0.1818994730710983,1.262410283088684
2504525806.0,-0.4852059483528137,0.0364794991910457,10.168045043945312,-0.3988521099090576,0.3130316138267517,1.165780782699585
2504534139.0,-0.5178729891777039,-0.1708742678165435,10.03189754486084,-0.3707276880741119,-0.3350726366043091,1.1812005043029783
2504542472.0,-0.5363916754722595,-0.0874363556504249,10.225346565246582,-0.1803754419088363,-0.616355299949646,1.1806751489639282
2504550805.0,-0.5370712280273438,0.1582494974136352,10.261661529541016,-0.0583108067512512,-0.0703494995832443,1.0864020586013794
2504559138.0,-0.4973586201667785,0.2481821924448013,10.272469520568848,-0.1302611827850341,0.1185426712036132,1.245005488395691
2504567471.0,-0.433784157037735,-0.031894527375698,10.12246036529541,-0.4468786716461181,-0.2609449923038482,1.1672918796539309
2504575804.0,-0.3807242214679718,-0.1093737334012985,10.073670387268066,-0.2974197268486023,-0.5482343435287476,1.0238523483276367
2504584137.0,-0.4376180768013,0.0530383288860321,10.299235343933104,-0.072193719446659,-0.2051315903663635,1.134992241859436
2504592470.0,-0.4845264256000519,0.1839353591203689,10.274322509765623,-0.2184766083955764,0.2553226947784424,1.0451120138168335
2504600803.0,-0.5072224140167236,0.0847683399915695,10.202028274536133,-0.2793360352516174,0.2165939658880233,1.1839154958724976
2504609136.0,-0.531320333480835,-0.0578092783689498,10.130335807800291,-0.3471625447273254,-0.3966492414474487,1.0406551361083984
2504617469.0,-0.5561907887458801,0.0381175018846988,10.23367977142334,-0.1896349787712097,-0.4580721259117126,1.1785110235214231
2504625802.0,-0.5554397106170654,0.1810527592897415,10.30126667022705,-0.1855751276016235,-0.123153232038021,1.187719225883484
2504634135.0,-0.4456435739994049,0.069432646036148,10.134198188781738,-0.2320137321949005,0.0507033765316009,1.2330307960510254
2504642468.0,-0.4237846732139587,-0.0724155306816101,10.103111267089844,-0.3890801966190338,-0.3499416410923004,1.2014228105545044
2504650801.0,-0.3711394667625427,-0.0044343103654682,10.159504890441896,-0.1778652369976043,-0.5474017858505249,1.161259651184082
2504659134.0,-0.4464733004570007,0.1927404999732971,10.336888313293455,-0.2278129905462265,-0.0775599032640457,1.2044196128845217
2504667467.0,-0.4849986732006073,0.194092571735382,10.229151725769045,-0.2243422567844391,0.2405432909727096,1.2117325067520142
2504675800.0,-0.497272789478302,-0.0815924778580665,10.113025665283203,-0.2467547208070755,-0.0445815771818161,1.1593002080917358
2504684133.0,-0.5172649621963501,-0.1136872842907905,10.10045051574707,-0.2359583377838134,-0.4617733955383301,1.152755856513977
2504692466.0,-0.4761719107627868,0.1237370297312736,10.272655487060549,-0.0567355267703533,-0.5108758807182312,1.127679467201233
2504700799.0,-0.4618661105632782,0.2996039986610412,10.275009155273438,-0.2139428853988647,0.0482572168111801,1.1980289220809937
2504709132.0,-0.3974331617355346,0.1347380429506302,10.152109146118164,-0.3666037023067474,0.0841683819890022,1.1748480796813965
2504717465.0,-0.407075434923172,-0.0776369571685791,10.05933666229248,-0.3864547610282898,-0.4889628887176513,1.1400127410888672
2504725798.0,-0.4039209485054016,-0.0120594715699553,10.192214965820312,-0.2898122072219848,-0.5270768404006958,1.1731061935424805
2504734131.0,-0.4588048160076141,0.2222030609846115,10.272397994995115,-0.2442701458930969,0.0974877700209617,1.116985559463501
2504742464.0,-0.4965431988239288,0.1696725934743881,10.245681762695312,-0.2525947690010071,0.205118790268898,1.167343020439148
2504750797.0,-0.5244821906089783,0.0512930378317832,10.151472091674805,-0.3479309678077698,-0.1640975922346115,1.1805857419967651
2504759130.0,-0.5134024620056152,0.0121741387993097,10.180706024169922,-0.3469319939613342,-0.5136038064956665,1.1854523420333862
2504767463.0,-0.5201621055603027,0.1968961060047149,10.27675437927246,-0.3934986889362335,-0.2348697185516357,1.0923188924789429
2504775796.0,-0.4584543108940124,0.1813460290431976,10.244230270385742,-0.2524154484272003,0.1792740225791931,1.2456458806991575
2504784129.0,-0.4167460799217224,0.0009227167465724,10.10763931274414,-0.242387518286705,-0.1979468017816543,1.0955848693847656
2504792462.0,-0.3783067166805267,-0.0600767284631729,10.122846603393556,-0.3041690289974212,-0.474862277507782,1.1010407209396362
2504800795.0,-0.4448496103286743,0.1463829278945922,10.265674591064451,-0.2896201312541961,-0.1523022353649139,1.2539832592010498
2504809128.0,-0.4901056587696075,0.1904802024364471,10.281739234924316,-0.2940770387649536,0.2457045316696167,1.222477674484253
2504817461.0,-0.5201690196990967,0.0099496049806475,10.114542007446287,-0.3680125474929809,0.1764564663171768,1.16780424118042
2504825794.0,-0.5243105292320251,-0.1532496660947799,10.083956718444824,-0.3297064006328583,-0.4737864732742309,1.08390474319458
2504834127.0,-0.499239832162857,0.0053217150270938,10.199359893798828,-0.2089353203773498,-0.620556116104126,1.1586984395980835
2504842460.0,-0.477602481842041,0.222260296344757,10.336387634277344,-0.106836974620819,-0.1214370802044868,1.0723015069961548
2504850793.0,-0.4134271740913391,0.153685986995697,10.194438934326172,-0.2863799333572387,0.1546075046062469,1.0766431093215942
2504859126.0,-0.3942146301269531,-0.0759345814585685,10.077068328857422,-0.3769774734973907,-0.3051295578479767,1.1913435459136963
2504867459.0,-0.400838166475296,-0.1265123337507248,10.138668060302734,-0.3158362805843353,-0.4900899231433868,1.164166808128357
2504875792.0,-0.5014857649803162,0.1148963049054145,10.269393920898438,-0.1406477689743042,-0.2122651487588882,1.1216857433319092
2504884125.0,-0.5109633207321167,0.1575771272182464,10.254487037658691,-0.2196548879146576,0.3850075900554657,1.2779710292816162
2504892458.0,-0.5289241075515747,0.0168735571205616,10.142924308776855,-0.3046301007270813,0.0409955829381942,1.1455581188201904
2504900791.0,-0.5186097025871277,-0.0736599788069725,10.178423881530762,-0.29804727435112,-0.4230959713459015,1.191856026649475
2504909124.0,-0.5288954377174377,0.0782809183001518,10.250882148742676,-0.240517646074295,-0.4748366773128509,1.209081530570984
2504917457.0,-0.4981597363948822,0.1160691827535629,10.226527214050291,-0.2619695961475372,-0.0079532191157341,1.198054552078247
2504925790.0,-0.4556646943092346,0.0115303825587034,10.118976593017578,-0.3046301007270813,-0.0307114664465188,1.2130261659622192
2504934123.0,-0.3747873604297638,-0.0925072953104972,10.11111545562744,-0.2632375061511993,-0.5245795249938965,1.16213059425354
2504942456.0,-0.4101439416408539,0.0553062036633491,10.22781467437744,-0.1330787539482116,-0.5137575268745422,1.117497801780701
2504950789.0,-0.4569092988967895,0.2000507116317749,10.325093269348145,-0.1251383423805236,0.1260476559400558,1.2187509536743164
2504959122.0,-0.5003055930137634,0.0922859832644462,10.12807559967041,-0.3494934141635895,0.3041434586048126,1.1148340702056885
2504967455.0,-0.5237386226654053,-0.1768112182617187,10.096302032470703,-0.4290256202220917,-0.1553375273942947,1.1220059394836426
2504975788.0,-0.537407398223877,-0.0598907545208931,10.120464324951172,-0.1725246608257293,-0.5106837749481201,1.181482195854187
2504984121.0,-0.5106271505355835,0.1943069845438003,10.31380558013916,0.0299942661076784,-0.3346883952617645,1.148670315742493
2504992454.0,-0.459620326757431,0.274046927690506,10.27289867401123,-0.2096909284591674,0.1421846151351928,1.0040522813796997
2505000787.0,-0.3974694311618805,0.0667215883731842,10.14636516571045,-0.3471496999263763,-0.1484344899654388,1.164256572723389
2505009120.0,-0.389350563287735,-0.1035228744149208,10.095279693603516,-0.4168973267078399,-0.5597991347312927,1.1970940828323364
2505017453.0,-0.4159734845161438,0.0502775833010673,10.215332984924316,-0.1863691657781601,-0.2931804955005646,1.1675095558166504
2505025786.0,-0.4683395326137543,0.2179042100906372,10.27568817138672,-0.1065680086612701,0.3085746765136719,1.204150676727295
2505034119.0,-0.508538544178009,0.1263263523578643,10.18139934539795,-0.2616622149944305,0.2103441059589386,1.1476202011108398
2505042452.0,-0.4924949407577514,-0.0248778965324163,10.109492301940918,-0.3838933408260345,-0.3791803419589996,1.1397053003311155
2505050785.0,-0.5035958886146545,0.0537250041961669,10.216655731201172,-0.2858676314353943,-0.4503622949123382,1.2395751476287842
2505059118.0,-0.4906920492649078,0.1854375600814819,10.25497341156006,-0.1838974058628082,-0.0973981246352195,1.259400725364685
2505067451.0,-0.4304223358631134,0.1011340469121933,10.158910751342772,-0.2827683389186859,0.034835360944271,1.1994377374649048
2505075784.0,-0.3649167716503143,-0.0713141560554504,10.093720436096191,-0.3050527274608612,-0.4007731080055237,1.1338653564453125
2505084117.0,-0.3596448600292206,-0.0037335439119488,10.157630920410156,-0.3054881989955902,-0.5724141597747803,1.174310326576233
2505092450.0,-0.4340130388736725,0.1853730827569961,10.314900398254396,-0.2250850647687912,0.0057119745761156,1.1277692317962646
2505100783.0,-0.5056775808334351,0.2048647999763488,10.258686065673828,-0.2911698222160339,0.3114691078662872,1.1363500356674194
2505109116.0,-0.4988462030887604,-0.0446695089340209,10.088526725769045,-0.3308718502521515,0.0003585992380976,1.1565594673156738
2505117449.0,-0.5261345505714417,-0.1279361695051193,10.087940216064451,-0.1554271727800369,-0.5548043251037598,1.1176899671554563
2505125782.0,-0.4836966693401336,0.082465536892414,10.25387191772461,-0.1209247931838035,-0.4733254313468933,1.1940715312957764
2505134115.0,-0.4808999300003052,0.309231698513031,10.342674255371094,-0.1040578335523605,0.1028923764824867,1.1551252603530884
2505142448.0,-0.4174901247024536,0.1387580633163452,10.21971035003662,-0.2238940298557281,0.0850264504551887,1.1810083389282229
2505150781.0,-0.4110310971736908,-0.0667290762066841,10.053929328918455,-0.3948434591293335,-0.4856202602386474,1.1770893335342407
2505159114.0,-0.4188061058521271,-0.0424664281308651,10.19403839111328,-0.277619868516922,-0.4583026468753814,1.1535626649856567
2505167447.0,-0.4972727596759796,0.199557214975357,10.29621696472168,-0.0977823361754417,-0.0376145057380199,1.198208212852478
2505175780.0,-0.5010566711425781,0.1807880997657776,10.249680519104004,-0.2915796339511871,0.3598543703556061,1.2402667999267578
2505184113.0,-0.5261201858520508,0.0193627458065748,10.091252326965332,-0.4756434857845306,-0.1018037721514701,1.0837894678115845
2505192446.0,-0.5218929052352905,-0.0236472990363836,10.13547134399414,-0.4289743900299072,-0.5110936164855957,1.0707772970199585
2505200779.0,-0.5278869867324829,0.1435861736536026,10.284772872924805,-0.3432179391384125,-0.353258728981018,1.2638064622879028
2505209112.0,-0.451651781797409,0.1337223351001739,10.252248764038086,-0.381229430437088,0.153045043349266,1.25184428691864
2505217445.0,-0.3992502391338348,-0.0379744432866573,10.10712432861328,-0.4359286427497864,-0.1244595646858215,1.1904600858688354
2505225778.0,-0.3691940009593963,-0.1043385192751884,10.130607604980469,-0.2458582073450088,-0.5210062861442566,1.2390116453170776
2505234111.0,-0.4468595683574676,0.0948323905467987,10.275381088256836,-0.1765204966068267,-0.2714980840682983,1.2248728275299072
2505242444.0,-0.4825665354728699,0.2043710350990295,10.31831169128418,-0.2028647363185882,0.164174422621727,1.2308790683746338
2505250777.0,-0.5157702565193176,0.0227391589432954,10.174196243286133,-0.325749009847641,0.3180519640445709,1.194904088973999
2505259110.0,-0.5233235955238342,-0.1557104587554931,10.085086822509766,-0.3037207722663879,-0.322700947523117,1.0762076377868652
2505267443.0,-0.4967148602008819,-0.043167408555746,10.17943286895752,-0.2080516368150711,-0.6339651346206665,1.097083330154419
2505275776.0,-0.4666585922241211,0.2027546167373657,10.333175659179688,-0.0902005285024643,-0.1126129850745201,1.2081209421157837
2505284109.0,-0.4238344430923462,0.1903872489929199,10.19775104522705,-0.242118552327156,0.0077098845504224,1.104690670967102
2505292442.0,-0.3725273013114929,-0.0484320111572742,10.123425483703612,-0.3576899766921997,-0.2689878642559051,1.2604764699935913
2505300775.0,-0.3997511565685272,-0.1433791816234588,10.132481575012209,-0.3325623869895935,-0.5871679186820984,1.1100953817367554
2505309108.0,-0.4727170765399933,0.0995532646775245,10.26014518737793,-0.2369444668292999,-0.2242398113012313,1.1374000310897827
2505317441.0,-0.5104984045028687,0.189986914396286,10.256783485412598,-0.0871268063783645,0.3397727906703949,1.1559958457946775
2505325774.0,-0.5171433687210083,0.0407712049782276,10.163818359375,-0.255924642086029,0.1231532469391822,1.1748225688934326
2505334107.0,-0.5055987238883972,-0.0540969520807266,10.144762992858888,-0.3447035551071167,-0.3904761970043182,1.1328662633895874
2505342440.0,-0.5070650577545166,0.0932730734348297,10.21076202392578,-0.1963202953338623,-0.5383727550506592,1.2119630575180054
2505350773.0,-0.4787324965000152,0.1782131046056747,10.262212753295898,-0.2228054404258728,0.0065060155466198,1.1610163450241089
2505359106.0,-0.4206513464450836,0.0596975535154342,10.177823066711426,-0.3008263409137726,0.1019446477293968,1.1106843948364258
2505367439.0,-0.3480358719825744,-0.086463563144207,10.078126907348633,-0.3127626478672027,-0.3146581053733825,1.0392719507217407
2505375772.0,-0.3987995982170105,0.048496276140213,10.229073524475098,-0.0909689515829086,-0.6408810019493103,1.1150133609771729
2505384105.0,-0.4647558331489563,0.2063022553920745,10.334148406982422,-0.2346904277801513,0.0846806541085243,1.1848375797271729
2505392438.0,-0.5143109560012817,0.1347597539424896,10.134763717651367,-0.3095096349716186,0.4113902449607849,1.2105544805526731
2505400771.0,-0.5306193232536316,-0.1114055290818214,10.08037281036377,-0.4021818935871124,-0.1028283461928367,1.1326614618301392
2505409104.0,-0.5200903415679932,-0.0662925466895103,10.153825759887695,-0.2183741629123687,-0.6584779024124146,1.0154505968093872
2505417437.0,-0.5045830011367798,0.1772259920835495,10.290401458740234,-0.0917629897594451,-0.3523878157138824,1.1315855979919434
2505425770.0,-0.4501284062862396,0.3010774552822113,10.322189331054688,-0.2469212114810943,0.1348717510700225,1.108622431755066
2505434103.0,-0.3935780227184295,0.0469798743724823,10.156472206115724,-0.4389639496803283,-0.00575039582327,1.1498485803604126
2505442436.0,-0.413713276386261,-0.1170419678092002,10.056031227111816,-0.3826894462108612,-0.6571459770202637,1.209452748298645
2505450769.0,-0.4317955672740936,0.0283111594617366,10.227191925048828,-0.1569256037473678,-0.2269036918878555,1.248181700706482
2505459102.0,-0.5000266432762146,0.241229623556137,10.279973030090332,-0.2032873630523681,0.1988432854413986,1.178741455078125
2505467435.0,-0.524925708770752,0.1166700199246406,10.224166870117188,-0.3303083479404449,0.2954089641571045,1.1622971296310425
2505475768.0,-0.5383015275001526,-0.0214799866080284,10.095952033996582,-0.4463280737400055,-0.2369828820228576,1.1518850326538086
2505484101.0,-0.5268569588661194,0.0239262599498033,10.195576667785645,-0.3874665200710296,-0.5231707096099854,1.1896915435791016
2505492434.0,-0.519260823726654,0.1759668737649917,10.263750076293944,-0.2914259135723114,-0.2210636436939239,1.1925987005233765
2505500767.0,-0.439721018075943,0.1336008012294769,10.189961433410645,-0.24615278840065,0.0199662931263446,1.201935052871704
2505509100.0,-0.4164387285709381,-0.0546193234622478,10.08906364440918,-0.327119380235672,-0.25637286901474,1.2040098905563354
2505517433.0,-0.3708103001117706,-0.0382530130445957,10.180898666381836,-0.3117764294147491,-0.4723264873027801,1.1684061288833618
2505525766.0,-0.452603280544281,0.1668829768896103,10.288599014282228,-0.1840767115354538,-0.1421974152326584,1.2115788459777832
2505534099.0,-0.5046901702880859,0.1810812205076217,10.27935791015625,-0.3578692674636841,0.391001284122467,1.254226565361023
2505542432.0,-0.5210059285163879,-0.0802548974752426,10.070344924926758,-0.4255420863628387,0.0425964668393135,1.20338237285614
2505550765.0,-0.501349925994873,-0.128114566206932,10.053893089294434,-0.1584624648094177,-0.3795645236968994,1.202306628227234
2505559098.0,-0.5029307007789612,0.0478164255619049,10.268685340881348,-0.0818502902984619,-0.3954709768295288,1.1459295749664309
2505567431.0,-0.4716370105743408,0.2751484215259552,10.298319816589355,-0.1163398548960685,0.0472454577684402,1.1557013988494873
2505575764.0,-0.4050509631633758,0.1347808688879013,10.222349166870115,-0.3338943421840668,0.2198981940746307,1.0721094608306885
2505584097.0,-0.3987852931022644,-0.0914204865694046,10.0325345993042,-0.3437558114528656,-0.4697778522968292,1.096212387084961
2505592430.0,-0.3854020535945892,-0.0708914697170257,10.166107177734377,-0.3796669840812683,-0.4331238865852356,1.1733369827270508
2505600763.0,-0.4775881767272949,0.1479851752519607,10.30857753753662,-0.2565777897834778,-0.0780465751886367,1.236770510673523
2505609096.0,-0.4950554072856903,0.1438436657190323,10.245438575744627,-0.1930032521486282,0.3131468296051025,1.0784488916397097
2505617429.0,-0.522114634513855,-0.0040055918507277,10.12912654876709,-0.3139024376869201,-0.1491772830486297,1.1496052742004397
2505625762.0,-0.483381986618042,-0.0369229763746261,10.140228271484377,-0.3865572214126587,-0.4922159314155578,1.0737487077713013
2505634095.0,-0.4957492351531982,0.1228929981589317,10.234495162963867,-0.2155821919441223,-0.2973940968513489,1.130842924118042
2505642428.0,-0.4553785920143127,0.1497018486261367,10.252191543579102,-0.2736240327358246,0.1103205010294914,1.1614004373550415
2505650761.0,-0.4068465530872345,-0.00104431505315,10.13283920288086,-0.3887344300746918,-0.2086663693189621,1.1546385288238523
2505659094.0,-0.3604533970355987,-0.0700766965746879,10.092954635620115,-0.3200627267360687,-0.40592160820961,1.0727754831314087
2505667427.0,-0.4278546869754791,0.1022208854556083,10.241741180419922,-0.1827959865331649,-0.2448080480098724,1.0889378786087036
2505675760.0,-0.4684611558914184,0.1916532814502716,10.264315605163574,-0.341527372598648,0.3518114686012268,1.1952626705169678
2505684093.0,-0.5243250727653503,0.0399703085422515,10.096610069274902,-0.3901176154613495,0.2653378844261169,1.1926501989364624
2505692426.0,-0.5381655693054199,-0.1583424806594848,10.084478378295898,-0.2660550475120544,-0.3825485706329345,1.1286271810531616
2505700759.0,-0.5334590077400208,-0.0276955757290124,10.17034149169922,-0.1999959498643875,-0.5359779000282288,1.2191224098205566
2505709092.0,-0.4811860620975494,0.2316662818193435,10.326194763183594,-0.1591796576976776,-0.1899167150259018,1.1168831586837769
2505717425.0,-0.449177086353302,0.1861741989850998,10.215776443481444,-0.1909925490617752,0.1152384355664253,1.1688032150268557
2505725758.0,-0.3773840069770813,-0.0523659624159336,10.095200538635254,-0.3841750919818878,-0.2959852814674377,1.1621689796447754
2505734091.0,-0.3833423256874084,-0.0879871174693107,10.12738800048828,-0.2981368899345398,-0.5924444198608398,1.1680091619491575
2505742424.0,-0.4490912556648254,0.1072640344500541,10.233600616455078,-0.1470897346735,-0.2533631920814514,1.1566107273101809
2505750757.0,-0.477452278137207,0.1910309791564941,10.239587783813477,-0.2154797464609146,0.3080624043941498,1.0871704816818235
2505759090.0,-0.5024228692054749,0.0825581103563308,10.19082736968994,-0.3752228915691376,0.1579757928848266,1.1499896049499512
2505767423.0,-0.523373544216156,-0.0432961583137512,10.125006675720217,-0.3443321585655212,-0.4159239530563354,1.227831244468689
2505775756.0,-0.5230730772018433,0.0939740538597107,10.23095417022705,-0.197498545050621,-0.4095588028430938,1.1627837419509888
2505784089.0,-0.5445101857185364,0.2205293029546737,10.263177871704102,-0.1468336135149002,0.0783795714378357,1.0995423793792725
2505792422.0,-0.4455218017101288,0.0238119103014469,10.090265274047852,-0.2835111618041992,-0.1087964549660682,1.1845046281814575
2505800755.0,-0.3507899641990661,-0.0586178824305534,10.15166473388672,-0.358407199382782,-0.4173199236392975,1.1456222534179688
2505809088.0,-0.4082914292812347,0.0618720911443233,10.20486068725586,-0.208499863743782,-0.4723521471023559,1.2254490852355957
2505817421.0,-0.4346712231636047,0.2078760266304016,10.360864639282228,-0.2018145769834518,0.1590259820222854,1.1625919342041016
