SampleTimeFine,Acc_X,Acc_Y,Acc_Z,Gyr_X,Gyr_Y,Gyr_Z
4199138520.0,0.0,0.0,0.0,0.0,0.0,0.0
4199146853.0,-0.5837777853012085,0.0106008481234312,9.858813285827637,1.585828423500061,1.4351143836975098,0.5329297184944153
4199155186.0,-0.5471400022506714,-0.1352251172065735,9.968683242797852,1.647866129875183,0.7098472714424133,0.5398712754249573
4199163519.0,-0.4809593260288238,0.0574493184685707,9.858582496643066,1.820454835891724,1.0624271631240845,0.5089035630226135
4199171852.0,-0.4849957227706909,0.3295736908912658,9.687171936035156,1.8888707160949707,1.6896941661834717,0.5614897012710571
4199180185.0,-0.4784059822559356,0.2377159744501114,9.662821769714355,1.5987635850906372,1.5330888032913208,0.4042694568634033
4199188518.0,-0.4488793015480041,-0.0518649220466613,9.82326316833496,1.420078992843628,0.8966519832611084,0.408367782831192
4199196851.0,-0.4151473343372345,-0.0845061540603637,9.839818954467772,1.5606751441955566,0.8228572607040405,0.4791910946369171
4199205184.0,-0.5091110467910767,0.187709167599678,9.761600494384766,1.8349781036376955,1.5897986888885498,0.4913834631443023
4199213517.0,-0.5797215700149536,0.3029139339923858,9.729999542236328,1.733802080154419,1.8481693267822263,0.4770651459693908
4199221850.0,-0.5815137624740601,0.0920340865850448,9.859676361083984,1.4531724452972412,1.0517204999923706,0.4235570430755615
4199230183.0,-0.5288241505622864,-0.060017142444849,9.895331382751465,1.4746884107589722,0.8819494247436523,0.449632316827774
4199238516.0,-0.5373951196670532,0.0794286057353019,9.79369068145752,1.563928246498108,1.3242048025131226,0.5551884770393372
4199246849.0,-0.5431898832321167,0.206084594130516,9.71567726135254,1.7029881477355957,1.708367109298706,0.5108247399330139
4199255182.0,-0.4725949168205261,0.1223784610629081,9.757561683654783,1.5546815395355225,1.3029447793960571,0.5042930245399475
4199263515.0,-0.4276289939880371,-0.0181609448045492,9.87212371826172,1.4453344345092771,0.6705037951469421,0.5733746290206909
4199271848.0,-0.4507344663143158,0.0671899318695068,9.761844635009766,1.5989173650741575,1.2198266983032229,0.5179966688156128
4199280181.0,-0.5813387632369995,0.1800756305456161,9.679689407348633,1.5897732973098757,1.9003714323043823,0.513027548789978
4199288514.0,-0.622347891330719,0.0603091418743133,9.785595893859863,1.5301686525344849,1.682522177696228,0.4554466903209686
4199296847.0,-0.5779703855514526,-0.1660967618227005,9.955760955810549,1.4330910444259644,0.9605082869529724,0.6007307171821594
4199305180.0,-0.5342827439308167,-0.0897063538432121,9.92171859741211,1.5910282135009766,0.7927349805831909,0.5942246317863464
4199313513.0,-0.5223487019538879,0.2157682329416275,9.73083209991455,1.8187133073806765,1.4960507154464722,0.5055738091468811
4199321846.0,-0.4995380640029907,0.2450379431247711,9.689007759094238,1.593538522720337,1.5363932847976685,0.5705827474594116
4199330179.0,-0.4620634913444519,-0.0528855770826339,9.784746170043944,1.443567156791687,1.1756165027618408,0.6215294599533081
4199338512.0,-0.4454851448535919,-0.2395197600126266,9.871432304382324,1.4285314083099363,0.7687087655067444,0.5084681510925293
4199346845.0,-0.4904088675975799,0.0061991182155907,9.808037757873535,1.703218698501587,1.3752281665802002,0.527832567691803
4199355178.0,-0.582680344581604,0.2223843485116958,9.75046730041504,1.8058549165725708,1.8341844081878664,0.4892831742763519
4199363511.0,-0.6169158220291138,0.122945599257946,9.78561019897461,1.679448485374451,1.2494622468948364,0.4654106497764587
4199371844.0,-0.5536016821861267,-0.1010912507772445,9.9180908203125,1.3368580341339111,0.8452696800231934,0.4661022126674652
4199380177.0,-0.5086356401443481,-0.0663436502218246,9.827214241027832,1.5651832818984983,1.1394234895706177,0.5808539390563965
4199388510.0,-0.5262779593467712,0.1083946228027343,9.748623847961426,1.7065739631652832,1.6805757284164429,0.6095932126045227
4199396843.0,-0.4934974610805511,0.1012892872095108,9.73577880859375,1.6674354076385498,1.4136751890182495,0.4696881473064422
4199405176.0,-0.4277747571468353,-0.0799580886960029,9.823822021484377,1.4656976461410522,0.9216256141662598,0.4905126094818115
4199413509.0,-0.4133481383323669,-0.0440510958433151,9.822901725769045,1.608932614326477,0.876186192035675,0.5294206738471985
4199421842.0,-0.5133912563323975,0.1473497450351715,9.674659729003906,1.7148985862731934,1.4548370838165283,0.5239391922950745
4199430175.0,-0.5958649516105652,0.1312748938798904,9.668413162231444,1.6707141399383545,1.6939207315444946,0.4822136163711548
4199438508.0,-0.5815334916114807,-0.1055166274309158,9.847335815429688,1.621355414390564,1.1923171281814575,0.6322873830795288
4199446841.0,-0.5291551947593689,-0.1785382479429245,9.932527542114258,1.5555524826049805,0.6889203786849976,0.472557008266449
4199455174.0,-0.5010225176811218,0.1230088025331497,9.80079746246338,1.767663836479187,1.2212610244750977,0.464795857667923
4199463507.0,-0.482330173254013,0.3273200690746307,9.675530433654783,1.789487361907959,1.6041427850723269,0.5037295818328857
4199471840.0,-0.4543205797672272,0.1544808745384216,9.700329780578612,1.5482269525527954,1.239728927612305,0.536490261554718
4199480173.0,-0.4258588254451751,-0.1238872408866882,9.860029220581056,1.451405048370361,0.6133329272270203,0.3771440088748932
4199488506.0,-0.4295547902584076,-0.0536031201481819,9.881875038146973,1.6559346914291382,0.9964705109596252,0.4475831389427185
4199496839.0,-0.531000018119812,0.2240279614925384,9.735971450805664,1.7528845071792605,1.6828808784484863,0.5099794268608093
4199505172.0,-0.5612124800682068,0.2266610860824585,9.74719524383545,1.6446387767791748,1.7293449640274048,0.5426631569862366
4199513505.0,-0.5564899444580078,0.0320810675621032,9.92025089263916,1.4127531051635742,1.0720326900482178,0.4688173532485962
4199521838.0,-0.5521570444107056,-0.0338030532002449,9.894904136657717,1.4831154346466064,0.7910956740379333,0.4104937314987182
4199530171.0,-0.5534135699272156,0.1206960901618003,9.82008171081543,1.5127894878387451,1.2987056970596311,0.597234308719635
4199538504.0,-0.5266075134277344,0.1738114356994629,9.65317726135254,1.66338849067688,1.4863941669464111,0.4749391973018646
4199546837.0,-0.4451898336410522,0.039028126746416,9.74301815032959,1.611237645149231,1.1728757619857788,0.5582621693611145
4199555170.0,-0.4266773164272308,-0.0369095578789711,9.802969932556152,1.4545555114746094,0.90420800447464,0.4671011567115783
4199563503.0,-0.4944362640380859,0.1343534737825393,9.768795013427734,1.592693328857422,1.353968620300293,0.4657436609268188
4199571836.0,-0.5916860103607178,0.2101699262857437,9.68254852294922,1.7377721071243286,1.7159231901168823,0.5983996987342834
4199580169.0,-0.5839515328407288,0.0465666018426418,9.808415412902832,1.5530422925949097,1.3666218519210815,0.530778169631958
4199588502.0,-0.5645884871482849,-0.1543679386377334,9.919642448425291,1.4742015600204468,0.7671719193458557,0.4354163706302643
4199596835.0,-0.5278874039649963,0.018618082627654,9.896839141845703,1.701015591621399,0.873650312423706,0.6554938554763794
4199605168.0,-0.5121154189109802,0.3035507202148437,9.713008880615234,1.744918704032898,1.563083291053772,0.5008351802825928
4199613501.0,-0.4977783560752868,0.2318612039089203,9.668127059936523,1.5041446685791016,1.5094468593597412,0.606903612613678
4199621834.0,-0.4388946294784546,-0.0718859806656837,9.795918464660645,1.311090350151062,0.9084600806236268,0.5852084159851074
4199630167.0,-0.4323726892471313,-0.1185114532709121,9.844671249389648,1.6122113466262815,0.9381982088088988,0.4760150015354156
4199638500.0,-0.4999938309192657,0.1215737536549568,9.761123657226562,1.794763684272766,1.610341191291809,0.5922779440879822
4199646833.0,-0.566369891166687,0.2275101840496063,9.749016761779783,1.737823486328125,1.904418587684632,0.5086987018585205
4199655166.0,-0.5438305735588074,0.0047614495269954,9.848010063171388,1.3857556581497192,1.353968381881714,0.5568278431892395
4199663499.0,-0.545036256313324,-0.1153060495853424,9.920184135437012,1.4493045806884766,0.842144787311554,0.5201226472854614
4199671832.0,-0.5405561923980713,0.0204976331442594,9.805709838867188,1.6002237796783447,1.3168022632598877,0.5646657943725586
4199680165.0,-0.5247698426246643,0.1368219554424286,9.691717147827148,1.639208436012268,1.5699219703674316,0.6028566956520081
4199688498.0,-0.462730199098587,-0.0308536048978567,9.766993522644045,1.4639047384262085,1.3048148155212402,0.4446887373924255
4199696831.0,-0.4179338812828064,-0.1108243316411972,9.833298683166504,1.4493045806884766,0.762458860874176,0.4691247045993805
4199705164.0,-0.4649094641208648,0.0050849481485784,9.792922973632812,1.5730725526809692,1.2306870222091677,0.5103379487991333
4199713497.0,-0.5541632175445557,0.1444272398948669,9.704365730285645,1.5762745141983032,1.790768027305603,0.4784483015537262
4199721830.0,-0.5743095874786377,0.0145842749625444,9.750633239746094,1.4382394552230835,1.6144142150878906,0.442870169878006
4199730163.0,-0.5607271790504456,-0.1670453697443008,9.935179710388184,1.591719627380371,1.047237753868103,0.5427655577659607
4199738496.0,-0.5111499428749084,-0.0780190378427505,9.933479309082031,1.6493005752563477,0.9707025289535522,0.5194566249847412
4199746829.0,-0.5139986276626587,0.2071998417377472,9.763991355895996,1.8200706243515008,1.2578637599945068,0.5089035630226135
4199755162.0,-0.4762313663959503,0.2096597701311111,9.681462287902832,1.6751197576522827,1.4260467290878296,0.527448296546936
4199763495.0,-0.4401702284812927,-0.0631700083613395,9.783823013305664,1.4736125469207764,1.089015007019043,0.4987092018127441
4199771828.0,-0.4393395483493805,-0.156377911567688,9.85011386871338,1.606063723564148,0.9223942160606384,0.5779851675033569
4199780161.0,-0.5073184370994568,0.0728903636336326,9.781927108764648,1.7467371225357056,1.4164927005767822,0.5257065296173096
4199788494.0,-0.5813831686973572,0.2208269834518432,9.771815299987791,1.7641037702560425,1.7481204271316528,0.4374655783176422
4199796827.0,-0.5758934617042542,0.0899997428059578,9.803325653076172,1.5886971950531006,1.367339015007019,0.4810865819454193
4199805160.0,-0.5828377604484558,-0.0568479858338832,9.909165382385254,1.5833183526992798,1.0126075744628906,0.475758820772171
4199813493.0,-0.5814736485481262,0.0297902394086122,9.872820854187012,1.645868182182312,1.2325056791305542,0.4954817295074463
4199821826.0,-0.5749025940895081,0.1847515255212783,9.72805404663086,1.7658709287643433,1.5542716979980469,0.4957634806632995
4199830159.0,-0.5050926804542542,0.0916555300354957,9.765597343444824,1.638849854469299,1.3568371534347534,0.5038319826126099
4199838492.0,-0.4329137206077575,-0.0410912558436393,9.871329307556152,1.5551170110702517,0.925211787223816,0.5124384164810181
4199846825.0,-0.4300138652324676,0.0626172423362732,9.749157905578612,1.7256566286087036,1.0682928562164309,0.5677907466888428
4199855158.0,-0.5349815487861633,0.1931665390729904,9.694147109985352,1.6505813598632812,1.7325724363327026,0.4717886447906494
4199863491.0,-0.5873557925224304,0.1178841441869735,9.73773956298828,1.6329587697982788,1.7241199016571045,0.4914859533309936
4199871824.0,-0.5806654691696167,-0.1179964020848274,9.897034645080566,1.5433857440948486,1.0516180992126465,0.5183040499687195
4199880157.0,-0.5478352308273315,-0.0648301318287849,9.886038780212402,1.6948684453964231,0.9371224641799928,0.508186399936676
4199888490.0,-0.5558541417121887,0.2303755283355713,9.78761863708496,1.794661521911621,1.3245635032653809,0.5633851289749146
4199896823.0,-0.5426735281944275,0.2802120447158813,9.689249992370604,1.6574970483779907,1.5763766765594482,0.5289595127105713
4199905156.0,-0.4782123267650604,0.0378729701042175,9.745905876159668,1.4987655878067017,1.168367624282837,0.5093902945518494
4199913489.0,-0.4527814388275146,-0.1327045857906341,9.781991004943848,1.4682847261428833,0.7882779836654663,0.5674321055412292
4199921822.0,-0.5005220174789429,0.0623033568263053,9.774304389953612,1.711389422416687,1.3172121047973633,0.5464028120040894
4199930155.0,-0.5510147213935852,0.2512103617191314,9.725210189819336,1.7655636072158811,1.7751688957214355,0.5498607754707336
4199938488.0,-0.5500563383102417,0.1598329246044159,9.76459503173828,1.6333684921264648,1.5081404447555542,0.4093154370784759
4199946821.0,-0.5379337072372437,-0.0348244793713092,9.919485092163086,1.4071180820465088,0.8721135258674622,0.5613616108894348
4199955154.0,-0.520581066608429,0.0011836582561954,9.873669624328612,1.5664256811141968,1.0072156190872192,0.5150638222694397
4199963487.0,-0.5408167243003845,0.156602144241333,9.720303535461426,1.660647749900818,1.5918989181518557,0.6078258156776428
4199971820.0,-0.4940139055252075,0.0729911252856254,9.72797679901123,1.601248264312744,1.312345266342163,0.4831869006156921
4199980153.0,-0.4315769672393799,-0.0819045156240463,9.846151351928713,1.379480242729187,0.8756482005119324,0.4557284712791443
4199988486.0,-0.4299056231975555,-0.0090111540630459,9.79440975189209,1.5782978534698486,0.9347914457321168,0.5349532961845398
4199996819.0,-0.4936224818229675,0.1796298027038574,9.718778610229492,1.7645134925842283,1.6430251598358154,0.5142826437950134
4200005152.0,-0.5720080733299255,0.1143399626016616,9.737247467041016,1.5467925071716309,1.8357980251312256,0.549246072769165
4200013485.0,-0.5864220857620239,-0.1365340501070022,9.856812477111816,1.555142879486084,1.1967995166778564,0.5076997876167297
4200021818.0,-0.5417541265487671,-0.1368444412946701,9.93875217437744,1.657599687576294,0.973289668560028,0.4940985441207886
4200030151.0,-0.5158615708351135,0.1280069500207901,9.801813125610352,1.8202499151229856,1.3306596279144287,0.4476087987422943
4200038484.0,-0.5048581957817078,0.281785249710083,9.66857624053955,1.8593885898590088,1.6719948053359983,0.4881817400455475
4200046817.0,-0.478964626789093,0.0508372634649276,9.700272560119627,1.4765838384628296,1.1930086612701416,0.5051640272140503
4200055150.0,-0.4481834173202514,-0.1758517324924469,9.799772262573242,1.4461796283721924,0.8420423269271851,0.4908711910247803
4200063483.0,-0.4969902336597442,-0.0399513803422451,9.796442031860352,1.7462247610092163,1.101693868637085,0.4931252598762512
4200071816.0,-0.5707089304924011,0.2062138766050338,9.732784271240234,1.7577768564224243,1.6913847923278809,0.3946128785610199
4200080149.0,-0.5883253216743469,0.137295052409172,9.8112211227417,1.7119019031524658,1.590592861175537,0.5766533017158508
4200088482.0,-0.5676060318946838,-0.0351171270012855,9.87842845916748,1.4279935359954834,1.2533557415008545,0.5027561783790588
4200096815.0,-0.56941157579422,-0.0365102998912334,9.85910701751709,1.6050902605056765,1.1523844003677368,0.5909715890884399
4200105148.0,-0.5674993395805359,0.130177617073059,9.757805824279783,1.7341861724853516,1.448203206062317,0.4092385768890381
4200113481.0,-0.525920569896698,0.1136751174926757,9.774248123168944,1.6736596822738647,1.5451018810272217,0.4088031947612762
4200121814.0,-0.4383823275566101,-0.0192201156169176,9.871542930603027,1.56380033493042,1.0624785423278809,0.5110296010971069
4200130147.0,-0.4201088845729828,-0.0498790889978408,9.808996200561523,1.7005292177200315,1.0031559467315674,0.4720191061496734
4200138480.0,-0.4924158453941345,0.1597605794668197,9.689386367797852,1.6693819761276243,1.4856767654418943,0.6006793975830078
4200146813.0,-0.5928471684455872,0.1855236440896988,9.698974609375,1.7157182693481443,1.7548311948776243,0.5324686765670776
4200155146.0,-0.6175209283828735,-0.0335345230996608,9.870686531066896,1.6970713138580322,1.3985629081726074,0.4823416769504547
4200163479.0,-0.5685598850250244,-0.1639334261417389,9.994583129882812,1.6884137392044067,0.817760169506073,0.4739402234554291
4200171812.0,-0.5488161444664001,0.1176942735910415,9.856671333312988,1.8187133073806765,1.0488004684448242,0.5164598226547241
4200180145.0,-0.5561760067939758,0.3203738927841186,9.69655990600586,1.8171507120132449,1.586827516555786,0.4122611284255981
4200188478.0,-0.5083487629890442,0.1539386957883834,9.722996711730955,1.589747667312622,1.3568884134292605,0.3558585345745086
4200196811.0,-0.4745165109634399,-0.1201850101351738,9.86505126953125,1.4929767847061155,0.8422472476959229,0.4497347176074981
4200205144.0,-0.4415632486343384,-0.0785446166992187,9.824677467346191,1.627835750579834,0.9600214958190918,0.4245302975177765
4200213477.0,-0.5133111476898193,0.2012373208999633,9.696894645690918,1.7777304649353027,1.689591884613037,0.6313652992248535
4200221810.0,-0.5650056600570679,0.2709005177021026,9.738324165344238,1.7252469062805176,1.77911376953125,0.5964531302452087
4200230143.0,-0.5578628182411194,0.0396537296473979,9.865464210510254,1.5525044202804563,1.2412914037704468,0.474273145198822
4200238476.0,-0.5380145311355591,-0.0866523534059524,9.914298057556152,1.4276862144470217,0.953361749649048,0.5780619978904724
4200246809.0,-0.5589475035667419,0.0835699439048767,9.743850708007812,1.6765797138214111,1.387292504310608,0.5731953382492065
4200255142.0,-0.5560187101364136,0.1870834678411483,9.697239875793455,1.768355369567871,1.6707909107208252,0.4874132573604584
4200263475.0,-0.4790907502174377,0.0734847262501716,9.823094367980955,1.7146937847137451,1.167471170425415,0.4614661037921905
4200271808.0,-0.3998527824878692,-0.0680274814367294,9.845288276672363,1.5312188863754272,0.6512162685394287,0.4213029146194458
4200280141.0,-0.4038186371326446,0.0579158253967762,9.737348556518556,1.6520925760269165,1.087990403175354,0.463233470916748
4200288474.0,-0.5270281434059143,0.2284688949584961,9.660022735595703,1.7574695348739624,1.7081621885299685,0.5419715642929077
4200296807.0,-0.5755782723426819,0.0976232960820198,9.768671989440918,1.6275030374526978,1.6782960891723633,0.5456857681274414
4200305140.0,-0.5533296465873718,-0.1436388045549392,9.986749649047852,1.4730490446090698,1.0255426168441772,0.3871335387229919
4200313473.0,-0.5089391469955444,-0.113724336028099,9.942187309265137,1.680422067642212,0.9124047756195068,0.5827239155769348
4200321806.0,-0.499684065580368,0.2233622819185257,9.768088340759276,1.808237075805664,1.3651875257492063,0.4862094223499298
4200330139.0,-0.5304380059242249,0.3029817342758178,9.652689933776855,1.83236563205719,1.6841105222702026,0.3423342704772949
4200338472.0,-0.5106331706047058,0.0400622896850109,9.752939224243164,1.462316870689392,1.2180850505828855,0.5950186848640442
4200346805.0,-0.4410284757614136,-0.1939870715141296,9.896540641784668,1.473971247673035,0.8706023097038269,0.5258858799934387
4200355138.0,-0.5056976675987244,-0.0012883520685136,9.84138298034668,1.646892786026001,1.2918795347213743,0.5688665509223938
4200363471.0,-0.5668908953666687,0.2412435859441757,9.733321189880373,1.80974805355072,1.668511152267456,0.4791654646396637
4200371804.0,-0.5878790616989136,0.1882276087999344,9.677536964416504,1.6411296129226685,1.5231504440307615,0.3717137277126312
4200380137.0,-0.5514234900474548,-0.0784414485096931,9.889633178710938,1.4272252321243286,1.1239782571792605,0.5296767950057983
4200388470.0,-0.5505438446998596,-0.1285591274499893,9.96388053894043,1.4910813570022583,1.02961528301239,0.4004529118537903
4200396803.0,-0.5553995966911316,0.1109582856297493,9.78280544281006,1.8066998720169067,1.317007064819336,0.4493761956691742
4200405136.0,-0.5377835035324097,0.2011136710643768,9.664565086364746,1.731778621673584,1.556295394897461,0.5462492108345032
4200413469.0,-0.4531346261501312,0.0382194072008132,9.797245979309082,1.5076539516448977,1.069240689277649,0.5024488568305969
4200421802.0,-0.446147471666336,-0.135795846581459,9.913771629333496,1.5347793102264404,0.977080464363098,0.4380802512168884
4200430135.0,-0.4978094100952148,0.0655811429023742,9.793664932250977,1.6419748067855835,1.2729761600494385,0.580725908279419
4200438468.0,-0.6226899027824402,0.205626368522644,9.652626991271973,1.768688440322876,1.7619775533676147,0.5586977005004883
4200446801.0,-0.6178305745124817,0.0532817915081977,9.751761436462402,1.5988916158676147,1.5260190963745115,0.4763990938663482
4200455134.0,-0.5653597116470337,-0.1535888612270355,9.970128059387209,1.5240981578826904,0.9058985710144044,0.4496322572231293
4200463467.0,-0.5072417855262756,-0.0728041902184486,9.980971336364746,1.7260663509368896,0.9320507049560548,0.4956097900867462
4200471800.0,-0.5259009003639221,0.2419466227293014,9.722772598266602,1.8553670644760127,1.313216209411621,0.4781152606010437
4200480133.0,-0.5422261953353882,0.3054177463054657,9.628647804260254,1.715897798538208,1.5866481065750122,0.3901304304599762
4200488466.0,-0.481641948223114,0.0015577703015878,9.775761604309082,1.5189496278762815,1.1230560541152954,0.5661514401435852
4200496799.0,-0.4641706943511963,-0.1838294118642807,9.910310745239258,1.5587029457092283,0.9578955173492432,0.5604138374328613
4200505132.0,-0.4788898825645447,0.0112727563828229,9.841997146606444,1.77432382106781,1.265778660774231,0.5238111019134521
4200513465.0,-0.5775094628334045,0.2944158613681793,9.653339385986328,1.8941726684570312,1.7000935077667236,0.4095459878444671
4200521798.0,-0.6067219376564026,0.2286819219589233,9.726029396057127,1.6829833984375,1.5027872323989868,0.5030379295349121
4200530131.0,-0.5673494338989258,-0.0741966515779495,9.900927543640137,1.417158603668213,1.0423200130462646,0.4879511892795563
4200538464.0,-0.5121741890907288,-0.1382365375757217,9.899413108825684,1.495999455451965,0.9955741763114928,0.5033197999000549
4200546797.0,-0.5024449825286865,0.1170281767845153,9.729050636291504,1.8267558813095093,1.4174147844314575,0.4804205298423767
4200555130.0,-0.5221374034881592,0.2310374826192855,9.620283126831056,1.8058549165725708,1.6016324758529663,0.4616966247558594
4200563463.0,-0.4639831483364105,0.0503938570618629,9.7815523147583,1.5742251873016355,1.1042808294296265,0.5111064314842224
4200571796.0,-0.43595752120018,-0.0982791483402252,9.896218299865724,1.4767374992370603,0.9958045482635498,0.5610029101371765
4200580129.0,-0.4690655469894409,0.0406549796462059,9.81142520904541,1.6997092962265017,1.2609118223190308,0.5041905641555786
4200588462.0,-0.5534070730209351,0.2144088298082351,9.66871452331543,1.803011775016785,1.7353901863098145,0.5719403028488159
4200596795.0,-0.5953932404518127,0.1305052787065506,9.692374229431152,1.6786290407180786,1.433603286743164,0.4670243859291076
4200605128.0,-0.5253221988677979,-0.1211165189743042,9.958065032958984,1.3412636518478394,1.1100441217422483,0.457905650138855
4200613461.0,-0.4845811128616333,-0.1132861822843551,9.941760063171388,1.6775274276733398,1.14997661113739,0.5421507954597473
4200621794.0,-0.5275402069091797,0.2079415768384933,9.8021879196167,1.8489890098571773,1.448459267616272,0.4813170731067657
4200630127.0,-0.546770453453064,0.3425037264823913,9.575336456298828,1.647891640663147,1.528529405593872,0.4135418236255646
4200638460.0,-0.4884034693241119,0.0713633000850677,9.700203895568848,1.5040422677993774,1.2915465831756592,0.3417194783687591
4200646793.0,-0.4480611681938171,-0.193716287612915,9.939278602600098,1.412752985954285,0.9581772685050964,0.5234268307685852
4200655126.0,-0.4809876084327698,-0.0445545651018619,9.863066673278809,1.6360836029052734,1.240804672241211,0.6322105526924133
4200663459.0,-0.5789031386375427,0.2558088600635528,9.673993110656738,1.798887848854065,1.6464574337005615,0.600269615650177
4200671792.0,-0.628284215927124,0.2302304357290268,9.645105361938477,1.6183587312698364,1.6393879652023315,0.4962246119976043
4200680125.0,-0.5558012127876282,-0.0046126577071845,9.920049667358398,1.3376009464263916,1.1443414688110352,0.4217383563518524
4200688458.0,-0.5162427425384521,-0.1335969418287277,9.997081756591797,1.4210264682769775,0.9583309292793274,0.5060604214668274
4200696791.0,-0.5275223255157471,0.0942972898483276,9.759628295898438,1.777064323425293,1.356119990348816,0.5336982011795044
4200705124.0,-0.5421812534332275,0.2220995724201202,9.593058586120604,1.6616723537445068,1.5082685947418213,0.5068289041519165
4200713457.0,-0.499441921710968,0.0694508254528045,9.71191692352295,1.4611896276474,1.1839412450790403,0.3876458406448364
4200721790.0,-0.4992061555385589,-0.1068965420126915,9.946293830871582,1.425380825996399,1.0015164613723757,0.4888220727443695
4200730123.0,-0.494558036327362,-0.0075356229208409,9.89941120147705,1.6856472492218018,1.2477974891662598,0.5547018647193909
4200738456.0,-0.5780335664749146,0.183885782957077,9.634465217590332,1.804318070411682,1.598533272743225,0.4998106360435486
4200746789.0,-0.6123836040496826,0.1367664635181427,9.653915405273438,1.632753849029541,1.4643148183822632,0.4778847992420196
4200755122.0,-0.5407716631889343,-0.0691209882497787,9.89330768585205,1.461471438407898,1.0015677213668823,0.4056270122528076
4200763455.0,-0.508182942867279,-0.1770671755075454,10.061646461486816,1.5005584955215454,0.892425537109375,0.609004020690918
4200771788.0,-0.4878248572349548,0.1311272978782653,9.77521800994873,1.8354648351669312,1.1521282196044922,0.586898922920227
4200780121.0,-0.5413262844085693,0.330309510231018,9.578272819519045,1.6536293029785156,1.4817065000534058,0.4786275923252105
4200788454.0,-0.488877922296524,0.1208971962332725,9.67796230316162,1.4244076013565063,1.2499489784240725,0.4390791952610016
4200796787.0,-0.4614820182323456,-0.1692526191473007,9.912312507629396,1.322616696357727,1.01857590675354,0.5132068395614624
4200805120.0,-0.4808526337146759,-0.111854463815689,9.953535079956056,1.5296820402145386,1.166728377342224,0.5201994180679321
4200813453.0,-0.5394374132156372,0.2085941284894943,9.701026916503906,1.87088942527771,1.5680266618728638,0.5245795845985413
4200821786.0,-0.5968018174171448,0.2754694819450378,9.635509490966797,1.6120831966400146,1.450380563735962,0.5405628681182861
4200830119.0,-0.5450563430786133,0.0377015359699726,9.81261920928955,1.4268922805786133,1.020291805267334,0.5145899653434753
4200838452.0,-0.505588948726654,-0.1390691548585891,9.996827125549316,1.4297096729278564,1.001926302909851,0.5312649011611938
4200846785.0,-0.498316079378128,0.0163199305534362,9.86109733581543,1.6928702592849731,1.2253338098526,0.5859000086784363
4200855118.0,-0.5425022840499878,0.2136061936616897,9.62372589111328,1.755753517150879,1.545742392539978,0.4480442404747009
4200863451.0,-0.5129789113998413,0.1226107105612754,9.69326114654541,1.4537615776062012,1.1613237857818604,0.4581617712974548
4200871784.0,-0.4696673452854156,-0.0748810470104217,9.925430297851562,1.3935935497283936,1.0073822736740112,0.4559846222400665
4200880117.0,-0.4701760113239288,-0.0561853535473346,9.891427040100098,1.5624938011169434,1.1734648942947388,0.4772444367408752
4200888450.0,-0.5233197808265686,0.1815323531627655,9.730151176452637,1.6779628992080688,1.4263029098510742,0.5707107782363892
4200896783.0,-0.5838816165924072,0.1945683807134628,9.62014389038086,1.640130639076233,1.3950281143188477,0.5271409153938293
4200905116.0,-0.5498529076576233,-0.0520497933030128,9.837985038757324,1.4431318044662476,1.1998220682144165,0.4499908983707428
4200913449.0,-0.5140359997749329,-0.1817996799945831,9.988423347473145,1.565388321876526,1.099465250968933,0.5433546900749207
4200921782.0,-0.5168145298957825,0.0195822063833475,9.899725914001465,1.8539326190948489,1.2411377429962158,0.5914326310157776
4200930115.0,-0.552394449710846,0.3170033693313598,9.623208045959473,1.853599548339844,1.3793264627456665,0.5072898864746094
4200938448.0,-0.5397791266441345,0.2005598247051239,9.592730522155762,1.5272231101989746,1.2084795236587524,0.4834942519664764
4200946781.0,-0.4972217679023742,-0.0948194712400436,9.888469696044922,1.3151116371154783,0.9732640981674194,0.4417430758476257
4200955114.0,-0.4775348603725433,-0.1580729782581329,9.93906021118164,1.5799373388290403,1.1438806056976318,0.5317515134811401
4200963447.0,-0.5141029953956604,0.0998505726456642,9.752373695373535,1.7468140125274658,1.4444379806518557,0.5762178897857666
4200971780.0,-0.5866372585296631,0.3021026253700256,9.58314609527588,1.6852372884750366,1.5469460487365725,0.5557264089584351
4200980113.0,-0.5669997930526733,0.1207378655672073,9.739011764526367,1.4584745168685913,1.2611682415008545,0.4403599500656128
4200988446.0,-0.5482263565063477,-0.1527477353811264,10.006391525268556,1.4052226543426514,1.0389902591705322,0.5909716486930847
4200996779.0,-0.5171846151351929,-0.0674334093928337,9.92651653289795,1.7394628524780271,1.193930745124817,0.59609454870224
4201005112.0,-0.5727025866508484,0.2074763476848602,9.65394401550293,1.7279361486434937,1.4120872020721436,0.5252454876899719
4201013445.0,-0.5707007646560669,0.2228440940380096,9.623964309692385,1.6020677089691162,1.2024602890014648,0.4870802760124206
4201021778.0,-0.4991889595985412,-0.0070825587026774,9.842262268066406,1.3930045366287231,1.0806901454925537,0.4553185999393463
4201030111.0,-0.4570488035678863,-0.1356474012136459,9.951019287109377,1.6184865236282349,1.1443670988082886,0.4577263593673706
4201038444.0,-0.5000227093696594,0.0818726122379303,9.791446685791016,1.7100831270217896,1.2582736015319824,0.513232409954071
4201046777.0,-0.5730959177017212,0.2519751489162445,9.603334426879885,1.757443904876709,1.439212679862976,0.5840301513671875
4201055110.0,-0.5476649403572083,0.0867610573768615,9.75617790222168,1.5560390949249268,1.243827223777771,0.5523965954780579
4201063443.0,-0.5258641242980957,-0.1421214193105697,10.01824188232422,1.5423355102539062,1.066781520843506,0.4862862229347229
4201071776.0,-0.5148152112960815,-0.0923493430018425,9.967904090881348,1.6291933059692385,1.0777702331542969,0.4866704642772674
4201080109.0,-0.5371240973472595,0.2191303819417953,9.715641021728516,1.7381306886672974,1.2727200984954834,0.5937379598617554
4201088442.0,-0.5682529807090759,0.3187391459941864,9.601649284362791,1.6191527843475342,1.3153678178787231,0.4976333975791931
4201096775.0,-0.5037211775779724,0.0700950846076011,9.844192504882812,1.4939758777618408,1.042217493057251,0.4930227398872375
4201105108.0,-0.4709004461765289,-0.1456872969865799,10.006078720092772,1.4155449867248535,1.0139394998550415,0.544353723526001
4201113441.0,-0.4542713761329651,-0.0413135290145874,9.804259300231934,1.6852372884750366,1.1445976495742798,0.474734216928482
4201121774.0,-0.5198367834091187,0.2738420069217682,9.586143493652344,1.7159488201141355,1.3484101295471191,0.4559333920478821
4201130107.0,-0.5655542016029358,0.243051990866661,9.646321296691896,1.5172079801559448,1.2419061660766602,0.6250641942024231
4201138440.0,-0.540255069732666,-0.0154922259971499,9.942164421081545,1.3390097618103027,1.1948784589767456,0.5535236597061157
4201146773.0,-0.5390291810035706,-0.1275250017642974,9.98109531402588,1.4488435983657837,1.1569950580596924,0.5936866998672485
4201155106.0,-0.542070209980011,0.0565326884388923,9.743595123291016,1.7598260641098022,1.3183646202087402,0.5507572889328003
4201163439.0,-0.5717819333076477,0.2282306402921676,9.58796501159668,1.614977478981018,1.175770282745361,0.5750395655632019
4201171772.0,-0.5396394729614258,0.103652611374855,9.774924278259276,1.431707501411438,1.090526103973389,0.5026537775993347
4201180105.0,-0.488328754901886,-0.0987611189484596,9.954463005065918,1.5141855478286743,1.1043577194213867,0.4907687902450561
4201188438.0,-0.4736056923866272,-0.0678752958774566,9.898026466369627,1.6095472574234009,1.1840436458587646,0.6137426495552063
4201196771.0,-0.4837333559989929,0.1702543646097183,9.60927963256836,1.6641311645507812,1.337857007980347,0.5013474225997925
4201205104.0,-0.5664039254188538,0.2253032922744751,9.603544235229492,1.5196667909622192,1.2863467931747437,0.4146944582462311
4201213437.0,-0.5723972916603088,-0.010311147198081,9.867581367492676,1.446871280670166,1.225538730621338,0.5314697027206421
4201221770.0,-0.601643979549408,-0.1667674779891967,10.041316032409668,1.725528597831726,1.2622952461242676,0.5356192588806152
4201230103.0,-0.5567261576652527,-0.0080670742318034,9.847445487976074,1.781239628791809,1.039041519165039,0.5132580995559692
4201238436.0,-0.5465765595436096,0.2443320751190185,9.591687202453612,1.760005235671997,0.9248275756835938,0.5424326658248901
4201246769.0,-0.525271475315094,0.2370902746915817,9.616552352905272,1.6005311012268066,1.1557655334472656,0.5621556043624878
4201255102.0,-0.488863468170166,-0.060552679002285,9.93549919128418,1.50383722782135,1.173131823539734,0.563180148601532
4201263435.0,-0.4716082513332367,-0.1561004668474197,9.974478721618652,1.5134682655334473,1.203177571296692,0.6440187096595764
4201271768.0,-0.4756323993206024,0.0668769478797912,9.740961074829102,1.716691493988037,1.155663013458252,0.5394613742828369
4201280101.0,-0.5432837605476379,0.2739397287368774,9.54725456237793,1.6394646167755127,1.1244648694992063,0.5245538949966431
4201288434.0,-0.5462746620178223,0.1603996902704239,9.74139404296875,1.525968074798584,1.4435157775878906,0.4501445889472961
4201296767.0,-0.5819855332374573,-0.0944616720080375,9.969962120056152,1.5588054656982422,1.2836060523986816,0.4690222144126892
4201305100.0,-0.5549687743186951,-0.1137015596032142,9.918620109558104,1.6667695045471191,1.1444953680038452,0.5441232323646545
4201313433.0,-0.5561591386795044,0.1349223852157592,9.701014518737791,1.7300621271133425,0.9428086876869202,0.6242188811302185
4201321766.0,-0.5660544037818909,0.2279368638992309,9.596272468566896,1.5754801034927368,1.1434450149536133,0.4507592916488647
4201330099.0,-0.4936418533325195,0.0160639993846416,9.836231231689451,1.4984838962554932,1.219032645225525,0.4282699823379516
4201338432.0,-0.4597837328910827,-0.1214873269200325,9.967098236083984,1.7054980993270874,1.178613305091858,0.46387380361557
4201346765.0,-0.4542403221130371,0.0097404271364212,9.798487663269045,1.7283588647842407,1.188410758972168,0.5181118845939636
4201355098.0,-0.4824597835540771,0.2444360852241516,9.602702140808104,1.6768486499786377,1.0399250984191897,0.5353759527206421
4201363431.0,-0.5531404614448547,0.1695497781038284,9.673578262329102,1.579642653465271,1.2495520114898682,0.527742862701416
4201371764.0,-0.5510240197181702,-0.0935179367661476,10.021349906921388,1.4394558668136597,1.4163261651992798,0.4963141977787018
4201380097.0,-0.5714948773384094,-0.1621111631393432,10.022087097167969,1.6194217205047607,1.22032630443573,0.5842223763465881
4201388430.0,-0.5520709156990051,0.1400405913591385,9.733625411987305,1.863320231437683,1.0585979223251345,0.5387057662010193
4201396763.0,-0.5364823937416077,0.3530628383159637,9.56383228302002,1.5843558311462402,0.9788863658905028,0.4968265295028686
4201405096.0,-0.4975225925445556,0.1618096083402633,9.743457794189451,1.4413001537322998,1.3637402057647705,0.4958787858486175
4201413429.0,-0.4551195800304413,-0.1507812589406967,9.956198692321776,1.4486258029937744,1.2720927000045776,0.5897805690765381
4201421762.0,-0.4918281733989715,-0.1321713626384735,9.877290725708008,1.6596359014511108,1.2395623922348022,0.5726702213287354
4201430095.0,-0.5034103393554688,0.185237631201744,9.651131629943848,1.768086552619934,1.1418697834014893,0.5231578946113586
4201438428.0,-0.5483776330947876,0.3025940954685211,9.61910629272461,1.4917346239089966,1.211591720581055,0.5096848607063293
4201446761.0,-0.5380601286888123,0.0570342130959034,9.89788818359375,1.4171971082687378,1.3250627517700195,0.5317643284797668
4201455094.0,-0.5288591384887695,-0.1713247150182724,10.003912925720217,1.4864068031311035,1.218097686767578,0.5754621028900146
4201463427.0,-0.5628066062927246,0.0144339157268404,9.7890043258667,1.5658879280090332,1.283977508544922,0.5628343820571899
4201471760.0,-0.5784163475036621,0.2426602095365524,9.60054874420166,1.5977007150650024,1.100963830947876,0.5213649868965149
4201480093.0,-0.5227921009063721,0.1735658645629882,9.751407623291016,1.5253404378890991,1.181085228919983,0.4572781920433044
4201488426.0,-0.4559054970741272,-0.0809089019894599,10.009807586669922,1.4868422746658323,1.2533941268920898,0.481893390417099
4201496759.0,-0.4803248941898346,-0.0857801213860511,9.92306423187256,1.6824836730957031,1.1736828088760376,0.5474658608436584
4201505092.0,-0.5321623682975769,0.1502642482519149,9.651299476623535,1.8087875843048096,1.3424547910690308,0.5659080743789673
4201513425.0,-0.5737628936767578,0.2082481682300567,9.579116821289062,1.543603539466858,1.36911940574646,0.5428041815757751
4201521758.0,-0.5523356199264526,-0.0325090922415256,9.887993812561035,1.4347174167633057,1.2371547222137451,0.4737480580806732
4201530091.0,-0.5306267142295837,-0.2336394041776657,10.0491361618042,1.6505683660507202,1.1791129112243652,0.5016419887542725
4201538424.0,-0.5530039072036743,0.020672146230936,9.80827522277832,1.9576575756073,1.2947611808776855,0.4902436137199402
4201546757.0,-0.5886671543121338,0.3462217152118683,9.56967067718506,1.7870923280715942,1.4322839975357056,0.418908029794693
4201555090.0,-0.5221489071846008,0.2246093899011612,9.606730461120604,1.4553625583648682,1.1822123527526855,0.4642964601516723
4201563423.0,-0.4100588262081146,-0.1291392743587494,9.920784950256348,1.4103068113327026,0.825380265712738,0.4373246133327484
4201571756.0,-0.4711687862873077,-0.1636272370815277,9.965010643005373,1.5724962949752808,0.9789889454841614,0.5388851165771484
4201580089.0,-0.5522485971450806,0.1636573523283004,9.635859489440918,1.8101195096969604,1.5190905332565308,0.6093498468399048
4201588422.0,-0.612050473690033,0.3253637850284576,9.593896865844728,1.689220309257507,1.5554115772247314,0.4560742676258087
4201596755.0,-0.534035325050354,0.0776594579219818,9.85078239440918,1.4251887798309326,1.0550118684768677,0.3797694146633148
4201605088.0,-0.5132200121879578,-0.1598094403743744,10.03870964050293,1.3867419958114624,0.8089615106582642,0.5963634848594666
4201613421.0,-0.5464000701904297,0.0048374030739068,9.89552116394043,1.7353261709213257,1.2366937398910522,0.5351966619491577
4201621754.0,-0.5671667456626892,0.2180868238210678,9.60766315460205,1.675747275352478,1.4145077466964722,0.5917528867721558
4201630087.0,-0.5014348030090332,0.145761489868164,9.684325218200684,1.484255313873291,1.2063920497894287,0.3887344598770141
4201638420.0,-0.3762538433074951,-0.1253321170806884,9.93688678741455,1.3423523902893066,0.7113456130027771,0.3915776014328003
4201646753.0,-0.411356121301651,-0.0499152168631553,9.918187141418455,1.5699093341827393,1.1004515886306765,0.5300738215446472
4201655086.0,-0.558922529220581,0.2031631171703338,9.712190628051758,1.846747875213623,1.6049495935440063,0.5534340143203735
4201663419.0,-0.6038703918457031,0.1968401670455932,9.623089790344238,1.6441904306411743,1.6600968837738037,0.4839169383049011
4201671752.0,-0.5430828332901001,-0.1031906157732009,9.881412506103516,1.4550294876098633,0.8366762399673462,0.5389620065689087
4201680085.0,-0.5131707191467285,-0.1826395839452743,10.013264656066896,1.4694247245788574,0.7279950380325317,0.4371197521686554
4201688418.0,-0.5825058221817017,0.1449725478887558,9.857383728027344,1.888601541519165,1.5624810457229614,0.5550988912582397
4201696751.0,-0.6085001826286316,0.338358074426651,9.626177787780762,1.939701557159424,1.8483614921569824,0.582531750202179
4201705084.0,-0.4813368618488312,0.1261463463306427,9.624096870422363,1.534715175628662,1.0543971061706543,0.5939300060272217
4201713417.0,-0.398720920085907,-0.144237071275711,9.847118377685549,1.352649450302124,0.5056121945381165,0.5815072059631348
4201721750.0,-0.4702620804309845,-0.0436407811939716,9.898025512695312,1.6750556230545044,1.1740412712097168,0.5753852725028992
4201730083.0,-0.5968666672706604,0.2090326398611068,9.791508674621582,1.8436230421066284,2.109985589981079,0.5825573801994324
4201738416.0,-0.6228538751602173,0.2047518491744995,9.667237281799316,1.6071778535842896,1.622392654418945,0.4524882435798645
4201746749.0,-0.5705248117446899,0.0030543450266122,9.83469295501709,1.3361281156539917,0.607915461063385,0.4681129455566406
4201755082.0,-0.5649672746658325,-0.0208433847874403,9.945734977722168,1.3730639219284058,0.7113714218139648,0.4674982130527496
4201763415.0,-0.5731207132339478,0.143746867775917,9.882109642028809,1.7723898887634275,1.577363133430481,0.6128846406936646
4201771748.0,-0.58713299036026,0.1356510519981384,9.71861171722412,1.6579198837280271,1.6361478567123413,0.4994391798973083
4201780081.0,-0.4761146903038025,-0.0591039396822452,9.65706729888916,1.4319254159927368,0.6422384977340698,0.462503433227539
4201788414.0,-0.4327112436294555,-0.049633577466011,9.814101219177246,1.3983707427978516,0.4375039339065552,0.5927261710166931
4201796747.0,-0.4847656786441803,0.1356076449155807,9.85149383544922,1.641936421394348,1.4646859169006348,0.5059195160865784
4201805080.0,-0.5655481219291687,0.1909031718969345,9.768287658691406,1.8785351514816284,2.035908937454224,0.5450324416160583
4201813413.0,-0.5777574181556702,-0.0210049040615558,9.785058975219728,1.509075403213501,1.1262962818145752,0.5528703927993774
4201821746.0,-0.5601891875267029,-0.1547446101903915,9.863570213317873,1.4034680128097534,0.5954157114028931,0.4954433441162109
4201830079.0,-0.5388429164886475,0.056157149374485,9.9203519821167,1.6605838537216189,0.9080374836921692,0.4878359735012054
4201838412.0,-0.5369133949279785,0.277222067117691,9.82292366027832,1.8238489627838133,1.6932417154312134,0.4895264804363251
4201846745.0,-0.5136827230453491,0.1167625039815902,9.716829299926758,1.5882492065429688,1.378673434257507,0.4527444243431091
4201855078.0,-0.4562941491603851,-0.1086802929639816,9.775554656982422,1.3400214910507202,0.7219499945640564,0.5529727935791016
4201863411.0,-0.4448911845684051,-0.0065530184656381,9.766599655151367,1.5883771181106567,0.80145663022995,0.4875797927379608
4201871744.0,-0.4787266254425049,0.191172182559967,9.794294357299805,1.641116738319397,1.6317933797836304,0.5380910634994507
4201880077.0,-0.5269159078598022,0.1522727608680725,9.751824378967283,1.7238253355026243,1.7265148162841797,0.5586593151092529
4201888410.0,-0.5587250590324402,-0.0364354439079761,9.811726570129396,1.3937857151031494,1.0366719961166382,0.5936994552612305
4201896743.0,-0.5540462732315063,-0.0110903652384877,9.847929954528809,1.5515693426132202,0.873073935508728,0.5451861619949341
4201905076.0,-0.5483106374740601,0.1595966666936874,9.74743938446045,1.6921659708023071,1.3265995979309082,0.523285984992981
4201913409.0,-0.5585862398147583,0.1330342292785644,9.777532577514648,1.640092134475708,1.582818627357483,0.5686231255531311
4201921742.0,-0.4810082614421844,-0.071193553507328,9.90158748626709,1.6153233051300049,1.172837495803833,0.5390644073486328
4201930075.0,-0.4364197850227356,-0.0242642797529697,9.794180870056152,1.5028254985809326,0.6897528767585754,0.5552525520324707
4201938408.0,-0.4463593959808349,0.1895080208778381,9.671582221984863,1.6755679845809937,1.1070599555969238,0.5764867067337036
4201946741.0,-0.5407959222793579,0.1270626634359359,9.729066848754885,1.5489054918289185,1.7109668254852295,0.6060455441474915
4201955074.0,-0.5494961738586426,-0.1224799379706382,9.904574394226074,1.5461134910583496,1.5252891778945925,0.4672932624816894
4201963407.0,-0.5649858117103577,-0.1037069633603096,9.947415351867676,1.6960080862045288,0.9313719868659972,0.4361207783222198
4201971740.0,-0.5717802047729492,0.1479383111000061,9.784064292907717,1.6824325323104858,0.9706898331642152,0.5205708742141724
4201980073.0,-0.5542382001876831,0.2428992837667465,9.690278053283691,1.7230567932128906,1.4289028644561768,0.5149869918823242
4201988406.0,-0.5000926852226257,0.0068701733835041,9.774900436401367,1.5658109188079834,1.2854887247085571,0.5521788597106934
4201996739.0,-0.4664259552955627,-0.1317402869462967,9.875896453857422,1.4405063390731812,0.8669266700744629,0.5623733401298523
4202005072.0,-0.5326123833656311,0.0265860017389059,9.725854873657228,1.7292296886444092,1.15086030960083,0.4899618625640869
4202013405.0,-0.5728077292442322,0.1822307854890823,9.699911117553713,1.90146005153656,1.754741668701172,0.428385317325592
4202021738.0,-0.5377752184867859,0.0849226713180542,9.81809902191162,1.6797431707382202,1.527287244796753,0.504024088382721
4202030071.0,-0.5103501081466675,-0.0291794817894697,9.921187400817873,1.517118215560913,0.878657877445221,0.6087606549263
4202038404.0,-0.5896663665771484,0.0634837299585342,9.838983535766602,1.6265934705734253,1.0623887777328491,0.5340695381164551
4202046737.0,-0.5951493382453918,0.1391949653625488,9.747418403625488,1.7685478925704956,1.5704472064971924,0.4931380748748779
4202055070.0,-0.4918924272060394,0.0912270247936248,9.741352081298828,1.63230562210083,1.3763169050216677,0.5122718811035156
4202063403.0,-0.4342543184757232,-0.0492904409766197,9.79975414276123,1.4379702806472778,0.7072474360466003,0.5896268486976624
4202071736.0,-0.4562997817993164,0.0696147233247757,9.858184814453123,1.6997734308242798,0.9971237182617188,0.4995671808719635
4202080069.0,-0.5274346470832825,0.2005821764469146,9.766698837280272,1.7673181295394895,1.8150373697280884,0.5665484666824341
4202088402.0,-0.5559351444244385,0.1145232394337654,9.731651306152344,1.6684985160827637,1.6302821636199951,0.5921115875244141
4202096735.0,-0.5443020462989807,-0.1322941184043884,9.838875770568848,1.4714735746383667,0.9615710973739624,0.6283555626869202
4202105068.0,-0.5381414294242859,-0.0571420937776565,9.964909553527832,1.6106358766555786,0.7798125147819519,0.5220820903778076
4202113401.0,-0.5265769362449646,0.2017121911048889,9.856685638427734,1.777538180351257,1.3928635120391846,0.5683926343917847
4202121734.0,-0.5080026984214783,0.2691774070262909,9.739429473876951,1.7507201433181765,1.6019525527954102,0.5544585585594177
4202130067.0,-0.4653699100017547,0.0253804344683885,9.752957344055176,1.3823105096817017,1.079883337020874,0.4301526546478271
4202138400.0,-0.4308443367481231,-0.0789602324366569,9.84017276763916,1.3994722366333008,0.777635395526886,0.4957763254642486
4202146733.0,-0.4765312969684601,0.1098199337720871,9.783745765686035,1.6226744651794434,1.3281875848770142,0.5354015231132507
4202155066.0,-0.5560962557792664,0.2192898094654083,9.766589164733888,1.8275372982025144,1.8363230228424072,0.5795605182647705
4202163399.0,-0.5408749580383301,0.1034562140703201,9.881048202514648,1.5337677001953125,1.5462161302566528,0.4400909841060638
4202171732.0,-0.5503387451171875,-0.003478062339127,9.867619514465332,1.492195725440979,0.9697421789169312,0.447160542011261
4202180065.0,-0.5782977342605591,0.0691872760653495,9.773616790771484,1.5665537118911743,1.26054048538208,0.5800471901893616
4202188398.0,-0.5711805820465088,0.1121325492858886,9.752410888671877,1.5765435695648191,1.6625049114227295,0.5214930772781372
4202196731.0,-0.4560032486915588,-0.0346459485590457,9.802884101867676,1.460613250732422,1.255084753036499,0.5647298097610474
4202205064.0,-0.3992903232574463,-0.1103388741612434,9.722447395324709,1.5761847496032717,0.5371177196502686,0.5444689393043518
4202213397.0,-0.4651589095592499,0.015401879325509,9.65041732788086,1.6793334484100342,0.9955613613128662,0.5319948792457581
4202221730.0,-0.560677707195282,0.1433153301477432,9.666424751281738,1.7427287101745603,1.6798969507217407,0.6801732182502747
4202230063.0,-0.5438955426216125,-0.0323803275823593,9.743670463562012,1.760786533355713,1.5049002170562744,0.4899618625640869
4202238396.0,-0.5747106671333313,-0.1424302458763122,9.803230285644531,1.6698048114776611,1.028962254524231,0.5267951488494873
4202246729.0,-0.6332785487174988,0.0451815165579319,9.793468475341797,1.7843259572982788,1.0929466485977173,0.4651673138141632
4202255062.0,-0.5765308737754822,0.2680731117725372,9.77950954437256,1.8340688943862915,1.5265700817108154,0.5707235932350159
4202263395.0,-0.4631231725215912,0.1869107782840728,9.76910400390625,1.6833291053771973,1.2692749500274658,0.5140137076377869
4202271728.0,-0.443303108215332,-0.0124822799116373,9.744942665100098,1.5085889101028442,1.0339826345443726,0.5628600716590881
4202280061.0,-0.517856776714325,0.0086058676242828,9.798662185668944,1.542834997177124,1.11528217792511,0.542599081993103
4202288394.0,-0.5579954385757446,0.1282856315374374,9.796746253967283,1.640963077545166,1.479619026184082,0.5537925362586975
4202296727.0,-0.5556053519248962,0.151875227689743,9.728350639343262,1.554130792617798,1.4724470376968384,0.5205196738243103
4202305060.0,-0.5955899953842163,0.0043364008888602,9.867425918579102,1.4052865505218506,0.9993008971214294,0.4622984826564789
4202313393.0,-0.595178484916687,-0.0068193771876394,10.011968612670898,1.5244438648223877,0.9952796101570128,0.5550989508628845
4202321726.0,-0.5796326398849487,0.1441327333450317,9.821649551391602,1.5512620210647583,1.249500751495361,0.5344794392585754
4202330059.0,-0.5414692759513855,0.0745897591114044,9.712701797485352,1.4878157377243042,1.2199933528900146,0.5304580330848694
4202338392.0,-0.4565460085868835,-0.0924137458205223,9.913063049316406,1.3319272994995115,0.9135700464248656,0.5352478623390198
4202346725.0,-0.4098865091800689,-0.0442117229104042,9.921143531799316,1.310232162475586,0.7496134042739868,0.5673937201499939
4202355058.0,-0.4890531003475189,0.1215914338827133,9.740455627441406,1.6988513469696045,1.2702996730804443,0.4582002162933349
4202363391.0,-0.5801167488098145,0.1357370167970657,9.73027801513672,1.6330229043960571,1.7730046510696411,0.5166007280349731
4202371724.0,-0.5818161368370056,-0.1207634657621383,9.879648208618164,1.4814376831054688,1.345297932624817,0.455331414937973
4202380057.0,-0.5414113402366638,-0.1525209546089172,9.97862148284912,1.5181429386138916,0.7813494205474854,0.5400633811950684
4202388390.0,-0.5899672508239746,0.1020169854164123,9.82349681854248,1.7573541402816772,1.0589821338653564,0.4284364879131317
4202396723.0,-0.5629650950431824,0.2439130842685699,9.775428771972656,1.824694275856018,1.482078194618225,0.439834862947464
4202405056.0,-0.4695892333984375,0.0574029348790645,9.78091812133789,1.4975745677947998,1.0196641683578491,0.4693936705589294
4202413389.0,-0.4533336162567138,-0.1139221563935279,9.755172729492188,1.5593817234039309,0.570390522480011,0.5000538229942322
4202421722.0,-0.5221912264823914,0.0308172218501567,9.746657371520996,1.6334068775177002,1.156982183456421,0.4378625154495239
4202430055.0,-0.5588890910148621,0.1860587000846862,9.72434425354004,1.764372706413269,1.7652435302734375,0.5665740966796875
4202438388.0,-0.5261742472648621,0.0649270638823509,9.7313814163208,1.471089482307434,1.3330031633377075,0.574155867099762
4202446721.0,-0.5752620100975037,-0.0275723710656166,9.733654975891112,1.4993678331375122,0.8691038489341736,0.6028951406478882
4202455054.0,-0.5939033031463623,0.0367475487291812,9.81987190246582,1.5545918941497805,1.034443736076355,0.5024872422218323
4202463387.0,-0.5755026340484619,0.1247031688690185,9.810189247131348,1.7362736463546753,1.3904047012329102,0.5866556763648987
4202471720.0,-0.5093794465065002,0.0426686182618141,9.672497749328612,1.5912203788757324,1.1168702840805054,0.5440592169761658
4202480053.0,-0.4260563254356384,-0.0500927418470382,9.756301879882812,1.5525940656661987,0.6824015974998474,0.6408296227455139
4202488386.0,-0.4436591267585754,0.0399464108049869,9.738808631896973,1.5251867771148682,0.8413892388343811,0.665060818195343
4202496719.0,-0.4684188067913055,0.1662501841783523,9.650294303894045,1.6117885112762451,1.255340814590454,0.5696990489959717
4202505052.0,-0.5547387003898621,0.1162292957305908,9.648895263671877,1.545473337173462,1.5545918941497805,0.590958833694458
4202513385.0,-0.5461782217025757,-0.1024564802646637,9.8167724609375,1.3934526443481443,1.088950753211975,0.5558673143386841
4202521718.0,-0.5594083070755005,-0.0544533915817737,9.938750267028809,1.5487005710601809,0.5816352963447571,0.5161140561103821
4202530051.0,-0.5875105261802673,0.1395557075738906,9.766233444213867,1.7529743909835815,0.983138382434845,0.4567402601242065
4202538384.0,-0.5240529775619507,0.1792811453342437,9.801787376403809,1.6833546161651611,1.256621479988098,0.5893194675445557
4202546717.0,-0.4476477205753326,-0.0416068136692047,9.77538013458252,1.5065397024154663,0.6649326682090759,0.5225944519042969
4202555050.0,-0.4360155761241913,-0.1530778855085373,9.79037380218506,1.3674031496047974,0.5244643688201904,0.577767550945282
4202563383.0,-0.5224212408065796,0.0536867640912532,9.761398315429688,1.6459579467773438,0.9038110971450806,0.6416749954223633
4202571716.0,-0.5377742052078247,0.1003880947828292,9.772568702697754,1.7878094911575315,1.2533173561096191,0.6275871396064758
4202580049.0,-0.4986527860164642,-0.0510865710675716,9.815787315368652,1.4145077466964722,0.8364968299865723,0.6067371964454651
4202588382.0,-0.5489301085472107,-0.0608004927635192,9.900789260864258,1.419323205947876,0.6950294375419617,0.631583034992218
4202596715.0,-0.607941746711731,0.0969396084547042,9.90114974975586,1.7967745065689087,0.9258393049240112,0.6418030261993408
4202605048.0,-0.5533798336982727,0.0709042623639106,9.822071075439451,1.806200385093689,0.991181254386902,0.5209295153617859
4202613381.0,-0.4535098373889923,-0.0664073228836059,9.806849479675291,1.5513389110565186,0.5442896485328674,0.5684695243835449
4202621714.0,-0.4470812976360321,-0.0830874219536781,9.8456449508667,1.5175793170928955,0.3309231102466583,0.5098641514778137
4202630047.0,-0.4566325545310974,0.1252663433551788,9.866393089294434,1.7850431203842163,0.7075803875923157,0.765929639339447
4202638380.0,-0.5619696378707886,0.1300714015960693,9.642993927001951,1.7400903701782229,1.3417890071868896,0.6867048740386963
4202646713.0,-0.5768553614616394,-0.009978549554944,9.78871250152588,1.496626853942871,1.0950725078582764,0.5543816685676575
4202655046.0,-0.56637042760849,-0.0907165557146072,10.057138442993164,1.4746242761611938,0.5467230081558228,0.707708477973938
4202663379.0,-0.5730602145195007,0.1346491277217865,10.029053688049316,1.7046658992767334,0.6089656352996826,0.728430449962616
4202671712.0,-0.5640428066253662,0.3186315894126892,9.762471199035645,1.813039779663086,1.0193313360214231,0.5878082513809204
4202680045.0,-0.455756276845932,0.2113529443740844,9.728468894958496,1.4662483930587769,0.8596521019935608,0.478998988866806
4202688378.0,-0.4152225255966186,0.0135975545272231,9.872110366821287,1.257082462310791,0.4593527913093567,0.5801495313644409
4202696711.0,-0.4989465475082397,0.0889098346233367,9.876201629638672,1.4166079759597778,0.5977721810340881,0.4976716935634613
4202705044.0,-0.566249668598175,0.2526180446147918,9.702887535095217,1.7461094856262207,1.2253209352493286,0.5638589859008789
4202713377.0,-0.5492998361587524,0.1550333648920059,9.724231719970703,1.571958303451538,1.2871280908584597,0.5999751091003418
4202721710.0,-0.5890223383903503,0.1000325083732605,9.796319007873535,1.399420976638794,0.7987415194511414,0.4572525024414062
4202730043.0,-0.5959176421165466,0.062787652015686,9.942666053771973,1.3504208326339722,0.7593724131584167,0.5038960576057434
4202738376.0,-0.5847663283348083,0.2017178535461425,9.789311408996582,1.7053316831588743,1.015822172164917,0.5445970296859741
4202746709.0,-0.5398074984550476,0.1319517642259597,9.7135648727417,1.6226489543914795,1.1404353380203247,0.4799723327159881
4202755042.0,-0.4365306496620178,0.0414222106337547,9.736162185668944,1.4085910320281982,0.752149224281311,0.4513868689537048
4202763375.0,-0.4182405769824981,0.0921461805701255,9.86030101776123,1.5975215435028076,0.8385460376739502,0.4607616364955902
4202771708.0,-0.485331267118454,0.2161062508821487,9.644060134887695,1.7363505363464355,1.2059054374694824,0.5412672162055969
4202780041.0,-0.5439637303352356,0.1843890696763992,9.596479415893556,1.5907591581344604,1.546728491783142,0.5233884453773499
4202788374.0,-0.6177613735198975,-0.007424424868077,9.860588073730469,1.4741631746292114,1.2436861991882324,0.4820982813835144
4202796707.0,-0.5617960691452026,0.0021961205638945,9.937798500061035,1.5504937171936035,0.7401105761528015,0.3639910817146301
4202805040.0,-0.5905526876449585,0.1924157291650772,9.715869903564451,1.7478512525558472,1.0209449529647827,0.5454423427581787
4202813373.0,-0.5349225401878357,0.2589913606643677,9.715428352355955,1.7006698846817017,1.3669675588607788,0.6072494387626648
4202821706.0,-0.4169470369815826,0.1206189095973968,9.772643089294434,1.466299533843994,1.0463799238204956,0.470828115940094
4202830039.0,-0.4045791029930115,-0.0213798470795154,9.767099380493164,1.3128448724746704,0.6449280381202698,0.5358882546424866
4202838372.0,-0.4542939066886902,0.0505737513303756,9.685173034667969,1.4885072708129885,1.112234115600586,0.6204920411109924
4202846705.0,-0.5132380723953247,0.168972373008728,9.670125961303713,1.5554118156433103,1.7668572664260864,0.5969013571739197
4202855038.0,-0.5013030767440796,0.0532048754394054,9.79458236694336,1.3530592918395996,1.4138163328170776,0.5334805846214294
4202863371.0,-0.5280248522758484,-0.0441712066531181,9.924047470092772,1.3726539611816406,0.8617780804634094,0.4371965527534485
4202871704.0,-0.5480735301971436,0.0685180276632309,9.833707809448242,1.4883023500442505,1.0969679355621338,0.4951871633529663
4202880037.0,-0.5249361395835876,0.0846123471856117,9.67295265197754,1.4785945415496826,1.4616379737854004,0.4788197576999664
4202888370.0,-0.4620652794837951,-0.0536793880164623,9.818998336791992,1.4009320735931396,1.108417510986328,0.4567402005195617
4202896703.0,-0.3746086955070495,-0.1080150827765464,9.864349365234377,1.4263414144515991,0.7010999917984009,0.4858891367912292
4202905036.0,-0.4046594798564911,-0.0025976924225687,9.75026798248291,1.5796427726745603,1.0169236660003662,0.4770523309707641
4202913369.0,-0.4933613836765289,0.1055560782551765,9.60129165649414,1.6544618606567385,1.6773866415023804,0.5470560789108276
4202921702.0,-0.5225897431373596,0.0053030140697956,9.779122352600098,1.5606625080108645,1.6348412036895752,0.4839937686920166
4202930035.0,-0.525271475315094,-0.2150670289993286,9.943288803100586,1.4684001207351685,0.9696140885353088,0.5544329285621643
4202938368.0,-0.5402815937995911,-0.1473348587751388,9.87625789642334,1.6987488269805908,0.910317063331604,0.6242060661315918
4202946701.0,-0.5428149104118347,0.1043921336531639,9.75991153717041,1.8064055442810056,1.594473361968994,0.4484924674034118
4202955034.0,-0.4899791777133941,0.1190408021211624,9.715370178222656,1.688733696937561,1.456540584564209,0.5075844526290894
4202963367.0,-0.4439313113689422,-0.0799842402338981,9.762953758239746,1.5758260488510132,0.9339590072631836,0.4154756963253021
4202971700.0,-0.427594780921936,-0.1564715951681137,9.868878364562988,1.6026954650878906,0.8816291689872742,0.5575322508811951
4202980033.0,-0.475440114736557,0.0199050791561603,9.689650535583496,1.758890986442566,1.5360729694366455,0.4501317143440246
4202988366.0,-0.5893101096153259,0.1331888288259506,9.611477851867676,1.746058464050293,1.7180107831954956,0.392499715089798
4202996699.0,-0.5888435244560242,-0.0121415359899401,9.876930236816406,1.4706283807754517,1.1918686628341677,0.4561254680156708
4203005032.0,-0.5529242157936096,-0.0649547576904296,9.986729621887209,1.6706758737564087,0.7473593950271606,0.4679080843925476
4203013365.0,-0.5755058526992798,0.038487859070301,9.744477272033691,1.815831422805786,1.2131798267364502,0.5143465995788574
4203021698.0,-0.5920464992523193,0.1356962621212005,9.67400360107422,1.7637066841125488,1.618499517440796,0.5574554204940796
4203030031.0,-0.4767558574676513,-0.0066111334599554,9.887398719787598,1.726975917816162,1.1055233478546145,0.499259889125824
4203038364.0,-0.3755480945110321,-0.092803917825222,9.850393295288086,1.6609421968460083,0.604790449142456,0.554740309715271
4203046697.0,-0.4146550297737121,0.0379830747842788,9.73109245300293,1.8100682497024536,0.9996851682662964,0.5091469883918762
4203055030.0,-0.5290180444717407,0.1759312450885772,9.676148414611816,1.821927785873413,1.8429569005966189,0.6160095930099487
4203063363.0,-0.5738555192947388,0.1035496890544891,9.772686958312988,1.655383825302124,1.739065647125244,0.5937251448631287
4203071696.0,-0.5852839350700378,-0.123764656484127,9.92621898651123,1.4983172416687012,0.8399291038513184,0.4774877429008484
4203080029.0,-0.5548704862594604,0.0074974745512008,9.956461906433104,1.8944416046142576,0.8995847105979919,0.5382959246635437
4203088362.0,-0.5493641495704651,0.2690499424934387,9.774394035339355,1.964342832565308,1.4183753728866575,0.4963141977787018
4203096695.0,-0.5197505354881287,0.2195717990398407,9.709657669067385,1.8040488958358765,1.5130455493927002,0.5253351330757141
4203105028.0,-0.4311519265174866,-0.013440191745758,9.806941032409668,1.3909937143325806,0.6883953213691711,0.5163701772689819
4203113361.0,-0.403771162033081,-0.0017202181043103,9.834362030029297,1.6552557945251465,0.6992813944816589,0.5656006932258606
4203121694.0,-0.4958020746707916,0.1555163264274597,9.675500869750977,1.830021619796753,1.632459044456482,0.5153711438179016
4203130027.0,-0.5479555726051331,0.2008239030838012,9.77682113647461,1.8127065896987915,1.895389199256897,0.6395489573478699
4203138360.0,-0.5349032878875732,0.089410975575447,9.900080680847168,1.4972161054611206,1.0423072576522827,0.5730032324790955
4203146693.0,-0.5376397371292114,0.0388222783803939,9.880352973937988,1.4934251308441162,0.586066484451294,0.5135781764984131
4203155026.0,-0.5719960927963257,0.1693073064088821,9.822168350219728,1.693216323852539,1.2271397113800049,0.5192645788192749
4203163359.0,-0.560109555721283,0.2325315773487091,9.746057510375977,1.7283077239990234,1.6116092205047607,0.508327305316925
4203171692.0,-0.4618692696094513,0.0733860731124877,9.83595371246338,1.5149667263031006,0.9874671697616576,0.5838893055915833
4203180025.0,-0.3896441757678985,0.0092914821580052,9.894672393798828,1.4893012046813965,0.5081992149353027,0.4154756963253021
4203188358.0,-0.3962543606758117,0.2313021868467331,9.708468437194824,1.6043603420257568,1.2879222631454468,0.6250001788139343
4203196691.0,-0.513916552066803,0.2676454484462738,9.6239013671875,1.5668867826461792,2.022282123565674,0.7326311469078064
4203205024.0,-0.5933281779289246,0.0269160252064466,9.872410774230955,1.3761121034622192,1.5540540218353271,0.5157297849655151
4203213357.0,-0.5767534971237183,-0.0840319469571113,10.035141944885254,1.4856898784637451,0.8568346500396729,0.4421913921833038
4203221690.0,-0.5449005961418152,0.0636729300022125,9.876873970031738,1.5214214324951172,0.9255319237709044,0.521467387676239
4203230023.0,-0.5640419721603394,0.2473073899745941,9.676998138427734,1.639067769050598,1.636506199836731,0.4571756720542907
4203238356.0,-0.5265822410583496,0.1866895109415054,9.748918533325195,1.4983686208724976,1.5070006847381592,0.522696852684021
4203246689.0,-0.4226899147033691,-0.0811918377876281,9.857059478759766,1.294914722442627,0.644927978515625,0.3885039091110229
4203255022.0,-0.4319818317890167,-0.0941315740346908,9.755288124084473,1.434435486793518,0.8521471619606018,0.5169592499732971
4203263355.0,-0.5146123170852661,0.1220840960741043,9.645310401916504,1.6232892274856567,1.6005182266235352,0.5192389488220215
4203271688.0,-0.5702579617500305,0.135334774851799,9.77702522277832,1.609534502029419,1.9145233631134035,0.5913942456245422
4203280021.0,-0.5633547902107239,-0.0074998140335083,9.932530403137209,1.4290566444396973,0.9298095703125,0.5031276345252991
4203288354.0,-0.5575647950172424,-0.0564607307314872,9.85276222229004,1.546036720275879,0.6661365628242493,0.6282787322998047
4203296687.0,-0.5628412365913391,0.0895911231637001,9.684141159057615,1.636531949043274,1.3140230178833008,0.4797418117523193
4203305020.0,-0.5674523115158081,0.1303733587265014,9.669707298278809,1.5792584419250488,1.5778496265411377,0.5545610189437866
4203313353.0,-0.4575897753238678,-0.0257217716425657,9.836048126220703,1.525980830192566,0.9883123636245728,0.4934966564178467
4203321686.0,-0.3740938305854797,-0.0861274376511573,9.86130428314209,1.4082320928573608,0.4296659827232361,0.3286178112030029
4203330019.0,-0.4456563889980316,0.081033207476139,9.671538352966309,1.609508752822876,1.2282664775848389,0.504664421081543
4203338352.0,-0.5701164603233337,0.1930245906114578,9.639446258544922,1.6967254877090454,2.008424997329712,0.5902416110038757
4203346685.0,-0.5897388458251953,-0.0149384643882513,9.872018814086914,1.3804408311843872,1.3478082418441772,0.5943142771720886
4203355018.0,-0.5645736455917358,-0.1733490526676178,9.969038009643556,1.3945029973983765,0.517061710357666,0.5302274227142334
4203363351.0,-0.5336858630180359,-0.0228196047246456,9.843124389648438,1.7652945518493652,0.9774263501167296,0.564396858215332
4203371684.0,-0.5152037143707275,0.2190542221069336,9.70517635345459,1.8155497312545776,1.7713651657104492,0.5249765515327454
4203380017.0,-0.484806627035141,0.1326222866773605,9.70339298248291,1.5860717296600342,1.3902509212493896,0.5662665963172913
4203388350.0,-0.4094788134098053,-0.1146243065595626,9.852490425109863,1.4213979244232178,0.5733106136322021,0.4306648969650268
4203396683.0,-0.4038331806659698,-0.1004551574587822,9.809823989868164,1.529976725578308,0.8249961733818054,0.5450580716133118
4203405016.0,-0.5255767703056335,0.1149796769022941,9.66996955871582,1.7031290531158447,1.7238253355026243,0.5855799317359924
4203413349.0,-0.580264151096344,0.1101754605770111,9.762998580932615,1.6460349559783936,1.7992336750030518,0.5125024318695068
4203421682.0,-0.5420972108840942,0.0068017886951565,9.980779647827148,1.4258546829223633,0.9209469556808472,0.3880428373813629
4203430015.0,-0.522946298122406,-0.0228423569351434,9.924057006835938,1.5363034009933472,0.6239500045776367,0.5297663807868958
4203438348.0,-0.5250965356826782,0.1234834864735603,9.723787307739258,1.576005458831787,1.4095641374588013,0.5189315676689148
4203446681.0,-0.5482620596885681,0.171058639883995,9.769072532653809,1.6326640844345093,1.8159083127975464,0.6700810790061951
4203455014.0,-0.4506150782108307,0.0125960335135459,9.865631103515623,1.3852561712265017,0.7644696235656738,0.5392692685127258
4203463347.0,-0.3843866288661957,-0.0988022163510322,9.877346992492676,1.4186828136444092,0.4234673380851745,0.5489258170127869
4203471680.0,-0.4249091744422912,0.1286128759384155,9.746387481689451,1.5967531204223633,1.2938390970230105,0.4573550224304199
4203480013.0,-0.5681601166725159,0.2336734533309936,9.626132011413574,1.590195655822754,1.9243847131729128,0.5123999714851379
4203488346.0,-0.6282109618186951,-0.0144145069643855,9.869307518005373,1.51120126247406,1.4825135469436646,0.4872979819774627
4203496679.0,-0.5778424143791199,-0.1325064152479171,9.988494873046877,1.4115620851516724,0.6055845618247986,0.4468019008636474
4203505012.0,-0.5423756837844849,0.0301364809274673,9.833612442016602,1.688298225402832,0.7863185405731201,0.4793831706047058
4203513345.0,-0.5483551621437073,0.2394076883792877,9.717878341674805,1.809812307357788,1.5449612140655518,0.4920623004436493
4203521678.0,-0.4872376322746277,0.1843019425868988,9.748808860778809,1.452263116836548,1.497113823890686,0.560221791267395
4203530011.0,-0.4259661138057709,-0.0744181796908378,9.8197660446167,1.329827070236206,0.6224899291992188,0.4437794089317322
4203538344.0,-0.4409575760364532,-0.1037948727607727,9.785684585571287,1.4840502738952637,0.6795327663421631,0.5201610922813416
4203546677.0,-0.4990250468254089,0.1645654886960983,9.69365406036377,1.6141194105148315,1.5387623310089111,0.5788944959640503
4203555010.0,-0.5492702722549438,0.2182693630456924,9.69724178314209,1.6612753868103027,1.7740548849105835,0.5207502245903015
4203563343.0,-0.5877759456634521,0.0073431748896837,9.877775192260742,1.3976023197174072,0.8921054005622864,0.5093518495559692
4203571676.0,-0.5615696907043457,-0.0164729971438646,9.88874053955078,1.4504187107086182,0.663600742816925,0.516267716884613
4203580009.0,-0.5505045652389526,0.1518733948469162,9.76358699798584,1.717037558555603,1.276703119277954,0.640752911567688
4203588342.0,-0.5643003582954407,0.1294029951095581,9.638927459716797,1.7026935815811155,1.5854060649871826,0.6045088171958923
4203596675.0,-0.4484035074710846,-0.0306034814566373,9.853470802307127,1.4919906854629517,1.094918727874756,0.5547658205032349
4203605008.0,-0.3638582229614258,0.003376071806997,9.792014122009276,1.4660691022872925,0.4521808922290802,0.5106326341629028
4203613341.0,-0.4341391623020172,0.1292725354433059,9.639450073242188,1.577465534210205,1.234209060668945,0.5110679864883423
4203621674.0,-0.5427903532981873,0.1610463857650756,9.593850135803224,1.638939619064331,1.9474120140075684,0.5704162120819092
4203630007.0,-0.5449695587158203,-0.0240531116724014,9.804303169250488,1.4563357830047607,1.4653520584106443,0.477590262889862
4203638340.0,-0.5628650784492493,-0.1675285398960113,9.982196807861328,1.4525448083877563,0.6536880731582642,0.5787152051925659
4203646673.0,-0.5558122396469116,0.0311472732573747,9.92173194885254,1.6569209098815918,1.0166162252426147,0.5041265487670898
4203655006.0,-0.5375340580940247,0.27570840716362,9.686050415039062,1.909451603889465,1.6510040760040283,0.6359118223190308
4203663339.0,-0.5054850578308105,0.1277464479207992,9.674148559570312,1.556256651878357,1.2236559391021729,0.5407036542892456
4203671672.0,-0.403506189584732,-0.1237298771739006,9.896544456481934,1.4013162851333618,0.7242809534072876,0.3576643764972687
4203680005.0,-0.3919469714164734,-0.0403757467865943,9.825738906860352,1.6623766422271729,0.8415940999984741,0.5187779068946838
4203688338.0,-0.4578891396522522,0.1110600680112838,9.609718322753906,1.7825331687927246,1.725567102432251,0.5728752017021179
4203696671.0,-0.5361493825912476,0.1307001113891601,9.776285171508787,1.6024906635284424,1.8317124843597408,0.6140117049217224
4203705004.0,-0.5236706137657166,-0.0015798363601788,9.99112319946289,1.4318228960037231,1.054448485374451,0.4041798710823059
4203713337.0,-0.5335490703582764,-0.0657771602272987,9.893851280212402,1.5149154663085938,0.7707964181900024,0.5048949718475342
4203721670.0,-0.5630574822425842,0.0731005743145942,9.70042896270752,1.7552026510238647,1.439814567565918,0.5580444931983948
4203730003.0,-0.5559600591659546,0.1586272269487381,9.704827308654783,1.6346620321273804,1.6579452753067017,0.4672932624816894
4203738336.0,-0.4617624580860138,-0.0458522364497184,9.86935806274414,1.5836639404296875,1.0004535913467407,0.4840705990791321
4203746669.0,-0.4110679626464844,-0.1130635291337966,9.899369239807127,1.5688334703445437,0.5882949233055115,0.5297151803970337
4203755002.0,-0.434817373752594,0.1086126193404197,9.701555252075195,1.7834038734436035,1.3398933410644531,0.5166774988174438
4203763335.0,-0.5230166912078857,0.201281726360321,9.652236938476562,1.6762597560882568,1.9010502099990845,0.559145987033844
4203771668.0,-0.6010926365852356,-0.0195855274796485,9.852611541748049,1.379083275794983,1.4347686767578125,0.6027926206588745
4203780001.0,-0.560401201248169,-0.1732214242219925,10.010623931884766,1.5437572002410889,0.7149574160575867,0.5101715922355652
4203788334.0,-0.534740149974823,0.0116130001842975,9.8499755859375,1.6583294868469238,0.94722718000412,0.5271281003952026
4203796667.0,-0.5549010038375854,0.239266037940979,9.701865196228027,1.7951607704162598,1.6807163953781128,0.5233884453773499
4203805000.0,-0.5446380972862244,0.1685384958982467,9.75893783569336,1.6134535074234009,1.419988989830017,0.5591459274291992
4203813333.0,-0.44278284907341,-0.0909782797098159,9.82681655883789,1.4925285577774048,0.7112176418304443,0.5453910827636719
4203821666.0,-0.445147156715393,-0.1396031528711319,9.787259101867676,1.5415287017822266,0.6781496405601501,0.4422681629657745
4203829999.0,-0.5171712040901184,0.1303521692752838,9.719931602478027,1.7128368616104126,1.6240577697753906,0.56316739320755
4203838332.0,-0.5405393838882446,0.2185951620340347,9.769109725952148,1.7203161716461182,1.830406188964844,0.4742859899997711
4203846665.0,-0.5650946497917175,-0.0047880467027425,9.865546226501465,1.4547730684280396,0.9185648560523988,0.6111428141593933
4203854998.0,-0.5080401301383972,-0.0560553222894668,9.961703300476074,1.542015552520752,0.5471329092979431,0.5253095626831055
4203863331.0,-0.5016312599182129,0.1356693059206009,9.706625938415527,1.7589937448501587,1.1741437911987305,0.5954924821853638
4203871664.0,-0.5184024572372437,0.1983498781919479,9.689472198486328,1.69757080078125,1.713118553161621,0.5275892019271851
4203879997.0,-0.4727287590503692,0.008596814237535,9.861163139343262,1.5740587711334229,0.9868268370628356,0.4472373127937317
4203888330.0,-0.3750968277454376,-0.0665825381875038,9.891437530517578,1.5492128133773804,0.3983653783798218,0.527742862701416
4203896663.0,-0.4292494356632232,0.1065496429800987,9.68544101715088,1.7287174463272097,1.1460448503494265,0.6167522668838501
4203904996.0,-0.5333463549613953,0.2016607373952865,9.666528701782228,1.6644002199172974,1.8614506721496584,0.6652657389640808
4203913329.0,-0.5479522943496704,0.0457352921366691,9.837532043457031,1.5382500886917114,1.53558611869812,0.5148589015007019
4203921662.0,-0.5532223582267761,-0.1675124317407608,9.955305099487305,1.4365358352661133,0.6810952425003052,0.4674213230609894
4203929995.0,-0.5363392233848572,-0.0212638713419437,9.922772407531738,1.6619668006896973,0.8280185461044312,0.523285984992981
4203938328.0,-0.5090749263763428,0.2750200629234314,9.695855140686035,1.8493475914001465,1.5973036289215088,0.4736840426921844
4203946661.0,-0.5048694014549255,0.1893251836299896,9.657371520996094,1.4912735223770142,1.5137115716934204,0.4894239902496338
4203954994.0,-0.4295205771923065,-0.0970389172434806,9.880608558654783,1.4175300598144531,0.8003296256065369,0.505099892616272
4203963327.0,-0.4336107075214386,-0.0905041471123695,9.82326602935791,1.5995960235595703,0.6950806379318237,0.5521788001060486
4203971660.0,-0.5043411254882812,0.1519177109003067,9.632226943969728,1.6423463821411133,1.632612943649292,0.5503602623939514
4203979993.0,-0.5573875308036804,0.2202992886304855,9.734267234802246,1.6443954706192017,1.938754320144653,0.5676754117012024
4203988326.0,-0.5645608901977539,0.0284426473081111,9.957250595092772,1.4960122108459473,1.0842889547348022,0.5506677031517029
4203996659.0,-0.5460265874862671,-0.0457638874650001,9.853842735290527,1.4536974430084229,0.643698513507843,0.4631949961185455
4204004992.0,-0.5514497756958008,0.1004607006907463,9.729430198669434,1.6858139038085938,1.155317306518555,0.546364426612854
4204013325.0,-0.5362683534622192,0.1618985384702682,9.734214782714844,1.6253126859664917,1.7320985794067385,0.514320969581604
4204021658.0,-0.4510873556137085,0.0021189441904425,9.81668758392334,1.4949619770050049,0.9812941551208496,0.521185576915741
4204029991.0,-0.3922292292118072,-0.1006450280547142,9.869211196899414,1.6042321920394895,0.4710585176944732,0.4206241369247436
4204038324.0,-0.4075858294963836,0.0632485374808311,9.685680389404297,1.7725435495376587,1.1006821393966677,0.5630137324333191
4204046657.0,-0.546430766582489,0.1491617858409881,9.592721939086914,1.675619125366211,2.0079894065856934,0.6023827791213989
4204054990.0,-0.6069616079330444,-0.0109527735039591,9.77422332763672,1.5860974788665771,1.7471599578857422,0.5414977669715881
4204063323.0,-0.5813415050506592,-0.1886235922574997,9.981327056884766,1.6467775106430054,0.6605014204978943,0.5196743607521057
4204071656.0,-0.5531849265098572,-0.0689643025398254,9.825550079345703,1.8213130235672,0.8234593272209167,0.4538714587688446
4204079989.0,-0.5449275374412537,0.2390263080596923,9.677794456481934,1.767215609550476,1.6208560466766355,0.5801496505737305
4204088322.0,-0.5024459362030029,0.2017931193113327,9.751795768737791,1.6569207906723022,1.5125333070755005,0.5777418613433838
4204096655.0,-0.4484119415283203,-0.0973896160721778,9.844221115112305,1.5509802103042605,0.9020692706108092,0.5346331000328064
4204104988.0,-0.4012916088104248,-0.0763614401221275,9.84286880493164,1.6190885305404663,0.8116254210472107,0.5509493947029114
4204113321.0,-0.4843710362911224,0.1661206483840942,9.711214065551758,1.7727227210998535,1.6505171060562134,0.5039985179901123
4204121654.0,-0.5631721615791321,0.2658924162387848,9.7686185836792,1.7059463262557983,1.893109679222107,0.6078386306762695
4204129987.0,-0.5501061677932739,0.082356259226799,9.971786499023438,1.4567970037460327,1.0294491052627563,0.4011061489582062
4204138320.0,-0.5475501418113708,-0.0104789147153496,9.960991859436035,1.4312081336975098,0.6388829946517944,0.533967137336731
4204146653.0,-0.5655738711357117,0.1345462352037429,9.766901016235352,1.5404272079467771,1.2272676229476929,0.4130679368972778
4204154986.0,-0.5528808236122131,0.1781816035509109,9.749038696289062,1.5052332878112793,1.654948353767395,0.4314333200454712
4204163319.0,-0.4736208319664001,0.0146511355414986,9.907042503356934,1.343095302581787,1.0977622270584106,0.5122463703155518
4204171652.0,-0.3989927470684051,-0.101527452468872,9.936929702758787,1.3731662034988403,0.5024104118347168,0.4876309037208557
4204179985.0,-0.4257077872753143,0.0637705773115158,9.728723526000977,1.5953696966171265,1.1182020902633667,0.4666785597801208
4204188318.0,-0.5098231434822083,0.1846064180135727,9.675405502319336,1.5762104988098145,1.959655523300171,0.4545118510723114
4204196651.0,-0.5648263692855835,-0.0240929722785949,9.825459480285645,1.4884816408157349,1.4833844900131226,0.4098661839962005
4204204984.0,-0.5411384105682373,-0.2269740998744964,10.02446746826172,1.4385336637496948,0.7832704186439514,0.500105082988739
4204213317.0,-0.5356056094169617,-0.0067830076441168,9.863125801086426,1.7830708026885986,0.8470755219459534,0.4385797083377838
4204221650.0,-0.5471453070640564,0.2454382628202438,9.660573959350586,1.982657074928284,1.5478298664093018,0.4420376420021057
4204229983.0,-0.5143728256225586,0.2016671001911163,9.71840476989746,1.7331486940383911,1.5488542318344116,0.3807683885097503
4204238316.0,-0.4493510127067566,-0.0733976736664772,9.86147689819336,1.484818696975708,0.7628815770149231,0.330180287361145
4204246649.0,-0.4171331822872162,-0.0991580039262771,9.770821571350098,1.681100606918335,0.6631909608840942,0.4371196925640106
4204254982.0,-0.4743877947330475,0.1479476988315582,9.61021900177002,1.7928298711776731,1.6250309944152832,0.5495149493217468
4204263315.0,-0.5236886739730835,0.2524043619632721,9.709582328796388,1.7275137901306152,1.8464919328689573,0.4787172377109527
4204271648.0,-0.5480090379714966,0.0761272832751274,9.872467041015623,1.6041555404663086,1.1219931840896606,0.5440848469734192
4204279981.0,-0.5304499864578247,-0.012714073061943,9.863141059875488,1.435767412185669,0.7087586522102356,0.5234140753746033
4204288314.0,-0.5337714552879333,0.1250604689121246,9.722885131835938,1.7163203954696655,1.3048020601272583,0.5888328552246094
4204296647.0,-0.5757670998573303,0.1721687614917755,9.663310050964355,1.6677813529968262,1.681946039199829,0.471622109413147
4204304980.0,-0.4924016892910003,0.0092028006911277,9.827093124389648,1.4464998245239258,1.0603652000427246,0.5227481126785278
4204313313.0,-0.3887212574481964,-0.0736242160201072,9.87635898590088,1.4902361631393433,0.4509129822254181,0.5517818331718445
4204321646.0,-0.4137738049030304,0.1012251302599906,9.66448974609375,1.6529250144958496,1.122710347175598,0.5378349423408508
4204329979.0,-0.5088289380073547,0.1766373366117477,9.572102546691896,1.6086382865905762,2.069463968276977,0.5830696821212769
4204338312.0,-0.5794597864151001,0.0082702860236167,9.843061447143556,1.3916853666305542,1.560252666473389,0.506329357624054
4204346645.0,-0.552155613899231,-0.1861317157745361,9.9733304977417,1.5607908964157104,0.7176981568336487,0.4690606892108917
4204354978.0,-0.5383731722831726,-0.0499668642878532,9.892393112182615,1.7963391542434692,0.8777869939804077,0.4785891771316528
4204363311.0,-0.5204492807388306,0.2236820310354232,9.679537773132324,1.7746440172195437,1.6734164953231812,0.5181375741958618
4204371644.0,-0.5048977136611938,0.1583242416381836,9.740877151489258,1.639400601387024,1.599391222000122,0.486965000629425
4204379977.0,-0.4394864737987518,-0.1301321387290954,9.84873104095459,1.554412603378296,0.7986389994621277,0.556456446647644
4204388310.0,-0.4234296679496765,-0.0985647216439247,9.863438606262209,1.6805886030197144,0.7546850442886353,0.480945736169815
4204396643.0,-0.5018397569656372,0.0911488533020019,9.684297561645508,1.845236659049988,1.5815637111663818,0.4837376475334167
4204404976.0,-0.5546661019325256,0.1595622450113296,9.739018440246582,1.770315170288086,1.947795987129212,0.4507465064525604
4204413309.0,-0.5183310508728027,0.0193315595388412,9.958195686340332,1.4965757131576538,1.095917820930481,0.5470815896987915
4204421642.0,-0.5470598936080933,-0.0454101078212261,9.903488159179688,1.5676038265228271,0.5523581504821777,0.5001563429832458
4204429975.0,-0.5577773451805115,0.0861617773771286,9.738694190979004,1.7047169208526611,1.3307490348815918,0.5430858135223389
4204438308.0,-0.5672918558120728,0.1467600911855697,9.73479461669922,1.6767206192016602,1.7770261764526367,0.560862123966217
4204446641.0,-0.4817743599414825,-0.0365608483552932,9.8464994430542,1.4424785375595093,1.116690993309021,0.5616818070411682
4204454974.0,-0.406885415315628,-0.0949032828211784,9.880598068237305,1.6012353897094729,0.5744632482528687,0.4631693661212921
4204463307.0,-0.437745451927185,0.1035768911242485,9.746541023254396,1.7808935642242432,1.1319313049316406,0.4643988609313965
4204471640.0,-0.5309497117996216,0.1737305968999862,9.617676734924316,1.6697793006896973,1.8178294897079468,0.6044831871986389
4204479973.0,-0.5906857848167419,-0.0488283559679985,9.823798179626465,1.5692687034606934,1.5350993871688845,0.5344537496566772
4204488306.0,-0.5734637975692749,-0.1675696223974228,10.023225784301758,1.6629146337509155,0.7630096673965454,0.6245391368865967
4204496639.0,-0.5270411372184753,0.0119399353861808,9.84674072265625,1.8157545328140257,0.7999966144561768,0.5372970104217529
4204504972.0,-0.5279982686042786,0.2578155100345611,9.704998016357422,1.8860658407211304,1.5639156103134155,0.4708024859428406
4204513305.0,-0.4876514673233032,0.1985454261302948,9.769889831542969,1.540580987930298,1.556538701057434,0.5691611170768738
4204521638.0,-0.4425893127918243,-0.0602770075201988,9.86577320098877,1.4412745237350464,0.6821198463439941,0.5176764726638794
4204529971.0,-0.4252236485481262,-0.0592695660889148,9.75969123840332,1.5549505949020386,0.7211304306983948,0.545570433139801
4204538304.0,-0.4744521081447601,0.1741369068622589,9.699834823608398,1.7528204917907717,1.5460110902786257,0.6308658123016357
4204546637.0,-0.5525855422019958,0.2203753888607025,9.76536464691162,1.6533348560333252,1.752103328704834,0.4975693225860595
4204554970.0,-0.5891903042793274,0.0633712485432624,9.876104354858398,1.489864706993103,1.263434886932373,0.5419843792915344
4204563303.0,-0.5599188804626465,0.0735513865947723,9.896278381347656,1.4926310777664185,0.6603221297264099,0.5337110161781311
4204571636.0,-0.5530157089233398,0.1398404538631439,9.747334480285645,1.6686009168624878,1.2483737468719482,0.5508213639259338
4204579969.0,-0.5751031637191772,0.1484158784151077,9.722003936767578,1.5112781524658203,1.6535396575927734,0.5279734134674072
4204588302.0,-0.5072714686393738,0.0103731909766793,9.85814094543457,1.4680157899856567,1.1342880725860596,0.5918297171592712
4204596635.0,-0.4035419523715973,-0.0008154240786097,9.887052536010742,1.406746506690979,0.4851208031177521,0.470443844795227
4204604968.0,-0.4041116535663605,0.1924411058425903,9.664620399475098,1.5422202348709106,0.954501748085022,0.4568938910961151
4204613301.0,-0.4580803215503692,0.2397132068872451,9.656482696533203,1.533511519432068,1.713297724723816,0.5645249485969543
4204621634.0,-0.5363966822624207,0.0238484069705009,9.808618545532228,1.441095232963562,1.522958278656006,0.4840705990791321
4204629967.0,-0.5745304226875305,-0.1359825581312179,9.948409080505373,1.3627158403396606,0.8285308480262756,0.5129122138023376
4204638300.0,-0.5196962356567383,0.035320658236742,9.9075927734375,1.7146551609039309,0.6850910782814026,0.4696497917175293
4204646633.0,-0.5632740259170532,0.3021166920661926,9.68449878692627,1.6112507581710815,1.3037517070770264,0.6202358603477478
4204654966.0,-0.5321183204650879,0.1970479488372802,9.730453491210938,1.4467047452926636,1.5104585886001587,0.4838401079177856
4204663299.0,-0.4383116960525512,-0.0904976204037666,9.876165390014648,1.2807245254516602,0.967129409313202,0.4754129648208618
4204671632.0,-0.4274539053440094,-0.0441187359392643,9.760690689086914,1.4727801084518433,0.5741046071052551,0.5450325012207031
4204679965.0,-0.4762104153633117,0.0893359780311584,9.658384323120115,1.5991350412368774,1.3865113258361816,0.4181395769119262
4204688298.0,-0.5076906085014343,0.1819093823432922,9.754020690917969,1.5783106088638306,1.7715957164764404,0.5337879061698914
4204696631.0,-0.5130199790000916,0.0272850021719932,9.862591743469238,1.4176069498062134,1.0518100261688232,0.496724009513855
4204704964.0,-0.5468991994857788,-0.0715785026550293,9.911543846130373,1.2346957921981812,0.6470795273780823,0.6368082761764526
4204713297.0,-0.5844184160232544,0.1388282775878906,9.821504592895508,1.5130199193954468,1.2415858507156372,0.4979279041290283
4204721630.0,-0.5806058049201965,0.1686946153640747,9.725394248962402,1.472472906112671,1.229214429855347,0.5963378548622131
4204729963.0,-0.4965145885944366,-0.0173170324414968,9.82643985748291,1.2653815746307373,0.8256363868713379,0.6001030802726746
4204738296.0,-0.3629066348075866,-0.113401174545288,9.860901832580566,1.3926842212677002,0.3328953683376312,0.34544637799263
4204746629.0,-0.40275439620018,0.1233041137456893,9.642911911010742,1.5778496265411377,1.2537015676498413,0.5961073040962219
4204754962.0,-0.5238320827484131,0.1325962841510772,9.616440773010254,1.51414692401886,1.9798907041549685,0.6055845618247986
4204763295.0,-0.5043045878410339,-0.0405963249504566,9.809426307678224,1.451366662979126,1.5133273601531982,0.5060476064682007
4204771628.0,-0.5426719188690186,-0.1863100975751876,10.026512145996094,1.3580282926559448,0.7796332240104675,0.481278657913208
4204779961.0,-0.5330687761306763,-0.0554695278406143,9.83208179473877,1.6695998907089231,0.83577960729599,0.5587361454963684
4204788294.0,-0.5468955039978027,0.1830761283636093,9.669488906860352,1.7605047225952148,1.6139657497406006,0.5646017789840698
4204796627.0,-0.5041935443878174,0.1238780319690704,9.659815788269045,1.592757225036621,1.471858024597168,0.5057146549224854
4204804960.0,-0.47126504778862,-0.1662177592515945,9.792370796203612,1.2924814224243164,0.8122914433479309,0.629047155380249
4204813293.0,-0.4484135210514068,-0.1317869126796722,9.913065910339355,1.4890708923339844,0.8668241500854492,0.4749776124954223
4204821626.0,-0.5071483850479126,0.079322412610054,9.662609100341797,1.8736428022384644,1.4211417436599731,0.5813022255897522
4204829959.0,-0.5468919277191162,0.0837415307760238,9.6341552734375,1.7239019870758057,1.6441649198532104,0.491575539112091
4204838292.0,-0.5347422361373901,-0.0166219659149646,9.945706367492676,1.49403977394104,0.964004397392273,0.5566356778144836
4204846625.0,-0.5082539319992065,-0.0647150948643684,9.940421104431152,1.5921679735183716,0.7999709844589233,0.5345818996429443
4204854958.0,-0.5455607175827026,0.0589452348649501,9.704801559448242,1.7074320316314695,1.300908446311951,0.5515128374099731
4204863291.0,-0.5462318062782288,0.1092385724186897,9.680173873901367,1.7082263231277466,1.6164761781692505,0.5626038908958435
4204871624.0,-0.4561738967895508,-0.0695116743445396,9.808194160461426,1.540196657180786,1.0559340715408323,0.502794623374939
4204879957.0,-0.3865140378475189,-0.1017191559076309,9.872762680053713,1.6482120752334597,0.5701344609260559,0.479869931936264
4204888290.0,-0.4185566306114197,0.0996471792459487,9.722426414489746,1.815165519714356,1.1303945779800415,0.5951595306396484
4204896623.0,-0.5234092473983765,0.1732520312070846,9.61413288116455,1.7959034442901611,1.7536910772323608,0.6748453974723816
4204904956.0,-0.5898357629776001,-0.0486431531608104,9.784151077270508,1.569704294204712,1.5126101970672607,0.5595301389694214
4204913289.0,-0.5411782264709473,-0.133807361125946,9.950668334960938,1.671418309211731,0.8234847784042358,0.4680104851722717
4204921622.0,-0.5396910309791565,-0.0046611884608864,9.86448860168457,1.812655568122864,0.989337146282196,0.5225176215171814
4204929955.0,-0.5440211892127991,0.2921314835548401,9.774093627929688,1.7495160102844238,1.7059208154678345,0.4847109317779541
4204938288.0,-0.4582316875457763,0.2571852803230285,9.76908016204834,1.6831241846084597,1.4535181522369385,0.537988543510437
4204946621.0,-0.4108574688434601,-0.0293546840548515,9.831430435180664,1.5205504894256592,0.6807110905647278,0.5753597021102905
4204954954.0,-0.4508055746555328,-0.0349323973059654,9.76413917541504,1.649928092956543,0.7832704186439514,0.4308186173439026
4204963287.0,-0.485216736793518,0.1836723983287811,9.74671459197998,1.8798158168792725,1.6601996421813965,0.5193158388137817
4204971620.0,-0.5438180565834045,0.2188266664743423,9.749017715454102,1.7175753116607666,1.7003369331359863,0.5906001925468445
4204979953.0,-0.5657733678817749,0.0268774218857288,9.921714782714844,1.4898903369903564,1.0233782529830933,0.445060133934021
4204988286.0,-0.5513681173324585,0.0389942936599254,9.953609466552734,1.4443482160568235,0.7123702168464661,0.4740810394287109
4204996619.0,-0.5668799877166748,0.1622754037380218,9.77401065826416,1.733917236328125,1.3284438848495483,0.426412969827652
4205004952.0,-0.5590857863426208,0.1445584446191787,9.725451469421388,1.6168856620788574,1.661147117614746,0.5047668814659119
4205013285.0,-0.4495845735073089,0.0292209256440401,9.906943321228027,1.493297100067139,1.001093864440918,0.4988244175910949
4205021618.0,-0.3974173069000244,-0.0152417970821261,9.9007568359375,1.5317442417144775,0.6146776676177979,0.5408573746681213
4205029951.0,-0.4636334776878357,0.2129091024398803,9.703758239746094,1.6953679323196411,1.2134617567062378,0.481560468673706
4205038284.0,-0.49736487865448,0.2730929255485534,9.664203643798828,1.6065119504928589,1.9097845554351809,0.4290256202220917
4205046617.0,-0.6039636731147766,0.0629186853766441,9.88512134552002,1.3646366596221924,1.412688970565796,0.445700466632843
4205054950.0,-0.6084280014038086,-0.1005546674132347,10.021855354309082,1.27122163772583,0.7992025017738342,0.5326352119445801
4205063283.0,-0.5704512596130371,0.1607349961996078,9.938323974609377,1.5214214324951172,0.8882375955581665,0.4502085745334625
4205071616.0,-0.544482409954071,0.3337673544883728,9.67894458770752,1.6136327981948853,1.481412053108215,0.4327396750450134
4205079949.0,-0.5196883678436279,0.1813180893659591,9.7048921585083,1.2341835498809814,1.2328259944915771,0.4968777000904083
4205088282.0,-0.4199148118495941,-0.0490828081965446,9.937444686889648,1.1287808418273926,0.6981799602508545,0.5132452249526978
4205096615.0,-0.4567018747329712,0.0173599496483802,9.785218238830566,1.3475520610809326,0.7005621194839478,0.5419843196868896
4205104948.0,-0.5219316482543945,0.1945769041776657,9.593281745910645,1.5658878087997437,1.5547966957092283,0.5116827487945557
4205113281.0,-0.5075655579566956,0.1933794915676117,9.822246551513672,1.183979630470276,1.612351894378662,0.4223915338516235
4205121614.0,-0.5356191992759705,0.0778014734387397,9.93275260925293,1.1091347932815552,0.8465888500213623,0.4989525377750397
4205129947.0,-0.598628580570221,0.0555489771068096,9.945884704589844,1.028244972229004,0.7333739399909973,0.4727490842342376
4205138280.0,-0.5803319811820984,0.1664855033159256,9.789228439331056,1.272553563117981,1.2971432209014893,0.5238239169120789
4205146613.0,-0.5236445665359497,0.1284513920545578,9.7158784866333,1.3191457986831665,1.4533131122589111,0.4884761869907379
4205154946.0,-0.4401643574237823,-0.038832638412714,9.772807121276855,1.1093653440475464,1.010622501373291,0.4911913573741913
4205163279.0,-0.3699522018432617,-0.0029326656367629,9.893926620483398,1.192611575126648,0.7773280143737793,0.5089163780212402
4205171612.0,-0.4394330382347107,0.136780247092247,9.68388557434082,1.4779284000396729,1.397192358970642,0.4530517756938934
4205179945.0,-0.526497483253479,0.0602207481861114,9.57261562347412,1.346732497215271,1.865036368370056,0.5433419346809387
4205188278.0,-0.5192228555679321,-0.1729123890399933,9.86281394958496,1.2031903266906738,1.3385616540908811,0.5405756235122681
4205196611.0,-0.5386591553688049,-0.1397379338741302,10.006097793579102,1.3424291610717771,0.7437732815742493,0.3888368904590606
4205204944.0,-0.5793061256408691,0.1025014594197273,9.80954647064209,1.4651981592178345,1.2490652799606323,0.4324066936969757
4205213277.0,-0.5088694095611572,0.2102934122085571,9.757930755615234,1.4538768529891968,1.6475204229354858,0.4986707866191864
4205221610.0,-0.4501641690731048,0.0279318522661924,9.800575256347656,1.1782163381576538,1.0681520700454712,0.4691888093948364
4205229943.0,-0.42316934466362,-0.1197385936975479,9.798994064331056,1.0845707654953003,0.6450304985046387,0.5325071811676025
4205238276.0,-0.4376555383205414,0.0085769798606634,9.796570777893066,1.394784688949585,1.0523735284805298,0.5959792137145996
4205246609.0,-0.4717180728912353,0.086950197815895,9.6183443069458,1.536789894104004,1.6252102851867676,0.4907814860343933
4205254942.0,-0.522990345954895,0.00324033992365,9.746907234191896,1.2842849493026731,1.5333834886550903,0.4092258214950561
4205263275.0,-0.5368638038635254,-0.1032441332936286,9.987936973571776,1.2494494915008545,0.8235360980033875,0.4930868446826935
4205271608.0,-0.5664384365081787,-0.0183535814285278,9.917574882507324,1.43894362449646,0.953630805015564,0.5426759719848633
4205279941.0,-0.572972297668457,0.0014966062735766,9.60464859008789,1.63407301902771,1.4445019960403442,0.4881945550441742
4205288274.0,-0.4752208292484283,-0.133366048336029,9.76670265197754,1.3827459812164309,1.4081809520721436,0.4773340821266174
4205296607.0,-0.4085916876792907,-0.2107050567865371,9.91514492034912,1.4908125400543213,0.8686426877975464,0.6402918696403503
4205304940.0,-0.4144850373268127,-0.0438020974397659,9.769760131835938,1.6230075359344482,0.7807090282440186,0.4877334535121918
4205313273.0,-0.4430657625198364,0.0918200016021728,9.637184143066406,1.653821587562561,1.4494967460632324,0.5667790174484253
4205321606.0,-0.4815175533294678,-0.055790226906538,9.63628101348877,1.6404764652252195,1.6439087390899658,0.5268464088439941
4205329939.0,-0.5236330628395081,-0.2536633312702179,9.821619033813477,1.4564894437789917,1.0773987770080566,0.5096848607063293
4205338272.0,-0.5522684454917908,-0.1299338936805725,9.940939903259276,1.7430357933044434,1.0470458269119265,0.5082504153251648
4205346605.0,-0.539143443107605,0.1239271610975265,9.72808837890625,2.0593972206115723,1.3547497987747192,0.5514873266220093
4205354938.0,-0.5111827850341797,0.1532941162586212,9.658931732177734,1.7479283809661863,1.533357858657837,0.5862202048301697
4205363271.0,-0.441283643245697,-0.058220837265253,9.79370403289795,1.6722638607025146,0.9729951620101928,0.5485928654670715
4205371604.0,-0.399541288614273,-0.1001618951559066,9.778502464294434,1.7431126832962036,0.7562474608421326,0.5636028051376343
4205379937.0,-0.4091929793357849,0.028969869017601,9.5978364944458,1.7087641954421997,1.4104350805282593,0.568956196308136
4205388270.0,-0.4883415102958679,0.1141383498907089,9.69545841217041,1.8664453029632568,1.6585345268249512,0.628201961517334
4205396603.0,-0.5396988391876221,0.0157060828059911,9.875028610229492,1.650568604469299,1.4118438959121704,0.5399609208106995
4205404936.0,-0.5546442866325378,-0.0495975874364376,9.88080883026123,1.6632475852966309,0.8863421082496643,0.6227717399597168
4205413269.0,-0.5510792136192322,0.1226894482970237,9.81263828277588,1.6101237535476685,1.1541647911071775,0.479434460401535
4205421602.0,-0.5659990906715393,0.1805639415979385,9.71653652191162,1.7155519723892212,1.480976700782776,0.5890633463859558
4205429935.0,-0.5357875227928162,0.0529294498264789,9.85157299041748,1.523829460144043,1.3089258670806885,0.5362725257873535
4205438268.0,-0.3749075829982757,-0.0149593688547611,9.932631492614746,1.5947037935256958,0.6581705808639526,0.5123230814933777
4205446601.0,-0.4104647040367126,0.104898877441883,9.730778694152832,1.6824069023132324,0.8368810415267944,0.4633230566978454
4205454934.0,-0.4957665205001831,0.2094792872667312,9.653386116027832,1.5888638496398926,1.745059609413147,0.5131171941757202
4205463267.0,-0.5640096664428711,0.162456065416336,9.914590835571287,1.5155301094055176,1.7756682634353638,0.6153435707092285
4205471600.0,-0.566346287727356,-0.0559181757271289,10.0180082321167,1.5043624639511108,1.0519639253616333,0.5108375549316406
4205479933.0,-0.5870363116264343,0.0479702837765216,9.94405746459961,1.556538701057434,0.7894691228866577,0.4677543640136719
4205488266.0,-0.5686391592025757,0.3277726471424103,9.850589752197266,1.653949499130249,1.3932479619979858,0.4221353828907013
4205496599.0,-0.5226908326148987,0.3354950845241546,9.832647323608398,1.5834335088729858,1.4364078044891355,0.4820470511913299
4205504932.0,-0.4949350357055664,0.0955192819237709,9.8999662399292,1.3426597118377686,1.0183836221694946,0.5142953991889954
4205513265.0,-0.4541912078857422,0.0269018430262804,9.98733615875244,1.2929424047470093,0.8548879027366638,0.4428829848766327
4205521598.0,-0.5369277000427246,0.2224904298782348,9.782206535339355,1.501134991645813,1.3664041757583618,0.4961093068122864
4205529931.0,-0.6141583323478699,0.2848448753356933,9.80370807647705,1.2506535053253174,1.773798584938049,0.4290768504142761
4205538264.0,-0.5676234364509583,0.172579288482666,10.022306442260742,1.1187400817871094,1.258260726928711,0.5031020045280457
4205546597.0,-0.5632507801055908,0.0835665836930275,10.00473976135254,1.12360680103302,0.6632165312767029,0.4332263469696045
4205554930.0,-0.5977632403373718,0.1876652985811233,9.832133293151855,1.1211223602294922,1.1703273057937622,0.515576183795929
4205563263.0,-0.6113126873970032,0.2788675427436828,9.836445808410645,1.0694583654403689,1.815165519714356,0.5612207055091858
4205571596.0,-0.5202836990356445,0.1617899686098098,9.915243148803713,0.9210750460624696,1.126654863357544,0.5019749402999878
4205579929.0,-0.4244067966938019,0.0636459961533546,9.934040069580078,0.883114755153656,0.4953152537345886,0.3843031823635101
4205588262.0,-0.415823221206665,0.2592907249927521,9.823599815368652,1.0145926475524902,1.0295257568359375,0.5214930772781372
4205596595.0,-0.5137819647789001,0.3483358323574066,9.659050941467283,0.95496267080307,1.8745136260986328,0.5130146741867065
4205604928.0,-0.5610697865486145,0.115312747657299,9.822808265686035,0.7888543605804443,1.6330225467681885,0.4093794822692871
4205613261.0,-0.5337735414505005,0.0268376916646957,10.042583465576172,0.6848093271255493,0.6919813752174377,0.4942394196987152
4205621594.0,-0.5394385457038879,0.1929480582475662,9.948409080505373,0.8930018544197083,0.607915461063385,0.3909116387367248
4205629927.0,-0.5476537346839905,0.3349156379699707,9.756175994873049,0.6472588777542114,1.4612280130386353,0.573720395565033
4205638260.0,-0.4974986612796783,0.2599754333496094,9.89074420928955,0.7057874202728271,1.4820010662078855,0.4710841774940491
4205646593.0,-0.3999796509742737,0.0361149609088897,9.946322441101074,0.4315614402294159,0.7517905235290527,0.5011041164398193
4205654926.0,-0.3884921669960022,0.0408429317176342,9.802813529968262,0.5370665192604065,0.6024852991104126,0.4975181221961975
4205663259.0,-0.4468331933021545,0.1790568828582763,9.689093589782717,0.7595004439353943,1.5371484756469729,0.5621171593666077
4205671592.0,-0.479604423046112,0.1733119189739227,9.796398162841797,0.6018449068069458,1.875615239143372,0.4481082856655121
4205679925.0,-0.5224796533584595,0.0112939421087503,9.98416805267334,0.4049482047557831,1.0147206783294678,0.5834025740623474
4205688258.0,-0.5120291113853455,0.0451201349496841,9.936514854431152,0.4897826313972473,0.7575283050537109,0.5076613426208496
4205696591.0,-0.5487086772918701,0.1237587034702301,9.688652992248535,0.5458009243011475,1.302138090133667,0.5330706834793091
4205704924.0,-0.5642083883285522,0.0521467067301273,9.740728378295898,0.4722112119197845,1.550647258758545,0.4936247169971466
4205713257.0,-0.4258230328559875,-0.0669792219996452,10.005274772644045,0.4765911698341369,0.7839108109474182,0.4907559156417846
4205721590.0,-0.3584933280944824,0.0011873719049617,9.831811904907228,0.5668303370475769,0.496006965637207,0.5621428489685059
4205729923.0,-0.4097148478031158,0.0971356108784675,9.533001899719238,0.6522024869918823,1.2319295406341553,0.6147032380104065
4205738256.0,-0.4837269484996795,0.050651479512453,9.62862777709961,0.5466718673706055,1.795109748840332,0.5808924436569214
4205746589.0,-0.5408622026443481,-0.1503026932477951,9.922988891601562,0.3416298031806946,1.2505508661270142,0.5451605319976807
4205754922.0,-0.5530577898025513,-0.2339122742414474,9.961886405944824,0.619672417640686,0.8013029098510742,0.6200822591781616
4205763255.0,-0.526063084602356,-0.0090127373114228,9.737930297851562,0.7844999432563782,0.9723803400993348,0.513270914554596
4205771588.0,-0.5572071671485901,0.0818305015563964,9.572466850280762,0.7065302729606628,1.398396372795105,0.6615772843360901
4205779921.0,-0.4962213337421417,-0.1216054856777191,9.759954452514648,0.5777930617332458,1.0372099876403809,0.6835286021232605
4205788254.0,-0.4087203443050384,-0.2608997225761413,9.833978652954102,0.7028674483299255,0.635066568851471,0.5308166146278381
4205796587.0,-0.4670089781284332,-0.169958546757698,9.575567245483398,0.8957682251930237,0.9218690395355223,0.5735411047935486
4205804920.0,-0.5426945686340332,-0.1364748030900955,9.55451488494873,0.8826025724411011,1.759044885635376,0.5744376182556152
4205813253.0,-0.5282549858093262,-0.17121322453022,9.787150382995604,0.9020437002182008,1.6101492643356323,0.5277172327041626
4205821586.0,-0.5047832727432251,-0.2447774410247802,9.872453689575195,0.9213823676109314,0.8391350507736206,0.4251834750175476
4205829919.0,-0.5492739677429199,-0.2330753803253173,9.755590438842772,1.0814456939697266,0.9522731900215148,0.5659593343734741
4205838252.0,-0.5561192035675049,-0.1383483707904815,9.599024772644045,1.17516827583313,1.4850493669509888,0.53532475233078
4205846585.0,-0.5272442698478699,-0.2250429689884185,9.673598289489746,1.1504504680633545,1.240458846092224,0.6080947518348694
4205854918.0,-0.4496919512748718,-0.3747874200344085,9.846796035766602,1.057573318481445,0.7850121855735779,0.4345839023590088
4205863251.0,-0.3910959959030151,-0.2203218638896942,9.717595100402832,1.3503183126449585,0.8191559910774231,0.4436256885528564
4205871584.0,-0.4578712284564972,-0.0660402551293373,9.417969703674316,1.498573660850525,1.5536953210830688,0.5993090271949768
4205879917.0,-0.5403485298156738,-0.2255443930625915,9.554250717163086,1.297194480895996,1.6047958135604858,0.5029482841491699
4205888250.0,-0.522304356098175,-0.3753251135349273,9.872809410095217,1.3164308071136477,1.2129236459732056,0.4439842998981476
4205896583.0,-0.5031681656837463,-0.3494622707366943,9.79898452758789,1.6833034753799438,0.8229981064796448,0.475182443857193
4205904916.0,-0.5452480912208557,-0.1429248750209808,9.605627059936523,1.8264613151550293,1.266611099243164,0.537194550037384
4205913249.0,-0.4981057047843933,-0.0575256645679473,9.665130615234377,1.7412430047988892,1.573572278022766,0.4242870211601257
4205921582.0,-0.415954053401947,-0.1789847165346145,9.730198860168455,1.623238205909729,0.8434640169143677,0.4972620010375976
4205929915.0,-0.3796485066413879,-0.3147396743297577,9.735939979553224,1.678795337677002,0.542829692363739,0.3469575643539428
4205938248.0,-0.3993735909461975,-0.1504943817853927,9.681899070739746,1.902817249298096,1.300908446311951,0.4135545790195465
4205946581.0,-0.4620510935783386,-0.0429881438612937,9.56838035583496,1.9403679370880127,1.7643983364105225,0.5017188191413879
4205954914.0,-0.5080792903900146,-0.0996859669685363,9.801639556884766,1.7996689081192017,1.2721951007843018,0.446289598941803
4205963247.0,-0.5029375553131104,-0.1197046414017677,10.001006126403809,1.8274602890014648,0.8754560947418213,0.5382959246635437
4205971580.0,-0.5106849074363708,0.0290506444871425,9.79951000213623,1.928252458572388,1.1808803081512451,0.4747470319271087
4205979913.0,-0.528529167175293,0.0397054143249988,9.65659999847412,1.9021259546279907,1.5938329696655271,0.5703650116920471
4205988246.0,-0.4689640700817108,-0.0406363457441329,9.90061092376709,1.883939743041992,1.3332338333129885,0.5973880290985107
4205996579.0,-0.3585785627365112,-0.1005916222929954,9.898123741149902,1.8233108520507808,0.5781260132789612,0.5796629190444946
4206004912.0,-0.3559373915195465,0.0409760102629661,9.731781959533691,1.9538922309875488,0.9172329306602478,0.63778156042099
4206013245.0,-0.4442816078662872,0.1873775273561477,9.689462661743164,1.937524676322937,1.737810492515564,0.630276620388031
4206021578.0,-0.5341854691505432,0.0989770740270614,9.789674758911133,1.7510274648666382,1.616552710533142,0.5325327515602112
4206029911.0,-0.5393393039703369,-0.1158194467425346,9.99752712249756,1.71457839012146,1.1144113540649414,0.4568938910961151
4206038244.0,-0.530811607837677,-0.0536814779043197,9.9973783493042,1.804843187332153,0.868104875087738,0.5762307047843933
4206046577.0,-0.5588853359222412,0.1683682054281234,9.74021816253662,2.00650405883789,1.3772902488708496,0.5876802206039429
4206054910.0,-0.5285082459449768,0.2092267423868179,9.772660255432127,1.8057396411895752,1.5017499923706057,0.4199581742286682
4206063243.0,-0.4093517363071441,0.0667089819908142,9.986720085144045,1.7019506692886353,0.8557843565940857,0.3850203454494476
4206071576.0,-0.3758536577224731,-0.0252125672996044,9.846035957336426,1.7654995918273926,0.7317602038383484,0.4968520402908325
4206079909.0,-0.45148366689682,0.170226976275444,9.64692497253418,1.9837586879730225,1.3679924011230469,0.5251046419143677
4206088242.0,-0.5636931657791138,0.2087408453226089,9.764440536499023,1.8141411542892456,1.8067127466201784,0.5325071811676025
4206096575.0,-0.5596351027488708,0.0703192502260208,10.025550842285156,1.6472387313842771,1.2949661016464231,0.5365798473358154
4206104908.0,-0.5441558957099915,0.0543658621609211,9.946983337402344,1.6717257499694824,0.6810952425003052,0.4913194179534912
4206113241.0,-0.5711122751235962,0.1898665577173233,9.762236595153809,1.769418478012085,1.2470673322677612,0.5955437421798706
4206121574.0,-0.6148361563682556,0.2269359230995178,9.714003562927246,1.7757965326309204,1.8059443235397337,0.4551777243614197
4206129907.0,-0.5072802305221558,0.086199402809143,9.882487297058104,1.4239081144332886,1.2325698137283323,0.4602749943733215
4206138240.0,-0.4394890964031219,0.0072745773941278,9.928504943847656,1.553208827972412,0.4204705059528351,0.4862734675407409
4206146573.0,-0.4234656691551208,0.1663201004266739,9.714680671691896,1.6877858638763428,1.054192066192627,0.6269724369049072
4206154906.0,-0.5155737400054932,0.2313379049301147,9.563647270202637,1.581102728843689,2.035319805145264,0.5497967004776001
4206163239.0,-0.5857546925544739,0.0691870152950286,9.830320358276367,1.361614227294922,1.7124526500701904,0.4983377158641815
4206171572.0,-0.6104782223701477,-0.1008309870958328,10.018927574157717,1.3865114450454712,0.842721164226532,0.5207502245903015
4206179905.0,-0.5631524920463562,-0.004480704665184,9.847977638244627,1.7004905939102173,0.8643651604652405,0.5054073333740234
4206188238.0,-0.5469862818717957,0.1894649118185043,9.680906295776367,1.7077395915985107,1.4835894107818604,0.4355829060077667
4206196571.0,-0.5444782376289368,0.1078697070479393,9.726070404052734,1.4576163291931152,1.4808998107910156,0.4866832792758941
4206204904.0,-0.4273468255996704,-0.0926652550697326,9.874029159545898,1.1876935958862305,0.940311312675476,0.5441615581512451
4206213237.0,-0.3616670072078705,-0.0851949229836463,9.76259994506836,1.5394283533096311,0.690239667892456,0.4116335809230804
4206221570.0,-0.4789065718650818,0.0249384399503469,9.589238166809082,1.7009259462356567,1.4654031991958618,0.5570198893547058
4206229903.0,-0.5443136096000671,0.0456586368381977,9.75574779510498,1.5534650087356567,1.954097270965576,0.5637308955192566
4206238236.0,-0.5468797087669373,-0.0341176316142082,9.942657470703123,1.3545191287994385,1.188667058944702,0.6437754034996033
4206246569.0,-0.5391949415206909,-0.0931780189275741,9.863715171813965,1.457565426826477,0.8016616106033325,0.3901945054531097
4206254902.0,-0.5511903166770935,-0.0059322766028344,9.708436965942385,1.5057713985443115,1.2680200338363647,0.5713639259338379
4206263235.0,-0.5054201483726501,0.0494099669158458,9.754414558410645,1.5590232610702517,1.7277952432632446,0.5667021870613098
4206271568.0,-0.4434763193130493,-0.087912917137146,9.825103759765623,1.479772925376892,0.9310647249221802,0.5469791889190674
4206279901.0,-0.361566424369812,-0.1530000418424606,9.879981994628906,1.4905821084976196,0.5931873321533203,0.4959044456481933
4206288234.0,-0.3644182085990906,0.0555330328643322,9.70619297027588,1.5803344249725342,1.2047783136367798,0.5220309495925903
4206296567.0,-0.4971238970756531,0.0771633386611938,9.624032974243164,1.6319981813430786,1.8304318189620967,0.5579677224159241
4206304900.0,-0.5481909513473511,-0.1284870952367782,9.84786319732666,1.4404549598693848,1.5110222101211548,0.554945170879364
4206313233.0,-0.5251039266586304,-0.2146823406219482,10.007091522216797,1.4285954236984253,0.8959987163543701,0.5403450727462769
4206321566.0,-0.5201990604400635,-0.0423902794718742,9.817424774169922,1.7025396823883057,1.0149767398834229,0.5790994167327881
4206329899.0,-0.5271902680397034,0.1075415685772895,9.74097728729248,1.761170744895935,1.4841015338897705,0.5663434863090515
4206338232.0,-0.4645867049694061,0.0739734321832656,9.816990852355955,1.497830867767334,1.3939651250839231,0.4461103677749634
4206346565.0,-0.4055843353271484,-0.1546848267316818,9.79160976409912,1.5127382278442385,0.7390090227127075,0.5303042531013489
4206354898.0,-0.3744125962257385,-0.1727817356586456,9.844602584838867,1.60254168510437,0.8816547393798828,0.3803073465824127
4206363231.0,-0.4584827423095703,0.0602033622562885,9.698296546936035,1.762118577957153,1.7463657855987549,0.511016845703125
4206371564.0,-0.5603585243225098,0.0915805101394653,9.680298805236816,1.5506473779678345,1.871465921401977,0.5500273108482361
4206379897.0,-0.5767353177070618,-0.0970882251858711,9.930913925170898,1.4075918197631836,1.0945602655410769,0.559504508972168
4206388230.0,-0.5257924795150757,-0.0862905606627464,9.95059585571289,1.6587138175964355,0.793567419052124,0.4051787555217743
4206396563.0,-0.5568495988845825,0.0651811733841896,9.66588306427002,1.6434731483459473,1.3957067728042605,0.4114798605442047
4206404896.0,-0.5784262418746948,0.0511580295860767,9.764564514160156,1.6610448360443115,1.7049477100372314,0.4378625750541687
4206413229.0,-0.454876184463501,-0.0858672186732292,9.941990852355955,1.518168568611145,1.022481918334961,0.4191129207611084
4206421562.0,-0.3821894228458404,-0.0878104493021965,9.790112495422363,1.5628653764724731,0.4549216032028198,0.4290256202220917
4206429895.0,-0.4206125736236572,0.0805857479572296,9.644466400146484,1.7170885801315308,1.2717596292495728,0.5589922666549683
4206438228.0,-0.5304489135742188,0.1291960179805755,9.658539772033691,1.667345643043518,1.97230875492096,0.5803288817405701
4206446561.0,-0.5858504176139832,-0.0791038125753402,9.81562614440918,1.5208066701889038,1.3993695974349976,0.5266414880752563
4206454894.0,-0.5724266767501831,-0.1909712105989456,10.00916576385498,1.565221905708313,0.6379353404045105,0.597874641418457
4206463227.0,-0.5544339418411255,0.0207251422107219,9.87658405303955,1.80053973197937,0.8288382291793823,0.6566849946975708
4206471560.0,-0.5510036945343018,0.2253967374563217,9.63108730316162,1.7770771980285645,1.597111463546753,0.5707491040229797
4206479893.0,-0.4914704263210296,0.1399234533309936,9.761271476745604,1.605308175086975,1.3462201356887815,0.516856849193573
4206488226.0,-0.41541588306427,-0.1042813807725906,9.910479545593262,1.4995981454849243,0.5627831816673279,0.4286413788795471
4206496559.0,-0.4131956100463867,-0.0587462745606899,9.717041015625,1.5907593965530396,0.9098048806190492,0.4792295694351196
4206504892.0,-0.4881346523761749,0.1392519026994705,9.652854919433594,1.7031288146972656,1.821108222007752,0.4871443510055542
4206513225.0,-0.535442590713501,0.1550002247095108,9.847245216369627,1.6677299737930298,1.6876065731048584,0.496160477399826
4206521558.0,-0.5403656363487244,-0.0075713312253355,9.910463333129885,1.4928104877471924,0.8600620031356812,0.438630998134613
4206529891.0,-0.5259537696838379,-0.0271169040352106,9.863757133483888,1.5530552864074707,0.7166223526000977,0.5024616718292236
4206538224.0,-0.5425721406936646,0.1302924156188964,9.721864700317385,1.6722638607025146,1.3980634212493896,0.5567381978034973
4206546557.0,-0.5478628873825073,0.1055087074637413,9.721792221069336,1.5721633434295654,1.6372747421264648,0.5161908864974976
4206554890.0,-0.4367268681526184,-0.0862966924905777,9.885436058044434,1.395937442779541,0.8909016251564026,0.500924825668335
4206563223.0,-0.3714306354522705,-0.0695118829607963,9.864716529846191,1.6070754528045654,0.5995651483535767,0.5343769192695618
4206571556.0,-0.43274986743927,0.1196028441190719,9.59975814819336,1.7091481685638428,1.358412504196167,0.4953408539295196
4206579889.0,-0.5306040048599243,0.1288642436265945,9.686731338500977,1.5112783908843994,2.009014129638672,0.5112729668617249
4206588222.0,-0.5596218109130859,-0.0924379453063011,9.940723419189451,1.44660222530365,1.478440761566162,0.5211344361305237
4206596555.0,-0.5471423864364624,-0.2009662687778473,9.95313835144043,1.448933243751526,0.5416770577430725,0.3980580270290375
4206604888.0,-0.507942259311676,0.0327400602400302,9.77868366241455,1.7520006895065308,1.0492231845855713,0.5668814778327942
4206613221.0,-0.5096556544303894,0.2136559337377548,9.73841667175293,1.8181880712509155,1.7325851917266846,0.5883205533027649
4206621554.0,-0.4763289988040924,0.0281548164784908,9.730224609375,1.4791836738586426,1.3421988487243652,0.405972808599472
4206629887.0,-0.4223251044750213,-0.1637427806854248,9.906428337097168,1.3352572917938232,0.626972496509552,0.4307161867618561
4206638220.0,-0.4358185529708862,-0.0716924667358398,9.760830879211426,1.5937817096710205,0.9357264041900636,0.6416237950325012
4206646553.0,-0.5287659168243408,0.0806873068213462,9.610397338867188,1.6810239553451538,1.732611060142517,0.561297595500946
4206654886.0,-0.546598494052887,0.0397415198385715,9.860821723937988,1.5506216287612915,1.7368371486663818,0.4623753726482391
4206663219.0,-0.519768476486206,-0.0878440663218498,9.9915132522583,1.3675310611724854,0.69059818983078,0.4844292104244232
4206671552.0,-0.5289726853370667,-0.0689102485775947,9.837151527404783,1.4713200330734253,0.7369855046272278,0.5277684926986694
4206679885.0,-0.550674319267273,0.068708561360836,9.71523094177246,1.5772862434387207,1.6999273300170898,0.501360297203064
4206688218.0,-0.5183033347129822,-0.0001866718521341,9.78662109375,1.5609443187713623,1.5736234188079834,0.5512567758560181
4206696551.0,-0.4539529383182525,-0.1723041832447052,9.89304542541504,1.465223789215088,0.8405182957649231,0.5090444684028625
4206704884.0,-0.3820103704929352,-0.0821996480226516,9.863606452941896,1.6108664274215698,0.6421616673469543,0.5681365132331848
4206713217.0,-0.436277836561203,0.1356661021709442,9.62450122833252,1.8168561458587649,1.6803580522537231,0.4160648584365845
4206721550.0,-0.5892341732978821,0.0498601570725441,9.668183326721191,1.679179549217224,1.9340922832489007,0.6339650750160217
4206729883.0,-0.5626775026321411,-0.1856745332479477,9.935609817504885,1.4060806035995483,1.234132170677185,0.4976205229759216
4206738216.0,-0.5581986904144287,-0.2025805115699768,9.961210250854492,1.7150907516479492,0.6563775539398193,0.5478244423866272
4206746549.0,-0.5540398955345154,0.04567626491189,9.728802680969238,1.831084966659546,1.108046293258667,0.5463004112243652
4206754882.0,-0.5366003513336182,0.1736075282096862,9.704930305480955,1.823771953582764,1.9095029830932613,0.4600445032119751
4206763215.0,-0.4475358426570892,0.0022180876694619,9.812664985656738,1.5893505811691284,1.0126715898513794,0.5056635141372681
4206771548.0,-0.3877198398113251,-0.1894287467002868,9.78923797607422,1.456822395324707,0.5365540981292725,0.4773340821266174
4206779881.0,-0.4020671844482422,-0.0268814265727996,9.715139389038086,1.7686502933502195,1.2504485845565796,0.4318176209926605
4206788214.0,-0.5096654891967773,0.1416117250919342,9.682634353637695,1.7818413972854614,1.904789686203003,0.5722091794013977
4206796547.0,-0.5641909241676331,0.0665566623210907,9.805974006652832,1.537097454071045,1.5433216094970703,0.4336617887020111
4206804880.0,-0.5336843132972717,-0.0672425404191017,10.00727367401123,1.578489899635315,0.7325798273086548,0.5324046611785889
4206813213.0,-0.5000659823417664,0.0210825335234403,9.819107055664062,1.6633244752883911,0.9108550548553468,0.543854296207428
4206821546.0,-0.5586609244346619,0.0976017564535141,9.635465621948242,1.768957495689392,1.67487633228302,0.6013326048851013
4206829879.0,-0.4894052147865295,0.0559900403022766,9.833439826965332,1.5910409688949585,1.505617380142212,0.4893727600574493
4206838212.0,-0.422319084405899,-0.0931748449802398,9.897049903869627,1.5514156818389893,0.8070148229598999,0.5245410799980164
4206846545.0,-0.3526831865310669,-0.0764444768428802,9.768099784851074,1.7321497201919556,0.5888071656227112,0.4797418117523193
4206854878.0,-0.4104769825935364,0.1341756284236908,9.61915397644043,1.751078724861145,1.5436034202575684,0.5382190942764282
4206863211.0,-0.5433534979820251,0.1224058121442794,9.755782127380373,1.6833546161651611,1.9830156564712524,0.5875520706176758
4206871544.0,-0.5947642922401428,-0.1043236181139946,9.956271171569824,1.487892508506775,1.1780625581741333,0.5334292650222778
4206879877.0,-0.5482098460197449,-0.1660734862089157,9.947416305541992,1.5975725650787354,0.7106285095214844,0.3957014977931976
4206888210.0,-0.5186029672622681,0.0992062464356422,9.74082851409912,1.8514609336853027,1.1170239448547363,0.5342744588851929
4206896543.0,-0.5293077230453491,0.2482527941465377,9.696438789367676,1.7585582733154297,1.6945738792419434,0.6920838952064514
4206904876.0,-0.4626170992851257,0.071003183722496,9.856293678283691,1.5409138202667236,1.3163540363311768,0.5285881161689758
4206913209.0,-0.4186694025993347,-0.1113023087382316,9.839418411254885,1.5890942811965942,0.6384987831115723,0.5892171263694763
4206921542.0,-0.4326533675193786,-0.0088305436074733,9.67685890197754,1.6020039319992063,1.0087013244628906,0.5763587355613708
4206929875.0,-0.5310861468315125,0.1456788033246994,9.703551292419434,1.7670109272003174,1.9136011600494385,0.517010509967804
4206938208.0,-0.5604325532913208,0.1271401047706604,9.885894775390623,1.6726737022399902,1.843315482139588,0.5860409140586853
4206946541.0,-0.564708411693573,-0.0181230697780847,9.91616439819336,1.5122517347335815,0.7739212512969971,0.6367058753967285
4206954874.0,-0.5164847373962402,-0.0165490489453077,9.821060180664062,1.5746991634368896,0.7368318438529968,0.4715452194213867
4206963207.0,-0.5258076786994934,0.1463768184185028,9.680190086364746,1.6241602897644043,1.487482666969299,0.5468511581420898
4206971540.0,-0.5436602830886841,0.0699249878525734,9.73809814453125,1.5347408056259155,1.5781569480895996,0.6369618773460388
4206979873.0,-0.4384026825428009,-0.0706541538238525,9.938861846923828,1.5211142301559448,0.9030681848526,0.5661898255348206
4206988206.0,-0.4001028537750244,-0.0370062813162803,9.786910057067873,1.6060510873794556,0.5938789248466492,0.4265666902065277
4206996539.0,-0.4196406602859497,0.1182096004486084,9.581661224365234,1.6387602090835571,1.4181959629058838,0.470008373260498
4207004872.0,-0.5453027486801147,0.1214489042758941,9.72628402709961,1.4744704961776731,1.9940810203552248,0.5435723662376404
4207013205.0,-0.5937319993972778,-0.0889668464660644,9.944912910461426,1.4557721614837646,1.3663527965545654,0.5668813586235046
4207021538.0,-0.5637206435203552,-0.203201338648796,9.911252975463867,1.6004414558410645,0.6447486877441406,0.3379926383495331
4207029871.0,-0.4944474995136261,0.0439567826688289,9.778413772583008,1.6428587436676023,1.0136961936950684,0.5129122734069824
4207038204.0,-0.4810466766357422,0.2030901312828064,9.657723426818848,1.7024372816085815,1.5450633764266968,0.5284344553947449
4207046537.0,-0.4909050464630127,0.0096342051401734,9.79847240447998,1.498727321624756,1.4040827751159668,0.5154992341995239
