SampleTimeFine,Acc_X,Acc_Y,Acc_Z,Gyr_X,Gyr_Y,Gyr_Z
3993191257.0,0.0,0.0,0.0,0.0,0.0,0.0
3993199590.0,-0.3854018151760101,-0.1087855324149131,9.971304893493652,2.554981470108032,0.4977229833602905,-0.033657107502222
3993207923.0,-0.357134997844696,-0.1720666587352752,9.770166397094728,2.684307813644409,0.3407590091228485,0.0365643166005611
3993216256.0,-0.401963323354721,0.0121858231723308,9.719645500183104,2.769270420074463,0.7436196804046631,0.094734251499176
3993224589.0,-0.4471759796142578,0.1285568475723266,9.923444747924805,2.792579174041748,1.1999629735946655,0.1283401250839233
3993232922.0,-0.4967695474624634,-0.0332769453525543,10.093354225158691,2.6995227336883545,1.0376455783843994,0.1219365671277046
3993241255.0,-0.4927184581756592,-0.1322090625762939,9.951430320739746,2.60085678100586,0.5895757079124451,0.0165852177888155
3993249588.0,-0.4822205007076263,-0.0162160992622375,9.846027374267578,2.654262065887451,0.5140649080276489,0.1164295002818107
3993257921.0,-0.4906294047832489,0.0840201899409294,9.894432067871094,2.758819818496704,0.8570906519889832,0.0006787772872485
3993266254.0,-0.421446293592453,-0.0245848782360553,10.034124374389648,2.658155918121338,0.6530989408493042,-0.0131144896149635
3993274587.0,-0.360488623380661,-0.1547736525535583,9.955476760864258,2.664558887481689,0.4602237641811371,0.0448889434337616
3993282920.0,-0.3404896855354309,-0.0541516207158565,9.743690490722656,2.66384220123291,0.3356873691082001,0.0601550377905368
3993291253.0,-0.4014213979244232,0.1262937486171722,9.797465324401855,2.7601001262664795,0.9119309186935424,0.0416359417140483
3993299586.0,-0.4668479859828949,0.0353543236851692,9.977174758911133,2.619965076446533,1.156623601913452,0.1070034727454185
3993307919.0,-0.5083757638931274,-0.2220291495323181,10.028202056884766,2.67641830444336,0.7722308039665222,0.0567739456892013
3993316252.0,-0.4899533987045288,-0.2144730389118194,9.86837100982666,2.7147634029388428,0.3546418845653534,-0.0200815610587596
3993324585.0,-0.4836076200008392,0.0382878705859184,9.828412055969238,2.831308126449585,0.4610690474510193,0.0226045623421669
3993332918.0,-0.4383105039596557,0.1817754656076431,9.9740629196167,2.890143871307373,0.977785050868988,0.077342189848423
3993341251.0,-0.394149512052536,-0.0177165661007165,10.050918579101562,2.7263665199279785,0.7002547383308411,-0.0028944083023816
3993349584.0,-0.3782278299331665,-0.1962943971157074,9.851445198059082,2.600677490234375,0.4289232194423675,0.1366903781890869
3993357917.0,-0.3949712812900543,-0.0562157742679119,9.712573051452637,2.7855613231658936,0.440321534872055,0.1507269740104675
3993366250.0,-0.4699931740760803,0.1406916677951812,9.843175888061523,2.8475985527038574,1.0938432216644287,0.1189397051930427
3993374583.0,-0.4963287711143493,0.0197181142866611,10.059365272521973,2.695014715194702,0.986596405506134,0.036820463836193
3993382916.0,-0.4981254041194916,-0.1063726097345352,10.01315689086914,2.5976550579071045,0.5972343683242798,-0.0295332111418247
3993391249.0,-0.46901336312294,-0.065923623740673,9.861275672912598,2.6111278533935547,0.5716968774795532,0.0984739139676094
3993399582.0,-0.4804334938526153,0.0850576758384704,9.82949924468994,2.6948866844177246,0.7658015489578247,0.1132789701223373
3993407915.0,-0.4478036761283874,0.0680028349161148,9.984089851379396,2.7233693599700928,0.7556838989257812,0.1036223918199539
3993416248.0,-0.3818510770797729,-0.1430213749408722,9.989972114562988,2.59865403175354,0.5480037927627563,0.0603599436581134
3993424581.0,-0.3637755811214447,-0.1214556917548179,9.799118995666504,2.64365816116333,0.3868902325630188,0.0929668620228767
3993432914.0,-0.4035466313362121,0.0815032795071601,9.7684907913208,2.8083062171936035,0.7014074325561523,0.1441441178321838
3993441247.0,-0.4762767553329468,0.1301583349704742,9.926095008850098,2.782589673995972,1.2017558813095093,0.0559030696749687
3993449580.0,-0.4965511560440063,-0.104989007115364,10.033092498779297,2.5936079025268555,0.8750718832015991,0.1208095327019691
3993457913.0,-0.4826985895633697,-0.2213073968887329,9.8971586227417,2.6929142475128174,0.479639321565628,0.0831822305917739
3993466246.0,-0.4567303359508514,-0.0240447632968425,9.800789833068848,2.8746471405029297,0.4763607084751129,0.0923265069723129
3993474579.0,-0.4540064632892608,0.1967734694480896,9.88869285583496,2.822547674179077,0.9230985641479492,0.1095392704010009
3993482912.0,-0.4095480144023895,0.0871698707342147,10.067095756530762,2.73461389541626,0.8669778108596802,0.0741916298866272
3993491245.0,-0.3730480968952179,-0.1465524286031723,9.963738441467283,2.5955543518066406,0.3834066689014435,0.0227070190012455
3993499578.0,-0.3786848485469818,-0.1206341385841369,9.724801063537598,2.681105852127075,0.3795645236968994,0.0273688081651926
3993507911.0,-0.4216238260269165,0.1089930459856987,9.760295867919922,2.773829698562622,0.8410561680793762,0.0488591566681861
3993516244.0,-0.4597517549991607,0.0986147746443748,10.005905151367188,2.737534284591675,1.0449711084365845,0.068146675825119
3993524577.0,-0.4762717187404632,-0.0604628324508667,10.062966346740724,2.588484764099121,0.7863442301750183,0.0358471237123012
3993532910.0,-0.4818275272846222,-0.1160605326294899,9.881892204284668,2.700316905975342,0.5165750980377197,-0.0156502984464168
3993541243.0,-0.5143958926200867,0.0516841076314449,9.807496070861816,2.722908496856689,0.6704654097557068,0.0346176400780677
3993549576.0,-0.4693616926670074,0.0962371900677681,9.922964096069336,2.7621750831604004,0.8164922595024109,0.0499093383550643
3993557909.0,-0.4042586982250213,-0.0569401420652866,10.012484550476074,2.557363510131836,0.7741262912750244,0.0052124965004622
3993566242.0,-0.3875410854816437,-0.1509415507316589,9.88282585144043,2.5921223163604736,0.3881965577602386,0.0106939440593123
3993574575.0,-0.3746609985828399,-0.0117701804265379,9.736405372619627,2.8147614002227783,0.5668814778327942,0.1081561148166656
3993582908.0,-0.4635892808437347,0.1394849121570587,9.836029052734377,2.7500340938568115,1.0173590183258057,0.1271362602710724
3993591241.0,-0.4952730238437652,-0.0384436175227165,10.025781631469728,2.595964193344116,1.1821866035461426,0.0772397220134735
3993599574.0,-0.5148923397064209,-0.2352906465530395,9.96075439453125,2.616839647293091,0.5688281059265137,0.0130504528060555
3993607907.0,-0.4979607760906219,-0.1219201236963272,9.824278831481934,2.7534663677215576,0.4150659143924713,0.0874341949820518
3993616240.0,-0.4702483713626861,0.1197938919067382,9.869093894958496,2.861199855804444,0.6559165120124817,0.0900468453764915
3993624573.0,-0.4137814939022064,0.1311365664005279,10.016847610473633,2.769040107727051,0.9524013996124268,-0.0282012745738029
3993632906.0,-0.3623849153518677,-0.0991869121789932,9.998871803283691,2.6140224933624268,0.5078663229942322,0.0870243683457374
3993641239.0,-0.405708909034729,-0.1941191405057907,9.788897514343262,2.7211668491363525,0.2648896276950836,0.0590280033648014
3993649572.0,-0.4450300931930542,0.0034299967810511,9.732171058654783,2.8031067848205566,0.8215382695198059,0.1071315333247184
3993657905.0,-0.4963741600513458,0.1384157687425613,9.968769073486328,2.7471396923065186,1.2346959114074707,0.047885812819004
3993666238.0,-0.5022621154785156,-0.030161740258336,10.119742393493652,2.752825736999512,0.801354169845581,0.027599336579442
3993674571.0,-0.4760846495628357,-0.1269817501306533,9.98705768585205,2.688175678253174,0.4375552237033844,0.130696639418602
3993682904.0,-0.4568150639533996,-0.0386355556547641,9.794000625610352,2.555289030075073,0.5594020485877991,0.1215523555874824
3993691237.0,-0.4464963972568512,0.0692263916134834,9.836520195007324,2.7285945415496826,0.7760984897613525,0.1040578261017799
3993699570.0,-0.3958666622638702,-0.0213351938873529,10.01169204711914,2.6965255737304688,0.8324754238128662,0.0096437595784664
3993707903.0,-0.3684596121311188,-0.1640777587890625,9.960658073425291,2.620912551879883,0.4240821003913879,-0.0036884497385472
3993716236.0,-0.3626907169818878,-0.0520934537053108,9.789603233337402,2.7447316646575928,0.3522597551345825,0.0767786651849746
3993724569.0,-0.4510170221328735,0.1275159269571304,9.80088710784912,2.806282758712769,1.0054996013641355,0.1936307996511459
3993732902.0,-0.5227933526039124,0.05660305544734,9.992338180541992,2.6815927028656006,0.9827796816825868,0.0808257237076759
3993741235.0,-0.5155208706855774,-0.2038945257663726,10.030354499816896,2.600472211837769,0.7385992407798767,0.1043652072548866
3993749568.0,-0.4759106338024139,-0.2236709743738174,9.86964511871338,2.6366398334503174,0.3551541864871979,0.0657901614904403
3993757901.0,-0.4471276402473449,0.0146786384284496,9.802053451538086,2.723472118377685,0.6189039945602417,0.1116140335798263
3993766234.0,-0.4160123169422149,0.1647717356681823,9.980929374694824,2.723113536834717,0.8854457139968872,0.150419607758522
3993774567.0,-0.3938370645046234,0.0023155366070568,10.060620307922363,2.709512710571289,0.6048929691314697,0.0663792937994003
3993782900.0,-0.3823210000991821,-0.184889331459999,9.861076354980469,2.610410451889038,0.2450897842645645,0.0513949580490589
3993791233.0,-0.4133103489875793,-0.0666693672537803,9.711612701416016,2.718656301498413,0.5633466243743896,0.0883050709962844
3993799566.0,-0.4582080543041229,0.1127530634403228,9.80093002319336,2.831026077270508,0.9008910655975342,0.0350274667143821
3993807899.0,-0.5071715712547302,0.0361923836171627,10.051116943359377,2.704005002975464,1.013670563697815,0.0978591814637184
3993816232.0,-0.5034639835357666,-0.1285437941551208,10.045490264892578,2.7234463691711426,0.6170597076416016,0.1503171473741531
3993824565.0,-0.4899112284183502,-0.075269266963005,9.875837326049805,2.662945508956909,0.4350449442863464,0.120502158999443
3993832898.0,-0.4788989424705505,0.0617064945399761,9.840943336486816,2.721064329147339,0.5956462621688843,0.0466819480061531
3993841231.0,-0.4356328845024109,0.066154696047306,9.988532066345217,2.7947566509246826,0.956755757331848,0.0313134007155895
3993849564.0,-0.3796536922454834,-0.1162992268800735,10.023364067077637,2.6894564628601074,0.5130146741867065,0.1532627642154693
3993857897.0,-0.3550735116004944,-0.1296739280223846,9.804485321044922,2.7070016860961914,0.3560762405395508,0.0984739139676094
3993866230.0,-0.3913957476615906,0.0765416920185089,9.721463203430176,2.8100736141204834,0.6452866792678833,0.2070526778697967
3993874563.0,-0.4756503999233246,0.1134614720940589,9.917329788208008,2.762866735458374,1.1868740320205688,0.0410980433225631
3993882896.0,-0.4953992068767547,-0.1083572059869766,10.058812141418455,2.646808624267578,0.9466894268989564,0.0536234006285667
3993891229.0,-0.4971819519996643,-0.2317463606595993,9.931306838989258,2.6146116256713867,0.4735175967216491,0.1106663048267364
3993899562.0,-0.4806108474731445,-0.0241380594670772,9.858652114868164,2.8190131187438965,0.3965467810630798,0.1645330488681793
3993907895.0,-0.464401513338089,0.1927979588508606,9.911641120910645,2.837352991104126,0.9114697575569152,0.0413029566407203
3993916228.0,-0.4130027890205383,0.1079022958874702,10.04465389251709,2.689994096755981,0.9060394167900084,0.0446840301156044
3993924561.0,-0.3661177456378937,-0.1632984727621078,9.933992385864258,2.692401647567749,0.4704950749874115,0.1026234254240989
3993932894.0,-0.392013818025589,-0.1454338282346725,9.70474624633789,2.806718349456787,0.5167543888092041,0.0450170189142227
3993941227.0,-0.4607142508029938,0.0701553970575332,9.78921604156494,2.757359743118286,0.8449495434761047,0.0411492697894573
3993949560.0,-0.487016886472702,0.1114156618714332,10.016571044921877,2.7408382892608643,1.0038858652114868,0.0343102701008319
3993957893.0,-0.5042673349380493,-0.0494107045233249,10.074045181274414,2.650625228881836,0.6871402859687805,0.1009841188788414
3993966226.0,-0.4798085987567901,-0.0983124151825904,9.91490364074707,2.701725482940674,0.3716497421264648,0.0824906453490257
3993974559.0,-0.4699001908302307,0.0103299720212817,9.804022789001465,2.634974956512451,0.7524822354316711,0.1130740344524383
3993982892.0,-0.4314318597316742,0.0808110982179641,9.910526275634766,2.775187015533448,0.9212799668312072,0.0944781005382537
3993991225.0,-0.4029066264629364,-0.0754811912775039,10.00804615020752,2.6937851905822754,0.6747430562973022,0.05116443708539
3993999558.0,-0.3558456003665924,-0.1525411009788513,9.896353721618652,2.681182861328125,0.3448573052883148,0.089329645037651
3994007891.0,-0.3888972401618957,0.0336699895560741,9.78419589996338,2.769833564758301,0.4882712960243225,-0.0225405264645814
3994016224.0,-0.4533520042896271,0.1626713573932647,9.830467224121094,2.7029805183410645,1.138053297996521,0.097270056605339
3994024557.0,-0.5170843601226807,-0.0290093421936035,10.030165672302246,2.675957679748535,1.0262727737426758,0.0890735015273094
3994032890.0,-0.4943639636039734,-0.2555072903633117,9.968949317932127,2.699958086013794,0.4905253648757934,0.0827980041503906
3994041223.0,-0.4310693740844726,-0.1698796600103378,9.817729949951172,2.794935703277588,0.3008008003234863,0.0478345826268196
3994049556.0,-0.4276040196418762,0.1045083627104759,9.833999633789062,2.851261138916016,0.7332459092140198,0.1256762444972992
3994057889.0,-0.3846981525421142,0.1541447937488556,10.0291166305542,2.840247392654419,0.811599850654602,0.1049543246626854
3994066222.0,-0.3500949144363403,-0.0652293264865875,10.059362411499023,2.712509155273437,0.6606295704841614,0.0639715492725372
3994074555.0,-0.3856076300144195,-0.1854884475469589,9.804515838623049,2.7068231105804443,0.3120198547840118,0.0808257237076759
3994082888.0,-0.4375683963298797,-0.0137711875140666,9.728432655334473,2.7289023399353027,0.6993070840835571,0.1101283952593803
3994091221.0,-0.5007776618003845,0.0996955633163452,9.934024810791016,2.8503646850585938,1.071840524673462,0.1643025130033493
3994099554.0,-0.5066983699798584,-0.0394604764878749,10.090639114379885,2.687355756759644,0.952580451965332,0.0526244454085826
3994107887.0,-0.4948802888393402,-0.1089000701904296,9.959250450134276,2.604647636413574,0.4872468113899231,-0.0656236708164215
3994116220.0,-0.4589928984642029,-0.0240078978240489,9.841790199279783,2.623499631881714,0.4039236605167389,-0.0659566596150398
3994124553.0,-0.4421047270298004,0.1098044514656066,9.8775634765625,2.709435224533081,0.8261231184005737,0.0187624283134937
3994132886.0,-0.4058174788951874,0.0033170520327985,10.033195495605469,2.573628664016724,0.8445398211479187,0.0686589628458023
3994141219.0,-0.3612874150276184,-0.1651770174503326,9.964435577392578,2.6005237102508545,0.4325348138809204,0.1284938156604766
3994149552.0,-0.3873794376850128,-0.0885202512145042,9.787763595581056,2.701315402984619,0.3352775275707245,0.103519931435585
3994157885.0,-0.4535852074623108,0.1066715568304061,9.76947021484375,2.7867648601531982,0.9647985696792604,0.2094091922044754
3994166218.0,-0.5520463585853577,0.0762116238474845,9.93649196624756,2.7401211261749268,1.2228875160217283,0.036333791911602
3994174551.0,-0.5225586295127869,-0.1811084002256393,10.054688453674316,2.6115376949310303,0.8356516361236572,0.0398685596883297
3994182884.0,-0.5054358243942261,-0.2446348071098327,9.893071174621582,2.683513879776001,0.3913214802742004,0.0372046791017055
3994191217.0,-0.4434346556663513,0.0144270751625299,9.80949592590332,2.886122703552246,0.5714920163154602,0.0507802218198776
3994199550.0,-0.3817200660705566,0.1783699840307235,9.935283660888672,2.80843448638916,0.923969566822052,0.0488079264760017
3994207883.0,-0.3533785939216614,0.0018108364893123,10.063183784484863,2.707924127578736,0.818413257598877,0.0645094588398933
3994216216.0,-0.3703812062740326,-0.1846208721399307,9.87766170501709,2.6562862396240234,0.3146068751811981,0.0796218588948249
3994224549.0,-0.4140509665012359,-0.0917452573776245,9.73705005645752,2.80843448638916,0.5777674913406372,0.1205789968371391
3994232882.0,-0.4979262948036194,0.1373684555292129,9.844614028930664,2.8591504096984863,1.0107249021530151,0.1621765345335006
3994241215.0,-0.4907943904399872,0.0820041596889495,10.065905570983888,2.702903985977173,0.9610333442687988,0.0628445297479629
3994249548.0,-0.4810744524002075,-0.0861611366271972,10.05571174621582,2.5384860038757324,0.6209530234336853,0.0672757849097251
3994257881.0,-0.4695224463939667,-0.0764410197734832,9.87985897064209,2.63407826423645,0.3538222312927246,0.0386134572327137
3994266214.0,-0.4471526741981506,0.0525011718273162,9.779667854309082,2.716094970703125,0.5946472883224487,0.1176589876413345
3994274547.0,-0.4027429819107055,0.0683197453618049,9.939855575561523,2.7541580200195312,0.8865471482276917,0.0189417265355587
3994282880.0,-0.361329048871994,-0.1040272042155265,10.013060569763184,2.616737365722656,0.6233351826667786,0.0762663856148719
3994291213.0,-0.3539711236953735,-0.1297919154167175,9.837115287780762,2.710408926010132,0.4389639794826507,-0.0363978259265422
3994299546.0,-0.40653857588768,0.0836992561817169,9.771577835083008,2.690736770629883,0.7074779868125916,0.1422998756170272
3994307879.0,-0.495631068944931,0.1303403377532959,9.879668235778809,2.780463695526123,1.0485316514968872,-0.0382164381444454
3994316212.0,-0.5134538412094116,-0.0797755271196365,10.058062553405762,2.671013832092285,1.0070363283157349,0.1101796329021453
3994324545.0,-0.5197460055351257,-0.2537952959537506,9.928790092468262,2.7417097091674805,0.5360163450241089,-0.0943372324109077
3994332878.0,-0.4439863264560699,-0.0913118720054626,9.784229278564451,2.792579174041748,0.3143762946128845,-0.0132937878370285
3994341211.0,-0.435335099697113,0.18514284491539,9.881144523620604,2.8667068481445312,0.7349876761436462,0.063100665807724
3994349544.0,-0.4029584228992462,0.1163266226649284,10.04562759399414,2.776442050933838,0.8402365446090698,0.0459391288459301
3994357877.0,-0.3591355979442596,-0.1164155304431915,10.034581184387209,2.591148614883423,0.4803053140640259,0.0323379710316658
3994366210.0,-0.3842110633850097,-0.1630667597055435,9.775047302246094,2.704594373703003,0.447800874710083,0.1185554936528205
3994374543.0,-0.4562958776950836,0.0340284183621406,9.752115249633787,2.866117477416992,0.7939260005950928,0.0619992613792419
3994382876.0,-0.5014362931251526,0.0968569964170456,9.973747253417969,2.7496497631073,1.1251437664031982,0.1601017862558365
3994391209.0,-0.5033799409866333,-0.0339908711612224,10.10421657562256,2.642786741256714,0.866516649723053,0.0930949226021766
3994399542.0,-0.4915308356285095,-0.1389466822147369,9.950937271118164,2.654646396636963,0.4204448461532593,0.0966809317469596
3994407875.0,-0.4782703518867492,-0.0010103737004101,9.788636207580566,2.7064898014068604,0.6255893111228943,0.1296464502811432
3994416208.0,-0.4605831801891327,0.0825211182236671,9.862041473388672,2.6870741844177246,0.907909333705902,0.1017781645059585
3994424541.0,-0.397554486989975,-0.0477978587150573,10.01682472229004,2.630082607269287,0.7560169696807861,0.0682491287589073
3994432874.0,-0.3647409379482269,-0.1667006909847259,9.916863441467283,2.704978704452514,0.3587145805358886,0.0655340179800987
3994441207.0,-0.3648824095726013,-0.0316253937780857,9.758134841918944,2.7032623291015625,0.390040785074234,0.0956051349639892
3994449540.0,-0.4483130574226379,0.1409597545862198,9.782112121582031,2.7624568939208984,0.9992240071296692,0.1453735828399658
3994457873.0,-0.4981119930744171,0.0038682559970766,9.974501609802246,2.6558756828308105,1.2154593467712402,0.1657625138759613
3994466206.0,-0.5012360215187073,-0.2059153020381927,10.025276184082031,2.631337404251098,0.8200013041496277,0.0806464105844497
3994474539.0,-0.4777654111385345,-0.195916011929512,9.896849632263184,2.700111627578736,0.364554613828659,-0.0413413755595684
3994482872.0,-0.4556328654289245,0.0824300870299339,9.834768295288086,2.797112941741944,0.620901882648468,0.0723986402153968
3994491205.0,-0.4174405336380005,0.1969619393348693,9.999683380126951,2.823264837265014,0.7793514132499695,0.0080812908709049
3994499538.0,-0.3861590921878814,-0.0316720269620418,10.02999210357666,2.653519630432129,0.7362940311431885,0.0065956655889749
3994507871.0,-0.4002536535263061,-0.1937797218561172,9.81595230102539,2.562537908554077,0.4227757453918457,0.0198382250964641
3994516204.0,-0.4129501581192016,-0.0629203766584396,9.72817325592041,2.759255170822144,0.4679592549800873,0.0700933560729026
3994524537.0,-0.478773683309555,0.1309105306863784,9.849204063415527,2.745884418487549,1.037876009941101,0.0715021342039108
3994532870.0,-0.489454835653305,0.0583255290985107,10.083536148071287,2.6388168334960938,1.105164647102356,-0.0237443950027227
3994541203.0,-0.4961132407188415,-0.1070158407092094,10.039314270019531,2.630671501159668,0.6066091656684875,0.0263954680413007
3994549536.0,-0.4732043445110321,-0.067757524549961,9.86846923828125,2.6446568965911865,0.433431327342987,-0.0041495063342154
3994557869.0,-0.4738840460777282,0.078625775873661,9.822673797607422,2.6429922580718994,0.8700771927833557,0.0792632550001144
3994566202.0,-0.4268395900726318,0.0331293419003486,9.987332344055176,2.726853132247925,0.986596405506134,0.033541839569807
3994574535.0,-0.359437346458435,-0.1337699145078659,10.00912857055664,2.6529812812805176,0.4006450176239013,0.0930436998605728
3994582868.0,-0.359096348285675,-0.1181960627436637,9.812252044677734,2.741478681564331,0.3568446934223175,0.1031613275408744
3994591201.0,-0.3839182555675506,0.1109634265303611,9.753411293029783,2.8325634002685547,0.6805830597877502,0.0550578013062477
3994599534.0,-0.487221211194992,0.1435727179050445,9.909250259399414,2.701315402984619,1.201935052871704,0.104006603360176
3994607867.0,-0.5059536695480347,-0.1325557082891464,10.03614616394043,2.7193994522094727,0.9829590916633606,0.032363586127758
3994616200.0,-0.4953966736793518,-0.2828643321990967,9.919429779052734,2.628801822662353,0.4442660808563232,0.1063631102442741
3994624533.0,-0.4793759286403656,-0.0833036080002784,9.811903953552246,2.7390453815460205,0.3096376955509186,0.0601550377905368
3994632866.0,-0.4762598574161529,0.1685110628604889,9.882830619812012,2.889247417449951,0.8548367023468018,0.1039553731679916
3994641199.0,-0.4207279086112976,0.1206450164318084,10.042887687683104,2.783127546310425,0.8972025513648987,0.0362569503486156
3994649532.0,-0.3698723614215851,-0.1428404450416565,9.993083000183104,2.590585470199585,0.4955202043056488,0.0841299593448638
3994657865.0,-0.3657278716564178,-0.1619805842638015,9.75333023071289,2.6924021244049072,0.5012578368186951,0.1576684415340423
3994666198.0,-0.4298311173915863,0.0493939295411109,9.738410949707031,2.78118109703064,0.8718957901000977,0.0977567359805107
3994674531.0,-0.4670675992965698,0.1006065085530281,9.971514701843262,2.7168376445770264,1.1348258256912231,0.1193751394748687
3994682864.0,-0.4752051532268524,-0.0446844696998596,10.072211265563965,2.5999858379364014,0.776252269744873,0.0474759861826896
3994691197.0,-0.4946095645427704,-0.1059946492314338,9.909679412841797,2.6966025829315186,0.4702644944190979,0.0856411904096603
3994699530.0,-0.4940796494483948,0.035298254340887,9.812898635864258,2.6686577796936035,0.593853235244751,0.0961942672729492
3994707863.0,-0.4827682673931122,0.1124044135212898,9.910444259643556,2.5350537300109863,0.9265052676200868,0.0152532765641808
3994716196.0,-0.4241380393505096,-0.0494835525751113,10.034850120544434,2.607875108718872,0.7644184827804565,0.1331043839454651
3994724529.0,-0.361904889345169,-0.1907025873661041,9.915163040161133,2.681336164474488,0.3729048371315002,0.0311597175896167
3994732862.0,-0.3422268033027649,-0.0248496532440185,9.770479202270508,2.7260591983795166,0.4055117666721344,0.0987300723791122
3994741195.0,-0.4119872450828552,0.1465301513671875,9.80401611328125,2.755566358566284,0.9844703674316406,0.1250871121883392
3994749528.0,-0.4816589057445526,0.0063390047289431,9.990060806274414,2.612434148788452,1.1184839010238647,0.1283657550811767
3994757861.0,-0.5074026584625244,-0.239838495850563,10.036653518676758,2.654595375061035,0.7567085027694702,0.0749856755137443
3994766194.0,-0.495013952255249,-0.1848796904087066,9.85254955291748,2.7266995906829834,0.3915776312351227,0.0648936703801155
3994774527.0,-0.4778503477573395,0.1007411405444145,9.808192253112791,2.830027341842652,0.8244582414627075,-0.000665970146656
3994782860.0,-0.4550779163837433,0.1457900702953338,9.9849214553833,2.7176315784454346,0.9402599930763244,0.0586950108408927
3994791193.0,-0.4037934839725494,-0.0683535039424896,10.030732154846191,2.6382789611816406,0.7646490335464478,0.1390981078147888
3994799526.0,-0.3700017929077148,-0.1806201934814453,9.84179973602295,2.713533639907837,0.4830204844474792,0.0820552036166191
3994807859.0,-0.3842621147632599,-0.0038303667679429,9.736910820007324,2.7064640522003174,0.6320696473121643,0.1016244664788246
3994816192.0,-0.4597275555133819,0.1278414726257324,9.87354850769043,2.8341000080108643,1.199066400527954,0.0895345658063888
3994824525.0,-0.4852913320064544,0.0203094594180583,10.08250331878662,2.7728817462921143,0.971432626247406,0.0650985762476921
3994832858.0,-0.4914878904819488,-0.1254041790962219,9.976839065551758,2.659538984298706,0.5584287643432617,0.0196333099156618
3994841191.0,-0.4844268560409546,-0.0485771521925926,9.814945220947266,2.7457051277160645,0.5595557689666748,0.0151508208364248
3994849524.0,-0.492100179195404,0.0895617753267288,9.847823143005373,2.723958730697632,0.8142892718315125,-0.0009477267740294
3994857857.0,-0.4421041011810303,0.0211516879498958,10.01168441772461,2.7352802753448486,0.8298372626304626,0.1064655780792236
3994866190.0,-0.3719561100006103,-0.1344432830810547,9.939908027648926,2.6524689197540283,0.4327396750450134,0.0415334813296794
3994874523.0,-0.356823593378067,-0.0767254680395126,9.795695304870604,2.739429712295532,0.3051039576530456,0.065687708556652
3994882856.0,-0.38432776927948,0.1190943494439125,9.754563331604004,2.739480972290039,0.9070641994476318,0.075728490948677
3994891189.0,-0.4655303359031677,0.0583880618214607,9.930292129516602,2.696653366088867,1.1107227802276611,0.1192214488983154
3994899522.0,-0.4862314164638519,-0.1698335409164428,10.0137300491333,2.618479490280152,0.9338310360908508,0.100394994020462
3994907855.0,-0.5079532861709595,-0.239837110042572,9.875242233276367,2.7004191875457764,0.5372202396392822,0.0556981600821018
3994916188.0,-0.4862549006938934,0.0206648372113704,9.81312656402588,2.845728874206543,0.6403943300247192,-0.0097077954560518
3994924521.0,-0.4437913298606872,0.1649814695119857,9.942268371582031,2.8360207080841064,1.0537312030792236,0.0419176965951919
3994932854.0,-0.4197952449321747,0.0333490818738937,10.042190551757812,2.6562604904174805,0.8081675171852112,0.0556469298899173
3994941187.0,-0.3910506069660187,-0.1844353824853897,9.847830772399902,2.6587958335876465,0.378155767917633,0.0569532476365566
3994949520.0,-0.4100142121315002,-0.0837795585393905,9.72856616973877,2.7565910816192627,0.597080647945404,0.0558006167411804
3994957853.0,-0.4766827821731567,0.0996159389615058,9.838875770568848,2.8446273803710938,0.9764787554740906,0.1069266200065612
3994966186.0,-0.4747451543807983,0.0692377388477325,10.086437225341797,2.7451417446136475,1.1029361486434937,0.0642020851373672
3994974519.0,-0.5008395314216614,-0.0964598059654235,10.047966003417969,2.608105421066284,0.6621663570404053,0.099729023873806
3994982852.0,-0.4997426867485046,-0.0779461488127708,9.849449157714844,2.715557336807251,0.4752081334590912,0.0699909031391143
3994991185.0,-0.4868015646934509,0.056374792009592,9.811721801757812,2.724547863006592,0.7067351937294006,0.0796730741858482
3994999518.0,-0.4449235498905182,0.0407162420451641,9.988154411315918,2.6431713104248047,0.8706918954849243,-0.0004354420234449
3995007851.0,-0.3395452499389648,-0.1512181013822555,9.997325897216797,2.6258559226989746,0.4844804108142853,0.0510363653302192
3995016184.0,-0.3169461488723755,-0.1174359023571014,9.822989463806152,2.6833858489990234,0.4125556647777557,0.0146129196509718
3995024517.0,-0.3760681450366974,0.074640654027462,9.77773380279541,2.796549320220948,0.7149829268455505,0.0418664701282978
3995032850.0,-0.4707246720790863,0.1501729637384414,9.899312019348145,2.639892816543579,1.2237584590911863,0.1194007694721221
3995041183.0,-0.5138019323348999,-0.0924093201756477,10.044669151306152,2.672371625900269,0.984521508216858,0.0920191407203674
3995049516.0,-0.5223243236541748,-0.2431783676147461,9.92160987854004,2.7771337032318115,0.449286550283432,0.0271895118057727
3995057849.0,-0.5001649856567383,-0.073473110795021,9.825169563293455,2.824289560317993,0.3648619651794433,0.0266003813594579
3995066182.0,-0.4551559090614319,0.1590261459350586,9.920454025268556,2.895087480545044,0.7731530070304871,0.0102072730660438
3995074515.0,-0.3801117241382599,0.0981075465679168,10.057381629943848,2.7566680908203125,0.8774027824401855,0.0584132596850395
3995082848.0,-0.3550765216350555,-0.1232023313641548,9.968439102172852,2.7828969955444336,0.4638866484165191,0.047552827745676
3995091181.0,-0.3663876354694366,-0.1157403215765953,9.74082851409912,2.7456796169281006,0.5270001292228699,0.1277766227722168
3995099514.0,-0.4397618174552917,0.0517512820661067,9.7732572555542,2.7642242908477783,0.9041441679000854,0.0123332543298602
3995107847.0,-0.4566479921340942,0.0952809751033783,10.037920951843262,2.741811752319336,1.0763486623764038,0.0871780514717102
3995116180.0,-0.4821352958679199,-0.0533729568123817,10.079793930053713,2.671910762786865,0.8050426244735718,0.0189161133021116
3995124513.0,-0.4786845445632934,-0.0634006634354591,9.91142749786377,2.6398160457611084,0.4450089335441589,0.05377709120512
3995132846.0,-0.4877720475196838,0.0504749938845634,9.853947639465332,2.726494312286377,0.6820686459541321,-0.0511260107159614
3995141179.0,-0.4617501199245453,0.091483823955059,9.956924438476562,2.699676275253296,0.83788001537323,0.051190048456192
3995149512.0,-0.3940861225128174,-0.0614809207618236,10.05388069152832,2.681208610534668,0.7394189834594727,0.102674663066864
3995157845.0,-0.3546541035175323,-0.1428200751543045,9.893798828125,2.5640745162963867,0.3343041837215423,-0.057632029056549
3995166178.0,-0.3612529337406158,0.0234207920730114,9.750513076782228,2.768681287765503,0.5398072004318237,0.1251383572816848
3995174511.0,-0.4532928466796875,0.1410408765077591,9.844337463378906,2.7182722091674805,0.990233600139618,0.1513417065143585
3995182844.0,-0.5028358101844788,-0.011149687692523,10.043466567993164,2.689481973648072,1.229291319847107,0.0590536147356033
3995191177.0,-0.518840491771698,-0.2073064893484115,10.016304969787598,2.6899173259735107,0.5262572169303894,0.045862291008234
3995199510.0,-0.477282702922821,-0.1170559003949165,9.82966423034668,2.644221305847168,0.4506696462631225,0.0234242193400859
3995207843.0,-0.4600198864936828,0.1282881945371627,9.874685287475586,2.7783377170562744,0.7958726286888123,0.0336699150502681
3995216176.0,-0.4218475818634033,0.114407829940319,10.0507173538208,2.675214529037476,0.9387745261192322,0.0359239652752876
3995224509.0,-0.3762404322624206,-0.1022667214274406,10.00742530822754,2.5927114486694336,0.4868882298469543,0.0100535871461033
3995232842.0,-0.3848506808280945,-0.1581738889217376,9.7515230178833,2.644861936569214,0.3549492359161377,0.0262930113822221
3995241175.0,-0.4108205437660217,0.0323340855538845,9.727333068847656,2.754183769226074,0.6573766469955444,0.1230636015534401
3995249508.0,-0.4665988087654114,0.0937095433473587,9.937701225280762,2.654876947402954,1.1011176109313965,0.1363829970359802
3995257841.0,-0.459184855222702,-0.0412820912897586,10.057745933532717,2.5944020748138428,0.9580108523368835,0.083668902516365
3995266174.0,-0.4777650535106659,-0.1174324303865432,9.91443920135498,2.566917896270752,0.4635279774665832,0.0354116819798946
3995274507.0,-0.4864735603332519,-0.0319074690341949,9.830632209777832,2.580262422561645,0.6009995341300964,0.0585413314402103
3995282840.0,-0.467839628458023,0.0691408663988113,9.875625610351562,2.6245241165161133,0.916925609111786,0.0226045623421669
3995291173.0,-0.4245763123035431,-0.043733112514019,10.032181739807127,2.725623846054077,0.7483839392662048,0.1701681762933731
3995299506.0,-0.3574820458889007,-0.1875711232423782,9.903228759765623,2.6028549671173096,0.2613036334514618,-0.0290721599012613
3995307839.0,-0.3460373878479004,-0.0476436354219913,9.762255668640137,2.755924940109253,0.5003612637519836,0.1674530506134033
3995316172.0,-0.4278323650360107,0.1118384376168251,9.817773818969728,2.8394534587860107,1.012645959854126,0.1362805366516113
3995324505.0,-0.4868734180927276,-0.0150837935507297,9.989635467529297,2.643914222717285,1.1290626525878906,0.0914043933153152
3995332838.0,-0.52241051197052,-0.2371687442064285,9.981678009033203,2.65057373046875,0.7010487914085388,0.0205041952431201
3995341171.0,-0.4826774895191192,-0.1877849102020263,9.836556434631348,2.7913498878479004,0.388836920261383,-0.0519200563430786
3995349504.0,-0.4834371507167816,0.0563237592577934,9.837763786315918,2.840580463409424,0.7483583688735962,0.0490384586155414
3995357837.0,-0.430337131023407,0.1171870008111,10.024069786071776,2.837685823440552,0.8959987163543701,0.0590792298316955
3995366170.0,-0.3803617060184479,-0.0703406408429145,9.992783546447754,2.6345648765563965,0.6177000999450684,0.077009193599224
3995374503.0,-0.4009938538074493,-0.1720295846462249,9.782529830932615,2.723318338394165,0.4012085795402527,0.1012402698397636
3995382836.0,-0.4345733225345611,0.0124209569767117,9.709146499633787,2.782615423202514,0.5864763259887695,0.0472454577684402
3995391169.0,-0.4578427076339721,0.1196991503238678,9.907511711120604,2.919036865234375,1.03772234916687,0.0995753407478332
3995399502.0,-0.4924325346946716,0.0144596882164478,10.09516716003418,2.779592752456665,0.9151582717895508,0.1424023509025573
3995407835.0,-0.4949570596218109,-0.1145130842924118,9.976238250732422,2.6533403396606445,0.4864784181118011,0.0747295320034027
3995416168.0,-0.5244130492210388,-0.0229080840945243,9.852498054504396,2.7274417877197266,0.6004104018211365,0.1666846126317978
3995424501.0,-0.5265457630157471,0.0969742387533187,9.869054794311523,2.690788507461548,0.8914394974708557,0.1344875395298004
3995432834.0,-0.452677458524704,-0.0050479564815759,10.05147933959961,2.691428899765014,0.7826045155525208,-0.0068902298808097
3995441167.0,-0.370313286781311,-0.1264943331480026,9.94864273071289,2.6611270904541016,0.3875818252563476,-0.0525091849267482
3995449500.0,-0.3355374336242676,-0.0370708107948303,9.75549030303955,2.894395589828491,0.3314098119735718,0.0341053567826747
3995457833.0,-0.369106113910675,0.1497924476861953,9.783483505249023,2.854130268096924,0.8659788370132446,0.1222439408302307
3995466166.0,-0.4444284737110138,0.0628197789192199,9.969744682312012,2.678800582885742,1.1779602766036987,0.0237315893173217
3995474499.0,-0.4859907925128937,-0.1569696962833404,10.026715278625488,2.671705484390259,0.6841946840286255,0.0628189146518707
3995482832.0,-0.4803058803081512,-0.1557164043188095,9.888936042785645,2.7485995292663574,0.4797418117523193,0.0351043082773685
3995491165.0,-0.4747280776500702,0.085526593029499,9.840880393981934,2.859201431274414,0.6174439191818237,0.107336439192295
3995499498.0,-0.4462679326534271,0.2051145285367965,9.97795581817627,2.74537205696106,0.975197970867157,0.0258063431829214
3995507831.0,-0.391858696937561,0.0031246356666088,10.009329795837402,2.634155035018921,0.739162802696228,0.0052124969661235
3995516164.0,-0.3723465800285339,-0.1338658183813095,9.827298164367676,2.6126904487609863,0.2908880710601806,0.0486030168831348
3995524497.0,-0.3959350883960724,-0.0056861969642341,9.729276657104492,2.794832944869995,0.7434147000312805,-0.0580674670636653
3995532830.0,-0.4548045098781585,0.1323017328977584,9.892644882202148,2.770141124725342,1.1562906503677368,0.1682727336883545
3995541163.0,-0.45996955037117,0.0213045701384544,10.115673065185549,2.6176598072052,1.0567024946212769,0.0359495803713798
3995549496.0,-0.4717735350131988,-0.0856196880340576,9.989344596862791,2.626624584197998,0.5139880776405334,0.0473991446197032
3995557829.0,-0.490395188331604,-0.0118124326691031,9.834894180297852,2.6972687244415283,0.6188271641731262,0.1043139696121215
3995566162.0,-0.4992188811302185,0.0901635438203811,9.855260848999023,2.7144558429718018,0.8313740491867065,0.1174284592270851
3995574495.0,-0.4351121485233307,0.003984663169831,10.009249687194824,2.574525117874145,0.9906691312789916,0.0170206613838672
3995582828.0,-0.379689484834671,-0.1370287239551544,9.924835205078123,2.633796453475952,0.5233116745948792,0.0824650302529335
3995591161.0,-0.368254005908966,-0.0771269053220748,9.774941444396973,2.640430688858032,0.4833533763885498,0.0563641302287578
3995599494.0,-0.417208582162857,0.0871404185891151,9.783324241638184,2.7353055477142334,0.7640342116355896,0.2178362309932708
3995607827.0,-0.4932662546634674,0.0535800084471702,9.96748161315918,2.5603349208831787,0.9566275477409364,0.1446051448583603
3995616160.0,-0.5285294055938721,-0.1836200803518295,10.03354263305664,2.596323013305664,0.686781644821167,0.0962454825639724
3995624493.0,-0.5003913044929504,-0.224855288863182,9.862882614135742,2.60211181640625,0.4421145617961883,0.0865377038717269
3995632826.0,-0.4893173277378082,-0.0009720445377752,9.843080520629885,2.858715295791626,0.4739274084568023,0.1032125651836395
3995641159.0,-0.4156010746955871,0.143215000629425,9.989891052246094,2.813352584838867,0.7926197648048401,0.0948367118835449
3995649492.0,-0.3866128325462341,-0.0576749294996261,10.03958225250244,2.6678380966186523,0.6448256373405457,0.0746270790696144
3995657825.0,-0.3883221745491028,-0.2024811953306198,9.85935878753662,2.6100523471832275,0.3711374700069427,0.0283421538770198
3995666158.0,-0.3984389901161194,-0.080739602446556,9.741178512573242,2.710383176803589,0.4544605612754822,0.1304404884576797
3995674491.0,-0.4396710097789764,0.0536252632737159,9.918404579162598,2.7907862663269043,1.071558713912964,0.1141498312354087
3995682824.0,-0.4782888889312744,-0.0289316363632679,10.070974349975586,2.7066946029663086,1.0321897268295288,0.0506265349686145
3995691157.0,-0.4811867177486419,-0.1535525470972061,9.997364044189451,2.723984479904175,0.6288679242134094,0.0036756431218236
3995699490.0,-0.4896391034126282,-0.0803773775696754,9.851310729980469,2.657335996627808,0.4746445715427398,0.0103353438898921
3995707823.0,-0.5135899186134338,0.0542314611375331,9.852800369262695,2.789479970932007,0.9862120747566224,0.0035988001618534
3995716156.0,-0.4602528512477875,0.0220024790614843,10.015585899353027,2.679389953613281,0.9317818880081176,-0.0055582891218364
3995724489.0,-0.3646703958511352,-0.1615614742040634,9.995245933532717,2.721294641494751,0.487605333328247,0.0470917709171772
3995732822.0,-0.344876080751419,-0.1209992915391922,9.80792236328125,2.7904531955718994,0.4738505184650421,0.0031377435661852
3995741155.0,-0.3897832036018371,0.0744843110442161,9.741377830505373,2.740403175354004,0.9412078857421876,0.0876647233963012
3995749488.0,-0.4534696340560913,0.044952031224966,9.908626556396484,2.712560176849365,1.228932499885559,0.0980384796857833
3995757821.0,-0.4834869503974914,-0.1622617244720459,10.0435791015625,2.675650119781494,0.8596264719963074,0.0803134366869926
3995766154.0,-0.4990015923976898,-0.2082273066043853,9.837017059326172,2.774777412414551,0.4574318528175354,0.0772909522056579
3995774487.0,-0.4943348169326782,0.0236512832343578,9.803329467773438,2.9503629207611084,0.4875541627407074,-0.0118337776511907
3995782820.0,-0.4726120233535766,0.2058148682117462,9.940823554992676,2.840426683425904,0.7975119948387146,0.0222715772688388
3995791153.0,-0.4158008396625519,0.0160562880337238,10.029550552368164,2.7310538291931152,0.7197216153144836,-0.0028431799728423
3995799486.0,-0.3801789581775665,-0.1513378620147705,9.85855484008789,2.623781442642212,0.4080988466739654,0.0601550377905368
3995807819.0,-0.4050782024860382,-0.0463941544294357,9.70781135559082,2.75769305229187,0.5520508885383606,0.1321566551923751
3995816152.0,-0.4289117753505707,0.1256586760282516,9.811556816101074,2.8481876850128174,0.9981482625007628,0.1225769072771072
3995824485.0,-0.4647717177867889,0.0955445691943168,10.030330657958984,2.748112916946411,1.0989147424697876,-0.0034323071595281
3995832818.0,-0.4752150475978851,-0.0621454901993274,10.02003288269043,2.6126902103424072,0.5086858868598938,0.0199919082224369
3995841151.0,-0.4914572834968567,-0.0152179691940546,9.86241054534912,2.7140462398529053,0.3713680207729339,0.0270358268171548
3995849484.0,-0.5149567127227783,0.1050093546509742,9.866403579711914,2.7486250400543213,0.875968337059021,0.1310808360576629
3995857817.0,-0.4495401382446289,0.0912201181054115,10.01809024810791,2.7497265338897705,0.8148528337478638,0.0876134932041168
3995866150.0,-0.3912873864173889,-0.0712693110108375,10.030664443969728,2.6458609104156494,0.6128333806991577,0.0730389952659607
3995874483.0,-0.3391246497631073,-0.0461998172104358,9.828620910644531,2.7399418354034424,0.4111469089984894,0.030211990699172
3995882816.0,-0.3780220150947571,0.1222887858748436,9.808771133422852,2.6671464443206787,0.6328381299972534,0.0906359776854515
3995891149.0,-0.4665115773677826,0.1460497379302978,9.94072723388672,2.733513116836548,1.0717893838882446,0.0620248764753341
3995899482.0,-0.5006794929504395,-0.0667113289237022,10.06190013885498,2.580442190170288,1.0564720630645752,0.1068753898143768
3995907815.0,-0.5114203095436096,-0.1991482377052307,9.925686836242676,2.680670738220215,0.4949823319911957,0.0050331973470747
3995916148.0,-0.5071507692337036,0.0118310507386922,9.839643478393556,2.77698016166687,0.4786660671234131,-0.0282268840819597
3995924481.0,-0.4499361217021942,0.1905973553657531,9.947240829467772,2.793705701828003,0.8995333909988403,-0.0402143448591232
3995932814.0,-0.4091874063014984,0.0756044164299964,10.077040672302246,2.68984055519104,0.8263792395591736,-0.0647527799010276
3995941147.0,-0.3898340761661529,-0.119247518479824,9.957022666931152,2.599832057952881,0.4199326038360595,0.148985207080841
3995949480.0,-0.3629489541053772,-0.0871787443757057,9.75130844116211,2.7425544261932373,0.5443409085273743,0.0987300649285316
3995957813.0,-0.4339504539966583,0.0982025563716888,9.806313514709473,2.708615779876709,0.8691806793212891,0.077777624130249
3995966146.0,-0.4588140547275543,0.076976828277111,10.012678146362305,2.6836931705474854,1.0652832984924316,0.015842406079173
3995974479.0,-0.4749344289302826,-0.0818030163645744,10.079572677612305,2.504239797592163,0.6358349919319153,-0.0178018938750028
3995982812.0,-0.4862431585788727,-0.0957891643047332,9.860063552856444,2.538460493087769,0.56224524974823,0.0292130354791879
3995991145.0,-0.5063809156417847,0.0310686565935611,9.822360038757324,2.7447316646575928,0.7885982990264893,0.085128903388977
3995999478.0,-0.4820218086242676,0.0306707639247179,9.998754501342772,2.724189281463623,0.8702564239501953,0.1089757531881332
3996007811.0,-0.4129519760608673,-0.1419473439455032,10.052998542785645,2.625241279602051,0.6125260591506958,0.0131016811355948
3996016144.0,-0.3345669507980346,-0.1679753810167312,9.814887046813965,2.600370168685913,0.2539010941982269,0.0519584752619266
3996024477.0,-0.3664723634719848,0.0115440050140023,9.71350383758545,2.79178524017334,0.6119112968444824,0.1830009073019027
3996032810.0,-0.4082065522670746,0.0782145336270332,9.879658699035645,2.658027648925781,1.0812665224075315,0.1195032224059104
3996041143.0,-0.4632548689842224,-0.1385897248983383,10.011271476745604,2.6320548057556152,0.9971238374710084,0.153339609503746
3996049476.0,-0.4947887361049652,-0.2766299247741699,9.93140983581543,2.592865228652954,0.6327868700027466,0.1830777525901794
3996057809.0,-0.505668580532074,-0.124524787068367,9.77527141571045,2.7418372631073,0.4951615631580353,0.1330787539482116
3996066142.0,-0.4892621040344238,0.1026967912912368,9.917187690734863,2.8813836574554443,0.8434638977050781,0.1065680235624313
3996074475.0,-0.4253686070442199,0.0235155131667852,10.061491012573242,2.7214996814727783,0.786216139793396,0.0291361939162015
3996082808.0,-0.375936895608902,-0.1525488644838333,9.96031379699707,2.689661264419556,0.3159644305706024,0.1683495640754699
3996091141.0,-0.3684201836585998,-0.1630851775407791,9.7315092086792,2.725008726119995,0.4193690717220306,0.0596171282231807
3996099474.0,-0.4163419306278229,0.0133583471179008,9.765998840332031,2.8556671142578125,0.8443861603736877,0.0687870308756828
3996107807.0,-0.428565114736557,0.0504726506769657,10.031463623046877,2.8095617294311523,1.0941249132156372,0.0075433929450809
3996116140.0,-0.4350689649581909,-0.1196193620562553,10.103682518005373,2.6981394290924072,0.7381381988525391,0.0196076966822147
3996124473.0,-0.4717365503311157,-0.1102712824940681,9.881964683532717,2.780797004699707,0.446597009897232,0.1033150255680084
3996132806.0,-0.4985160529613495,0.0233190115541219,9.814717292785645,2.7577950954437256,0.6876525282859802,0.0820808112621307
3996141139.0,-0.4793637692928314,0.0665425360202789,9.944541931152344,2.7661709785461426,0.9590353965759276,0.1077462881803512
3996149472.0,-0.4318217635154724,-0.0991919040679931,10.022478103637695,2.74258041381836,0.6444669961929321,0.0697859749197959
3996157805.0,-0.3733806014060974,-0.1313726156949997,9.874940872192385,2.791144609451294,0.3540271520614624,0.0035731857642531
3996166138.0,-0.3766453564167022,0.0523197799921035,9.741273880004885,2.7479848861694336,0.5768709778785706,0.1075669899582862
3996174471.0,-0.4446225464344024,0.1645293235778808,9.885760307312012,2.7953200340271,1.0036041736602783,0.147755742073059
3996182804.0,-0.485730230808258,-0.008065590634942,9.998873710632324,2.697371006011963,1.0999393463134766,0.1172491610050201
3996191137.0,-0.5096947550773621,-0.1996684223413467,9.962678909301758,2.783767938613892,0.6205945014953613,0.1102308705449104
3996199470.0,-0.5025333166122437,-0.0857362672686576,9.80190372467041,2.888735294342041,0.5339159965515137,-0.0366027429699897
3996207803.0,-0.4917108416557312,0.1549805253744125,9.873345375061035,2.9376325607299805,0.7800174951553345,0.0495507344603538
3996216136.0,-0.4264087080955505,0.1383816748857498,10.044663429260254,2.6833858489990234,0.8883145451545715,0.0721681118011474
3996224469.0,-0.364427387714386,-0.0598484613001346,9.99865436553955,2.687483787536621,0.6939280033111572,0.0553139373660087
3996232802.0,-0.4018925726413727,-0.1144397854804992,9.76274585723877,2.6700916290283203,0.4379649758338928,-0.0462849251925945
3996241135.0,-0.4507749080657959,0.0788193494081497,9.759634017944336,2.8065645694732666,0.7117299437522888,0.0843861028552055
3996249468.0,-0.4611641466617584,0.162129744887352,9.966034889221191,2.769526243209839,0.9911556839942932,-0.0092211244627833
3996257801.0,-0.463070273399353,1.12631823867e-05,10.083866119384766,2.756590843200684,0.8219735026359558,0.0942475721240043
3996266134.0,-0.4765498638153076,-0.0894532278180122,9.897638320922852,2.556569814682007,0.5527679920196533,0.0489103831350803
3996274467.0,-0.4704868495464325,0.0388371795415878,9.834747314453123,2.6945533752441406,0.4813042879104614,-0.0107067497447133
3996282800.0,-0.4663672149181366,0.1289354115724563,9.905191421508787,2.7304134368896484,1.0337265729904177,0.1117677092552185
3996291133.0,-0.4174458682537079,-0.0174184273928403,10.053888320922852,2.7089743614196777,0.6589134335517883,0.0240389592945575
3996299466.0,-0.3471843600273132,-0.1270538568496704,9.920821189880373,2.629493474960327,0.358279138803482,0.0408418998122215
3996307799.0,-0.3630500137805938,0.0029098489321768,9.77379322052002,2.7550032138824463,0.4605055451393127,0.0477321296930313
3996316132.0,-0.4206313490867615,0.1541338711977005,9.831336975097656,2.746422290802002,0.9352397918701172,0.1769815534353256
3996324465.0,-0.5007973313331604,0.0023480434902012,9.992210388183594,2.484439849853516,1.210849046707153,0.0177122447639703
3996332798.0,-0.5092089772224426,-0.2218546867370605,9.989093780517578,2.5121803283691406,0.6962077617645264,0.0923521369695663
3996341131.0,-0.4818075299263,-0.1630671918392181,9.848482131958008,2.708513021469116,0.4241077005863189,0.0472710691392421
3996349464.0,-0.451827734708786,0.0848433077335357,9.871631622314451,2.754824161529541,0.743517279624939,0.0735000595450401
3996357797.0,-0.4113241732120514,0.1374496072530746,10.038656234741213,2.7087948322296143,0.928605616092682,0.0873829573392868
3996366130.0,-0.3679333627223968,-0.0746783912181854,10.040263175964355,2.6111788749694824,0.7245113849639893,0.0726035386323928
3996374463.0,-0.3800485730171203,-0.1963041573762893,9.786641120910645,2.53625750541687,0.4294354915618896,0.133488580584526
3996382796.0,-0.4145383834838867,-0.0351633317768573,9.698853492736816,2.661792993545532,0.6234632730484009,0.0519072487950325
3996391129.0,-0.4798870682716369,0.0961647927761077,9.847996711730955,2.7939109802246094,1.164691925048828,0.0336955264210701
3996399462.0,-0.4834033250808716,-0.007686257828027,10.100556373596191,2.6703484058380127,0.9243281483650208,-0.0255373939871788
3996407795.0,-0.4992984235286712,-0.1414011567831039,9.955309867858888,2.480008840560913,0.5193926692008972,0.0780850052833557
3996416128.0,-0.5014718174934387,-0.0694239288568496,9.8276948928833,2.666300773620605,0.4967496395111084,0.0437875315546989
3996424461.0,-0.5184890031814575,0.0483121871948242,9.871503829956056,2.6649692058563232,0.8133672475814819,0.1121519356966018
3996432794.0,-0.4619695544242859,-0.0476069636642932,10.021686553955078,2.649113655090332,0.7598078846931458,0.017686627805233
3996441127.0,-0.3756984770298004,-0.1939803212881088,9.975061416625977,2.6109488010406494,0.4076890051364898,-0.0055326749570667
3996449460.0,-0.3562557995319366,-0.1105507761240005,9.794014930725098,2.699113130569458,0.4422426223754883,0.0115648275241255
3996457793.0,-0.3996125757694244,0.0987481027841568,9.783611297607422,2.8333828449249268,0.7575282454490662,0.0418408550322055
3996466126.0,-0.4476610720157623,0.0501016788184642,9.962507247924805,2.692991018295288,1.0819836854934692,0.1577196568250656
3996474459.0,-0.4901627600193023,-0.2006225883960724,10.053995132446287,2.6596412658691406,0.7405204176902771,0.0126662403345108
3996482792.0,-0.5101567506790161,-0.2504626810550689,9.852680206298828,2.757692813873291,0.3715216815471649,0.0999595448374748
3996491125.0,-0.5066670179367065,-0.0165027491748332,9.790529251098633,2.823777198791504,0.5354015231132507,0.0277786366641521
3996499458.0,-0.4740311801433563,0.1716997772455215,9.97703742980957,2.8457798957824707,0.911854088306427,0.0129479970782995
3996507791.0,-0.4174803793430328,0.0044349641539156,10.055169105529783,2.7125089168548584,0.7852427363395691,0.0978079438209533
3996516124.0,-0.3941726982593536,-0.1522292196750641,9.8937349319458,2.6256256103515625,0.3619163334369659,-0.045900709927082
3996524457.0,-0.3896918892860412,-0.0967249050736427,9.723329544067385,2.796677350997925,0.4870674610137939,0.0585157237946987
3996532790.0,-0.4415111243724823,0.0759626105427742,9.808320045471191,2.8486745357513428,0.9789889454841614,0.0081581342965364
3996541123.0,-0.4653061628341675,0.0514779686927795,10.04330825805664,2.8348426818847656,1.0158990621566772,0.0155094191431999
3996549456.0,-0.4659313857555389,-0.0759620517492294,10.05395793914795,2.664968967437744,0.6732317209243774,-0.0079916408285498
3996557789.0,-0.4922120273113251,-0.0656911209225654,9.861684799194336,2.689020872116089,0.4676006734371185,0.0524963699281215
3996566122.0,-0.4789294302463531,0.0931384563446044,9.80653953552246,2.712252855300904,0.6450560688972473,0.0940426588058471
3996574455.0,-0.4628688991069793,0.093287743628025,9.996539115905762,2.768373727798462,0.8529924154281616,0.0442742072045803
3996582788.0,-0.3902724981307983,-0.1163112893700599,10.015167236328123,2.5996527671813965,0.5251814723014832,0.0384085439145565
3996591121.0,-0.3670175969600677,-0.1347406357526779,9.833173751831056,2.728466749191284,0.181361585855484,0.0666098147630691
3996599454.0,-0.3713054358959198,0.080582708120346,9.73354434967041,2.800673484802246,0.6559165120124817,0.0282909236848354
3996607787.0,-0.4381991028785705,0.1749935299158096,9.913958549499512,2.752415895462036,1.157827377319336,0.0830285400152206
3996616120.0,-0.4782359898090362,-0.0526756457984447,10.06152057647705,2.6342575550079346,1.0950981378555298,0.0499605648219585
3996624453.0,-0.4999306201934814,-0.2213740050792694,9.92345142364502,2.6221418380737305,0.4975693225860595,-0.065751738846302
3996632786.0,-0.4811775982379913,-0.0656084865331649,9.81731128692627,2.751596450805664,0.5126560926437378,0.0238340459764003
3996641119.0,-0.4653904438018799,0.1827428787946701,9.887428283691406,2.856128215789795,0.7184152603149414,0.0498324930667877
3996649452.0,-0.4260047376155853,0.1119836866855621,10.064410209655762,2.7317452430725098,0.843079686164856,0.066046305000782
3996657785.0,-0.38150554895401,-0.0990810245275497,9.985079765319824,2.7055933475494385,0.5787920951843262,-0.0438515767455101
3996666118.0,-0.3996909856796264,-0.1217798069119453,9.757616996765137,2.6484220027923584,0.4737224578857422,0.0388183742761611
3996674451.0,-0.4306672513484955,0.0674512833356857,9.772408485412598,2.757820844650269,0.8894927501678467,0.0702470391988754
3996682784.0,-0.4681877195835113,0.1198928356170654,9.986234664916992,2.6839492321014404,1.101527452468872,0.071271613240242
3996691117.0,-0.4871011078357696,-0.0541779473423957,10.08511447906494,2.619068384170532,0.8708455562591553,0.1364854425191879
3996699450.0,-0.5095263719558716,-0.1361913830041885,9.92671012878418,2.61397123336792,0.4331751763820648,0.0153301209211349
3996707783.0,-0.4957030713558197,0.030382540076971,9.848456382751465,2.621091842651367,0.540242612361908,0.0380499437451362
3996716116.0,-0.4685871601104736,0.1221310943365097,9.94811725616455,2.796395778656006,0.861163318157196,0.0270358230918645
3996724449.0,-0.4365531206130981,-0.0705497488379478,10.05038833618164,2.5571844577789307,0.6685699224472046,0.0144336204975843
3996732782.0,-0.3354398906230926,-0.1902072131633758,9.881145477294922,2.6207077503204346,0.3066920638084411,0.0640484020113945
3996741115.0,-0.3567630350589752,-0.0354468785226345,9.747269630432127,2.744014501571656,0.4441380202770233,0.0873829498887062
3996749448.0,-0.449353814125061,0.1364160329103469,9.79945945739746,2.7647109031677246,1.0436391830444336,0.1310296356678009
3996757781.0,-0.4961119890213012,-0.0248640738427639,10.042183876037598,2.655004978179932,1.1968634128570557,0.1977803111076355
3996766114.0,-0.5202835202217102,-0.2497035562992096,9.996970176696776,2.661050081253052,0.5546634793281555,0.0050844261422753
3996774447.0,-0.4966351687908172,-0.1806810945272445,9.83025360107422,2.7503669261932373,0.4113517999649048,-0.0642148926854133
3996782780.0,-0.4793814122676849,0.0862971916794776,9.856979370117188,2.835893154144287,0.557634711265564,0.0017801893409341
3996791113.0,-0.4388209879398346,0.1067843735218048,9.986916542053224,2.731438159942627,0.9222278594970704,0.1642512828111648
3996799446.0,-0.3885840475559234,-0.0801488831639289,10.013631820678713,2.6192219257354736,0.5195206999778748,0.0765481367707252
3996807779.0,-0.3623915016651153,-0.1995914727449417,9.798724174499512,2.6708860397338867,0.3748771548271179,0.035309225320816
3996816112.0,-0.4066455662250519,-0.0289300996810197,9.710810661315918,2.833075523376465,0.6448511481285095,0.1235758811235427
3996824445.0,-0.4415010213851928,0.1104349642992019,9.928038597106934,2.82265043258667,1.0836230516433716,0.0060577667318284
3996832778.0,-0.4849343597888946,-0.0122095877304673,10.060874938964844,2.704901695251465,0.9220740795135498,0.0866145342588424
3996841111.0,-0.4976153671741485,-0.1516513079404831,9.95946216583252,2.6083104610443115,0.518521785736084,0.1358963251113891
3996849444.0,-0.498391330242157,-0.0606419667601585,9.780190467834473,2.634718894958496,0.5342745184898376,-0.0555828921496868
3996857777.0,-0.4861998856067657,0.0887943357229232,9.86013889312744,2.6718337535858154,0.8326804041862488,0.0815941467881202
3996866110.0,-0.4340746998786926,-0.0194087289273738,10.01743221282959,2.6218857765197754,0.8410561680793762,0.0879977047443389
3996874443.0,-0.3654253184795379,-0.1569014489650726,9.940893173217772,2.706310510635376,0.4230063259601593,0.0093620037660002
3996882776.0,-0.3375618755817413,-0.098910205066204,9.769195556640623,2.7577950954437256,0.3399649262428283,0.1059020534157753
3996891109.0,-0.3985864222049713,0.1014790013432502,9.792322158813477,2.788480997085572,0.7642135620117188,0.0802622064948082
3996899442.0,-0.4605635702610016,0.0722264200448989,9.959561347961426,2.6889185905456543,1.2258588075637815,0.1096673533320427
3996907775.0,-0.5049038529396057,-0.1717207431793213,10.024202346801758,2.5297515392303467,0.8386996984481812,0.0346176363527774
3996916108.0,-0.4991539716720581,-0.2019153982400894,9.874180793762209,2.6839492321014404,0.5148333311080933,0.0009605337982065
3996924441.0,-0.4871016442775726,0.0425165556371212,9.805502891540527,2.8960864543914795,0.5410110950469971,0.0196076966822147
3996932774.0,-0.4719623327255249,0.1764700561761856,9.958454132080078,2.8814096450805664,0.950992465019226,0.1090526133775711
3996941107.0,-0.4159992933273315,0.0527571663260459,10.062514305114746,2.6382534503936768,0.7857294678688049,0.1287243515253067
3996949440.0,-0.3746809661388397,-0.1632290631532669,9.854581832885742,2.70951247215271,0.3583815693855285,0.0116672841832041
3996957773.0,-0.3914436101913452,-0.0561051219701767,9.726634979248049,2.755336284637451,0.4414741992950439,0.0919935330748558
3996966106.0,-0.4502160549163818,0.1213612332940101,9.83541774749756,2.821139335632324,0.9341896176338196,-0.0253324806690216
3996974439.0,-0.4697870910167694,0.0881460830569267,10.050862312316896,2.7474725246429443,1.0475581884384155,0.0751137435436248
3996982772.0,-0.5008008480072021,-0.0983206182718277,10.06887912750244,2.610128879547119,0.743927001953125,-0.0199791025370359
3996991105.0,-0.5066101551055908,-0.0996093824505806,9.864545822143556,2.564305067062378,0.4622216820716858,-0.0534569136798381
3996999438.0,-0.5119763612747192,0.0780918970704078,9.835620880126951,2.6616389751434326,0.7416985630989075,0.0958612635731697
3997007771.0,-0.4760656058788299,0.0918889865279197,9.989495277404783,2.644221544265747,0.9547065496444702,0.0016777325654402
3997016104.0,-0.406706154346466,-0.0802527517080307,10.03470230102539,2.592839479446411,0.4500293135643005,0.0946061685681343
3997024437.0,-0.3489352464675903,-0.1110138446092605,9.84234619140625,2.695091485977173,0.2962926626205444,0.0075433929450809
3997032770.0,-0.382537305355072,0.0566086396574974,9.7243070602417,2.744988203048706,0.5862970352172852,0.0105402572080492
3997041103.0,-0.4704253375530243,0.142927661538124,9.896088600158691,2.655338287353516,1.0254530906677246,0.0904566720128059
3997049436.0,-0.4795504212379455,-0.0654756128787994,10.064862251281738,2.580006599426269,1.0400019884109497,0.1587954610586166
3997057769.0,-0.5076742172241211,-0.2417087405920028,9.92501449584961,2.6798765659332275,0.4690606892108917,0.0877927914261818
3997066102.0,-0.4620998799800873,-0.088667944073677,9.83442497253418,2.721525192260742,0.3979299068450928,0.052521988749504
3997074435.0,-0.4575507938861847,0.1578549295663833,9.851548194885254,2.706207752227783,0.8021737933158875,0.0849239900708198
3997082768.0,-0.4216466546058655,0.085364893078804,10.04517650604248,2.611358404159546,0.8716651797294617,0.0612564459443092
3997091101.0,-0.3676809668540954,-0.1545813977718353,9.998720169067385,2.6732170581817627,0.5100947022438049,0.0166108310222625
3997099434.0,-0.3667210042476654,-0.1822679787874221,9.765437126159668,2.747856855392456,0.4167820811271667,0.0686077326536178
3997107767.0,-0.4263122081756592,0.0303955096751451,9.715831756591797,2.8234188556671143,0.7932344675064087,0.1418644338846206
3997116100.0,-0.4692284166812897,0.1162943392992019,9.980290412902832,2.7138919830322266,1.0927159786224363,0.1684007793664932
3997124433.0,-0.5067734718322754,-0.0217870958149433,10.096816062927246,2.6046221256256104,0.8825001120567322,0.1816433519124984
3997132766.0,-0.4818032681941986,-0.1228530704975128,9.95871639251709,2.647576808929444,0.4452906250953674,0.1327457726001739
3997141099.0,-0.4932653605937958,-0.0119008375331759,9.802308082580566,2.621399402618408,0.5179839134216309,0.0029072158504277
3997149432.0,-0.4592552781105041,0.0400152876973152,9.88438320159912,2.755156755447388,0.9379549026489258,0.156310886144638
3997157765.0,-0.3993744254112243,-0.0676674097776413,10.037408828735352,2.6556966304779053,0.7456175088882446,0.0239108875393867
3997166098.0,-0.371523380279541,-0.1532081067562103,9.921074867248535,2.608464241027832,0.3103548884391784,0.117761455476284
3997174431.0,-0.3592554628849029,-0.0515408925712108,9.778043746948242,2.80003309249878,0.4378625750541687,0.0197101533412933
3997182764.0,-0.4667570292949676,0.1359293609857559,9.802169799804688,2.8438079357147217,1.0906157493591309,0.0979104191064834
3997191097.0,-0.5289046764373779,-0.00686249230057,10.002630233764648,2.7056446075439453,1.158800721168518,-0.0435185879468917
3997199430.0,-0.5172901749610901,-0.2274804562330246,9.998266220092772,2.6809780597686768,0.6427508592605591,0.0563385151326656
3997207763.0,-0.4798773229122162,-0.2065148055553436,9.837730407714844,2.7984187602996826,0.4562279284000397,0.032286737114191
3997216096.0,-0.4829876124858856,0.0928105935454368,9.78982639312744,2.81071400642395,0.5864762663841248,0.0467587821185588
3997224429.0,-0.4419357776641845,0.1731693893671035,10.012384414672852,2.794474601745605,1.0142852067947388,0.0177378561347723
3997232762.0,-0.4011395573616028,-0.0511949993669986,10.04689121246338,2.662638187408448,0.7151110172271729,0.0891503393650055
3997241095.0,-0.3716497123241424,-0.2137680798768997,9.802532196044922,2.65418553352356,0.3876842558383941,0.036154493689537
3997249428.0,-0.4053540527820587,-0.0340801142156124,9.726665496826172,2.820267915725708,0.5862201452255249,0.1128947287797927
3997257761.0,-0.4521775543689728,0.1071741133928299,9.886350631713867,2.8997490406036377,1.012056827545166,0.0407394357025623
3997266094.0,-0.492627888917923,0.0444297268986702,10.098752975463867,2.745781898498535,1.021047592163086,0.0491921417415142
3997274427.0,-0.498117059469223,-0.113283485174179,10.00505828857422,2.6397390365600586,0.4646294414997101,-0.0359367728233337
3997282760.0,-0.4789022803306579,-0.041492611169815,9.849483489990234,2.6409685611724854,0.3484944701194763,0.047706514596939
3997291093.0,-0.4909306168556213,0.0877934396266937,9.854815483093262,2.7168376445770264,0.9095742702484132,0.1374331712722778
3997299426.0,-0.4254635870456695,0.0431079566478729,10.021202087402344,2.664405584335327,0.7761754393577576,0.1051080226898193
3997307759.0,-0.3722455203533172,-0.1052068918943405,9.993622779846191,2.616404294967652,0.4505415856838226,0.0227838605642318
3997316092.0,-0.346733033657074,-0.0698304399847984,9.821279525756836,2.743579149246216,0.4224427938461303,0.0154581926763057
3997324425.0,-0.4164280593395233,0.1275882273912429,9.767135620117188,2.71002459526062,0.8644421100616455,0.1313626170158386
3997332758.0,-0.489204078912735,0.1107929274439811,9.96468734741211,2.760792016983032,1.1518594026565552,0.0140494089573621
3997341091.0,-0.5208790898323059,-0.1308709979057312,10.0654878616333,2.681771993637085,0.9986606240272522,-0.0467203669250011
3997349424.0,-0.5274899005889893,-0.2110807299613952,9.90976619720459,2.63738226890564,0.4997465312480926,0.0994984880089759
3997357757.0,-0.4877966642379761,0.0016545695252716,9.845382690429688,2.763378858566284,0.4767449200153351,0.0294691752642393
3997366090.0,-0.4379664361476898,0.2139106839895248,9.950421333312988,2.8590738773345947,0.8900051116943359,0.1154561713337898
3997374423.0,-0.3885040283203125,0.0418052487075328,10.054463386535645,2.6645078659057617,0.819309651851654,0.0982177779078483
3997382756.0,-0.3918080329895019,-0.1671658605337143,9.897713661193848,2.6400208473205566,0.3300265967845917,0.1207583025097847
3997391089.0,-0.3850673735141754,-0.1048998236656189,9.715606689453123,2.806846141815185,0.482994794845581,0.1415570527315139
3997399422.0,-0.4522940516471863,0.0936860516667366,9.794543266296388,2.843577146530152,0.8017383813858032,0.1224488615989685
3997407755.0,-0.4798818230628967,0.0857439786195755,10.047807693481444,2.7886343002319336,1.0345205068588257,-0.0614229328930377
3997416088.0,-0.4944826662540436,-0.0780746862292289,10.06261920928955,2.679594755172729,0.7199777960777283,0.0652522668242454
3997424421.0,-0.5031647086143494,-0.0937187299132347,9.850720405578612,2.6409685611724854,0.3617370426654815,-0.0175969805568456
3997432754.0,-0.5098795890808105,0.0184704568237066,9.7969388961792,2.6876888275146484,0.7896997332572937,0.0003714064368978
3997441087.0,-0.4855733513832092,0.0701297670602798,9.936690330505373,2.7013156414031982,0.855502724647522,0.1669407784938812
3997449420.0,-0.4110796749591827,-0.0946670547127723,10.029437065124512,2.573833703994751,0.5922651886940002,0.0332088582217693
3997457753.0,-0.34953173995018,-0.1389668732881546,9.860359191894531,2.699035882949829,0.3015179932117462,0.034387107938528
3997466086.0,-0.3687033951282501,0.0719774141907692,9.760226249694824,2.837096691131592,0.5917271971702576,-0.0362185277044773
3997474419.0,-0.4520760476589203,0.1132664531469345,9.883965492248535,2.635026454925537,1.0992989540100098,0.0590023957192897
3997482752.0,-0.4748765528202057,-0.0816782489418983,10.065997123718262,2.6282894611358643,1.055754780769348,0.0210677087306976
3997491085.0,-0.4903357326984405,-0.2728211283683777,9.937114715576172,2.639892578125,0.4960068464279175,0.0116416700184345
3997499418.0,-0.4794117510318756,-0.1207320913672447,9.826733589172363,2.70169997215271,0.3961882293224334,0.0333113148808479
3997507751.0,-0.4594387412071228,0.1450463235378265,9.883227348327637,2.7814626693725586,0.7409557700157166,0.0131016811355948
3997516084.0,-0.4459567070007324,0.1433597803115844,10.027587890625,2.7206802368164062,0.8280441761016846,0.0349506251513958
3997524417.0,-0.3875968754291534,-0.1086677461862564,10.021402359008787,2.5999343395233154,0.5378860831260681,-0.0079916408285498
3997532750.0,-0.3754820227622986,-0.1660743355751037,9.740875244140623,2.6536734104156494,0.2808473110198974,0.072962149977684
3997541083.0,-0.4266364574432373,0.0170166548341512,9.753018379211426,2.719476222991944,0.7512271404266357,0.0466051027178764
3997549416.0,-0.4571919739246368,0.0870681554079055,9.958840370178224,2.7604846954345703,1.160593867301941,0.0775471031665802
3997557749.0,-0.4969937801361084,-0.0445925071835517,10.114831924438477,2.649420738220215,0.9083703756332396,0.1361268460750579
3997566082.0,-0.4929198324680328,-0.0977059379220008,9.97326946258545,2.639149904251098,0.4570988416671753,0.1191446185111999
3997574415.0,-0.48841193318367,0.0289596170186996,9.837279319763184,2.59378719329834,0.4984658360481262,0.0850520730018615
3997582748.0,-0.4845581352710724,0.1115770488977432,9.899961471557615,2.703083038330078,0.9481492638587952,0.0788790360093116
3997591081.0,-0.4197539687156677,-0.0423057749867439,10.025141716003418,2.734921455383301,0.9027096033096312,0.0321330577135086
3997599414.0,-0.3380949199199676,-0.1787266135215759,9.928491592407228,2.5522665977478027,0.2791055142879486,0.0999595522880554
3997607747.0,-0.3671481013298034,-0.0581201165914535,9.767127990722656,2.8060014247894287,0.4467251002788543,0.0175329446792602
3997616080.0,-0.4395393431186676,0.1468262821435928,9.805232048034668,2.6824638843536377,1.043792963027954,0.0967577770352363
3997624413.0,-0.5030075907707214,0.0409960225224494,9.987286567687988,2.653647422790528,1.1341087818145752,0.1217572763562202
3997632746.0,-0.5020859241485596,-0.2012388855218887,9.999073028564451,2.613177299499512,0.7920305728912354,0.0308011155575513
3997641079.0,-0.5023292303085327,-0.2124699652194976,9.824846267700195,2.611665964126587,0.3560250699520111,0.0444791242480278
3997649412.0,-0.4706383347511291,0.0576874427497386,9.780858993530272,2.8317947387695312,0.654533326625824,0.0550834164023399
3997657745.0,-0.4081413149833679,0.1588521301746368,9.968762397766112,2.686971664428711,0.9213568568229676,0.1051080077886581
3997666078.0,-0.3663281500339508,-0.0164937693625688,10.024534225463867,2.6805169582366943,0.6258454322814941,0.1319517344236374
3997674411.0,-0.3729384839534759,-0.1732746511697769,9.836170196533203,2.660256147384644,0.3909628987312317,0.0181220732629299
3997682744.0,-0.4425883293151855,-0.0472555644810199,9.705105781555176,2.77329158782959,0.6392416954040527,0.1065680235624313
3997691077.0,-0.4651572108268738,0.1151902452111244,9.865419387817385,2.767758846282959,1.0507087707519531,0.1262909919023513
3997699410.0,-0.4980874359607696,0.0140719283372163,10.065537452697754,2.614534854888916,1.0424866676330566,-0.0005378990317694
3997707743.0,-0.4873556196689605,-0.1118070483207702,10.006757736206056,2.639278173446656,0.4971338808536529,0.0222203508019447
3997716076.0,-0.4832068681716919,-0.0558335669338703,9.86936092376709,2.728440761566162,0.4252346456050873,-0.0280475858598947
3997724409.0,-0.4796954393386841,0.1084245890378952,9.834430694580078,2.7456283569335938,0.827634334564209,0.0804927423596382
3997732742.0,-0.4144039750099182,0.0391566418111324,10.002433776855469,2.657310485839844,0.910368263721466,0.2462680786848068
3997741075.0,-0.3649831116199493,-0.1677485257387161,10.004873275756836,2.694809913635254,0.5578652620315552,0.0968089997768402
3997749408.0,-0.3721316158771515,-0.1090822741389274,9.81014633178711,2.761099338531494,0.3251599073410034,0.1009328961372375
3997757741.0,-0.4218377470970154,0.1037483215332031,9.75687026977539,2.7789013385772705,0.7761241793632507,0.1637133955955505
3997766074.0,-0.5022419095039368,0.1116883382201194,9.903801918029783,2.645707368850708,1.253983497619629,0.0950928553938865
3997774407.0,-0.490927904844284,-0.1320303529500961,10.0953369140625,2.587947130203247,0.9608795642852784,0.065687708556652
3997782740.0,-0.5081096291542053,-0.2342098504304886,9.926408767700195,2.730285406112671,0.4718526303768158,0.0554932355880737
3997791073.0,-0.4742893576622009,-0.0198013465851545,9.824922561645508,2.750725269317627,0.4977486133575439,-0.0849111899733543
3997799406.0,-0.4245311617851257,0.1749633252620697,9.949085235595703,2.7777740955352783,0.8518398404121399,0.079877994954586
3997807739.0,-0.3721778988838196,0.0695582777261734,10.045502662658691,2.5852832794189453,0.9016338586807252,0.0559542924165725
3997816072.0,-0.3615234196186065,-0.1506421118974685,9.91662311553955,2.648243188858032,0.4115567803382873,0.0704519525170326
3997824405.0,-0.3791126310825348,-0.1162415817379951,9.705021858215332,2.666992664337158,0.4419607818126678,0.114892654120922
3997832738.0,-0.4653699696063995,0.0974952206015586,9.79844570159912,2.7667856216430664,0.9739941358566284,0.09834586083889
3997841071.0,-0.4917258322238922,0.0879060700535774,10.033230781555176,2.736868381500244,1.1562137603759766,0.0443510487675666
3997849404.0,-0.4914599061012268,-0.0704183727502822,10.108450889587402,2.562563419342041,0.770770788192749,-0.0159832835197448
3997857737.0,-0.5018854141235352,-0.1081588864326477,9.886810302734377,2.573833703994751,0.318423330783844,0.0890735015273094
3997866070.0,-0.4793660342693329,0.0576396621763706,9.822870254516602,2.733717441558838,0.6080435514450073,0.0885099843144416
3997874403.0,-0.4456161856651306,0.0755067765712738,9.944345474243164,2.714891195297241,0.94722718000412,0.085974171757698
3997882736.0,-0.3959528803825378,-0.0923358798027038,10.051738739013672,2.590303659439087,0.6292008757591248,0.0325685031712055
3997891069.0,-0.3393916189670563,-0.1309410631656646,9.833792686462402,2.545581340789795,0.3213690221309662,-0.0067877718247473
3997899402.0,-0.3748205900192261,0.0306726042181253,9.71353816986084,2.683539628982544,0.5479013323783875,0.0514718070626258
3997907735.0,-0.4700662791728973,0.1530225276947021,9.86293888092041,2.757718086242676,1.1288833618164062,0.0855643451213836
3997916068.0,-0.5168111324310303,-0.0400005616247653,10.017632484436035,2.721909523010254,1.143022537231445,0.0449145622551441
3997924401.0,-0.509208083152771,-0.2432371377944946,9.92940902709961,2.561641454696656,0.5770503282546997,-0.0055070607922971
3997932734.0,-0.4787757992744446,-0.0896846354007721,9.813546180725098,2.751032829284668,0.4274888038635254,0.088228240609169
3997941067.0,-0.4745619595050812,0.1491257101297378,9.881792068481444,2.850262403488159,0.7700279355049133,0.0442998185753822
3997949400.0,-0.4114986062049866,0.1202347204089164,10.012694358825684,2.7327699661254883,0.9024279713630676,0.0875878781080246
3997957733.0,-0.3784205019474029,-0.0883310213685035,9.972938537597656,2.6305689811706543,0.5991297364234924,0.2057719528675079
3997966066.0,-0.3910426497459411,-0.1356426924467086,9.746782302856444,2.6544673442840576,0.3664244413375854,0.0500117912888526
3997974399.0,-0.4364243745803833,0.0649865642189979,9.744213104248049,2.750264406204224,0.7945151925086975,0.0213238503783941
3997982732.0,-0.46346515417099,0.1002166867256164,9.989811897277832,2.748394727706909,1.0372869968414309,0.0348993949592113
3997991065.0,-0.480812668800354,-0.0233996473252773,10.079054832458496,2.6409173011779785,0.77092444896698,0.0666866675019264
3997999398.0,-0.4909342527389526,-0.1002425923943519,9.93953800201416,2.7035441398620605,0.3769263029098511,0.1364085972309112
3998007731.0,-0.4895462691783905,0.0016459614271298,9.841570854187012,2.6568493843078613,0.4208546876907348,0.021989818662405
3998016064.0,-0.4725628197193146,0.0837605893611908,9.902356147766112,2.604058265686035,0.7763290405273438,0.1300818920135498
3998024397.0,-0.413318395614624,-0.0449772477149963,10.05856227874756,2.676367282867432,0.6870890855789185,0.1296976953744888
3998032730.0,-0.3507828414440155,-0.1369942426681518,9.903761863708496,2.6922993659973145,0.3233669400215149,0.1429146230220794
3998041063.0,-0.3662070631980896,-0.0275586117058992,9.756708145141602,2.768681287765503,0.5167800188064575,0.0493970513343811
3998049396.0,-0.4497975409030914,0.132452979683876,9.839661598205566,2.672807216644287,0.8996360301971436,0.0251659862697124
3998057729.0,-0.5136226415634155,0.0078760292381048,10.00879192352295,2.733103036880493,1.01349139213562,0.0356678254902362
3998066062.0,-0.5086104869842529,-0.2274639308452606,10.013093948364258,2.6601791381835938,0.6538674235343933,0.0519584752619266
3998074395.0,-0.4911317527294159,-0.1883833110332489,9.867095947265623,2.769808292388916,0.2796690464019775,0.0423531383275985
3998082728.0,-0.4755895733833313,0.0902476757764816,9.851359367370604,2.796472311019897,0.7172113060951233,-0.0705928280949592
3998091061.0,-0.4244333207607269,0.1488322764635086,9.99111557006836,2.7638657093048096,0.8949742913246155,-0.0098870946094393
3998099394.0,-0.3672673404216766,-0.0641729980707168,10.04236888885498,2.658693552017212,0.5881668925285339,0.0015496612759307
3998107727.0,-0.3888646364212036,-0.1692278534173965,9.826264381408691,2.7346909046173096,0.4213669598102569,0.0523170717060565
3998116060.0,-0.434125006198883,-0.0346988067030906,9.699345588684082,2.709614515304565,0.6520487666130066,0.0339516662061214
3998124393.0,-0.4925901591777801,0.0952799096703529,9.858620643615724,2.8449602127075195,1.0864149332046509,0.0014984327135607
3998132726.0,-0.5132036805152893,-0.0148240868002176,10.096510887145996,2.7084877490997314,1.0833669900894165,0.0796218588948249
3998141059.0,-0.481753259897232,-0.126938909292221,10.00364589691162,2.7116384506225586,0.3828431963920593,0.0571069382131099
3998149392.0,-0.4656634032726288,-0.0602683909237384,9.780488014221191,2.6668646335601807,0.7060436010360718,0.1718074828386306
3998157725.0,-0.4549284279346466,0.1028476133942604,9.813642501831056,2.829514741897583,0.8499187231063843,0.1399433612823486
3998166058.0,-0.4300711154937744,0.0239445641636848,9.983602523803713,2.78169322013855,0.8862140774726868,0.0523426905274391
3998174391.0,-0.3651885092258453,-0.1525314897298813,9.94716739654541,2.617685079574585,0.3293350338935852,0.0450170151889324
3998182724.0,-0.3555762767791748,-0.1013995483517646,9.755921363830566,2.783024787902832,0.3250318169593811,0.1664285063743591
3998191057.0,-0.4298003017902374,0.0912531614303588,9.74540901184082,2.818167924880981,0.911341667175293,-0.0216184146702289
3998199390.0,-0.5071060657501221,0.0875869393348693,9.95205020904541,2.7130725383758545,1.2289069890975952,0.0927363410592079
3998207723.0,-0.5193668007850647,-0.1330567598342895,10.083944320678713,2.56579065322876,0.8281978368759155,0.1020599231123924
3998216056.0,-0.5086013674736023,-0.2123039662837982,9.933140754699709,2.693042278289795,0.2932958006858825,0.0262161698192358
3998224389.0,-0.4408790469169616,0.0083348304033279,9.802120208740234,2.834970712661743,0.3475467264652252,0.0965784788131713
3998232722.0,-0.4156513810157776,0.1758365333080291,9.925889015197754,2.788788080215454,0.8713322281837463,0.0483212545514106
3998241055.0,-0.3829114139080047,0.0369502268731594,10.0827054977417,2.68815016746521,0.8167738914489746,0.0364362485706806
3998249388.0,-0.3779220581054687,-0.1512831747531891,9.960382461547852,2.617403507232666,0.4470836520195007,0.0329014845192432
3998257721.0,-0.3528672754764557,-0.0745852440595626,9.75620174407959,2.697806596755981,0.4900643825531006,0.0371790640056133
3998266054.0,-0.471863329410553,0.1279938668012619,9.811593055725098,2.85807466506958,1.0578550100326538,0.1272130757570266
3998274387.0,-0.4918912053108215,0.0983477309346199,10.066450119018556,2.730182886123657,1.322296380996704,0.0567227192223072
3998282720.0,-0.5202948451042175,-0.0910181924700737,10.070069313049316,2.621373653411865,0.596593976020813,0.1473459005355835
3998291053.0,-0.4829386472702026,-0.1171229407191276,9.868101119995115,2.6049036979675293,0.4574318528175354,0.0839506536722183
3998299386.0,-0.4576360583305359,0.0735334828495979,9.82688331604004,2.6863057613372803,0.7555303573608398,0.0322099030017852
3998307719.0,-0.4350579679012298,0.0989328846335411,9.944591522216797,2.6655070781707764,0.9610077142715454,0.0840275064110755
3998316052.0,-0.3829722106456756,-0.0855970978736877,10.031396865844728,2.5373332500457764,0.58091801404953,-0.0251531787216663
3998324385.0,-0.3587571084499359,-0.16128771007061,9.853761672973633,2.61742901802063,0.2795665860176086,0.1033918634057045
3998332718.0,-0.4030657410621643,0.0158886704593896,9.746129989624023,2.742759704589844,0.4930099844932556,0.0656621009111404
3998341051.0,-0.4674912989139557,0.1137818172574043,9.870494842529297,2.75392746925354,1.1976319551467896,0.1807212382555008
3998349384.0,-0.5014379620552063,-0.0558053031563758,10.028959274291992,2.695270776748657,1.1782164573669434,0.1250102818012237
3998357717.0,-0.4972937405109405,-0.2361429333686828,9.935510635375977,2.658385992050171,0.5852724313735962,-0.0210805144160985
3998366050.0,-0.4665278792381286,-0.119187518954277,9.828307151794434,2.7690651416778564,0.4130423367023468,0.084949605166912
3998374383.0,-0.4574733078479767,0.1438083052635193,9.846866607666016,2.892218589782715,0.8832428455352783,0.0543662197887897
3998382716.0,-0.4355984628200531,0.1251334547996521,10.015710830688477,2.6764698028564453,0.9340103268623352,0.0445815771818161
3998391049.0,-0.3741887509822845,-0.1327673494815826,9.973610877990724,2.6097960472106934,0.5517946481704712,-0.0200047213584184
3998399382.0,-0.3637691736221313,-0.1807052791118621,9.73447608947754,2.605544090270996,0.276364803314209,0.1241137832403183
3998407715.0,-0.4372199177742004,0.0171125419437885,9.70167350769043,2.732308864593506,0.7745360136032104,0.0730902180075645
3998416048.0,-0.4665761291980743,0.1221012994647026,9.979255676269531,2.6981136798858643,1.131829023361206,0.1613568812608719
3998424381.0,-0.4974478483200073,-0.0251312255859375,10.099413871765137,2.638893842697144,0.942795991897583,0.0281372386962175
3998432714.0,-0.4732519090175628,-0.1106979325413703,9.94161319732666,2.7089486122131348,0.4325859844684601,0.1592564880847931
3998441047.0,-0.4750178754329681,-0.0180553179234266,9.836588859558104,2.7926814556121826,0.494879812002182,0.0731158256530761
3998449380.0,-0.4568220973014831,0.0787937045097351,9.889739990234377,2.7292096614837646,0.9379549026489258,0.0101304305717349
3998457713.0,-0.4064429700374603,-0.0164751149713993,10.079447746276855,2.6281867027282715,0.8539657592773438,-0.0143695855513215
3998466046.0,-0.3464174270629883,-0.1290210336446762,9.944344520568848,2.650292158126831,0.4392969608306885,0.078187458217144
3998474379.0,-0.3533620238304138,-0.0344825498759746,9.767998695373535,2.731387138366699,0.3615577816963196,0.1488315165042877
3998482712.0,-0.4463942050933838,0.1641916036605835,9.801541328430176,2.782256603240967,1.0480705499649048,0.0736537426710128
3998491045.0,-0.4962639510631561,0.0459173768758773,10.034660339355469,2.689353704452514,1.283798336982727,0.1057483777403831
3998499378.0,-0.5091831088066101,-0.1804619431495666,10.063450813293455,2.575267791748047,0.6220801472663879,0.0126662394031882
3998507711.0,-0.4900321960449219,-0.1969786137342453,9.85475254058838,2.7138919830322266,0.4817396998405456,-0.0423403307795524
3998516044.0,-0.4474890232086181,0.0583937279880046,9.82342529296875,2.8663485050201416,0.730530858039856,-0.0096565671265125
3998524377.0,-0.4466491341590881,0.1887281239032745,9.951224327087402,2.8392996788024902,1.0308321714401243,0.0740123391151428
3998532710.0,-0.414181113243103,0.0014781120698899,10.084370613098145,2.738866090774536,0.7005621194839478,0.1946041584014892
3998541043.0,-0.4063334465026855,-0.2029367834329605,9.855107307434082,2.624396562576294,0.4689838588237762,0.0059296959079802
3998549376.0,-0.4207240045070648,-0.0827103406190872,9.674190521240234,2.6620748043060303,0.5777418613433838,-0.0322483219206333
3998557709.0,-0.5050637125968933,0.1115791946649551,9.838191032409668,2.728082656860352,1.0491206645965576,0.0864864736795425
3998566042.0,-0.5281902551651001,0.0890151336789131,10.101604461669922,2.833945751190185,1.2094144821166992,0.0364618562161922
3998574375.0,-0.5167267322540283,-0.1315308511257171,10.067150115966797,2.676956415176392,0.5961841940879822,0.0328502543270587
3998582708.0,-0.4645384550094604,-0.1245306655764579,9.855850219726562,2.600216150283813,0.2600997686386108,0.1171467080712318
3998591041.0,-0.4673008918762207,0.0351403281092643,9.747715950012209,2.7872259616851807,0.7247931957244873,0.0378194190561771
3998599374.0,-0.4385254383087158,0.0595478266477584,9.961535453796388,2.679108142852783,0.911034345626831,0.0782899111509323
3998607707.0,-0.3776235580444336,-0.1234226003289222,10.071209907531738,2.6423258781433105,0.5902672410011292,0.1165831908583641
3998616040.0,-0.337195873260498,-0.1538177132606506,9.874818801879885,2.612997770309448,0.2497516125440597,0.0059809237718582
3998624373.0,-0.3641192317008972,0.042892899364233,9.69965362548828,2.6894564628601074,0.5368103384971619,0.1334373652935028
3998632706.0,-0.4544017314910888,0.1663710623979568,9.846518516540527,2.7359719276428223,1.2383586168289185,0.1195544451475143
3998641039.0,-0.4907698631286621,-0.0543228313326835,10.064836502075195,2.6412503719329834,1.2171244621276855,0.0999595522880554
3998649372.0,-0.5069557428359985,-0.2593609690666199,9.98523235321045,2.6098473072052,0.3603794872760772,0.0102585013955831
3998657705.0,-0.4608756601810455,-0.1589005589485168,9.823426246643066,2.694630622863769,0.1874321848154068,0.0493714436888694
3998666038.0,-0.4566462337970733,0.1221659630537033,9.78449249267578,2.909456968307495,0.6460549831390381,0.1239857152104377
3998674371.0,-0.3995874226093292,0.1968310177326202,10.012567520141602,2.8063852787017822,1.0958155393600464,0.0968858525156974
3998682704.0,-0.3656100332736969,-0.0669570937752723,10.076879501342772,2.6293654441833496,0.6469003558158875,0.0189417265355587
3998691037.0,-0.3299732208251953,-0.209054410457611,9.782419204711914,2.7194249629974365,0.2616110146045685,0.0808257237076759
3998699370.0,-0.384004682302475,-0.0419433377683162,9.658238410949709,2.7179903984069824,0.7241016030311584,0.1057483628392219
3998707703.0,-0.448507159948349,0.1576623171567917,9.864890098571776,2.9076895713806152,1.1811363697052002,0.0767274349927902
3998716036.0,-0.4833689033985138,0.0806796178221702,10.146286964416504,2.7220377922058105,1.087721347808838,0.0087472610175609
3998724369.0,-0.4985916912555694,-0.10795608907938,10.088887214660645,2.674062013626098,0.4904741942882538,0.043582621961832
3998732702.0,-0.4509433805942535,-0.0980993881821632,9.844063758850098,2.6205029487609863,0.3589451014995575,-0.002766337711364
3998741035.0,-0.4503755867481231,0.1100690364837646,9.754549026489258,2.6756246089935303,0.7385224103927612,0.0196845401078462
3998749368.0,-0.4311728477478027,0.0803043469786644,10.00414752960205,2.6709625720977783,1.050426959991455,0.1100003346800804
3998757701.0,-0.3737585544586181,-0.1234789341688156,10.07366180419922,2.638125419616699,0.5696222186088562,0.0179427713155746
3998766034.0,-0.3295729756355285,-0.1561262756586074,9.851354598999023,2.7228829860687256,0.3576643764972687,0.0332856997847557
3998774367.0,-0.3724525570869446,0.0781910270452499,9.705018043518066,2.7485997676849365,0.6876013875007629,0.0690687969326973
3998782700.0,-0.4751451015472412,0.176403522491455,9.867953300476074,2.776493549346924,1.1141551733016968,0.0876903384923935
3998791033.0,-0.5264811515808105,-0.0494323447346687,10.114880561828612,2.5809288024902344,1.191586971282959,0.0118721975013613
3998799366.0,-0.5045123100280762,-0.2952363789081573,10.034990310668944,2.552419900894165,0.5083016753196716,-0.0120386900380253
3998807699.0,-0.4808029234409332,-0.1754007488489151,9.769420623779297,2.73374342918396,0.3159900307655334,0.0761127024888992
3998816032.0,-0.4527257978916168,0.1554710566997528,9.78225326538086,2.8813581466674805,0.8279674053192139,0.0538795478641986
3998824365.0,-0.455785721540451,0.2085132002830505,10.023179054260254,2.7938597202301025,1.2092609405517578,-0.022617369890213
3998832698.0,-0.4354487955570221,-0.0815922915935516,10.119983673095703,2.6351284980773926,0.8258925676345825,-0.0662127956748008
3998841031.0,-0.4313524961471557,-0.234531357884407,9.81711196899414,2.5295722484588623,0.2888645529747009,-0.0120899202302098
3998849364.0,-0.4252576231956482,-0.0391182638704776,9.658034324645996,2.823726177215576,0.6183148622512817,0.0445815771818161
3998857697.0,-0.4839775562286377,0.145373597741127,9.823114395141602,2.957150936126709,1.149707913398743,0.1021111458539962
3998866030.0,-0.5151626467704773,0.051627017557621,10.145593643188477,2.684359073638916,1.155317306518555,0.0854362919926643
3998874363.0,-0.5127279162406921,-0.1461460292339325,10.100212097167969,2.5662522315979004,0.5954413414001465,0.0516767241060733
3998882696.0,-0.4646156728267669,-0.1387923508882522,9.795382499694824,2.6691441535949707,0.2735728621482849,0.0682491287589073
3998891029.0,-0.478972315788269,0.0921523123979568,9.700977325439451,2.7001373767852783,0.7443625330924988,0.1437342911958694
3998899362.0,-0.4472027122974396,0.0772981196641922,9.93698024749756,2.811636209487915,1.0951493978500366,-0.0024845807347446
3998907695.0,-0.4222604930400848,-0.1134817898273468,10.071707725524902,2.5834903717041016,0.7817337512969971,0.0639715492725372
3998916028.0,-0.377163678407669,-0.1879283338785171,9.851412773132324,2.735792636871338,0.2302847951650619,-0.0284574162214994
3998924361.0,-0.3848988711833954,0.0428929589688777,9.662665367126465,2.7160184383392334,0.5208526849746704,0.1036736220121383
3998932694.0,-0.4784580171108246,0.1975852698087692,9.800643920898438,2.728261947631836,1.2072628736495972,0.1447076350450515
3998941027.0,-0.5156251192092896,-0.0200095120817422,10.06679344177246,2.603853464126587,1.0508111715316772,0.1251895576715469
3998949360.0,-0.4807751774787903,-0.2472904771566391,10.057917594909668,2.5952470302581787,0.450567215681076,0.0847703069448471
3998957693.0,-0.4173842668533325,-0.159287691116333,9.793450355529783,2.7920923233032227,0.3554103374481201,0.0513181164860725
3998966026.0,-0.4068373441696167,0.1543743312358856,9.771416664123535,2.891065835952759,0.6774581074714661,0.1066192463040351
3998974359.0,-0.4095276892185211,0.2368780523538589,9.966619491577148,2.760561466217041,0.9951770305633544,0.1905315071344375
3998982692.0,-0.3613105714321136,-0.0552445538341999,10.124363899230955,2.589663028717041,0.706197202205658,0.0348737798631191
3998991025.0,-0.3706017732620239,-0.2484040558338165,9.867920875549316,2.5866920948028564,0.4214694797992706,0.0705031901597976
3998999358.0,-0.3665165603160858,-0.0637959316372871,9.693912506103516,2.7053115367889404,0.4419351816177368,0.0384853892028331
3999007691.0,-0.4381071627140045,0.1758141815662384,9.830324172973633,2.881486415863037,1.168303608894348,0.1699632555246353
3999016024.0,-0.4740605652332306,0.1056049093604087,10.135010719299316,2.685511827468872,1.0422048568725586,0.0747807621955871
3999024357.0,-0.5012414455413818,-0.1346429884433746,10.133414268493652,2.503420352935791,0.5776138305664062,0.0282140802592039
3999032690.0,-0.4439893960952759,-0.1433354765176773,9.83806324005127,2.585590362548828,0.2976245880126953,-0.0241798348724842
3999041023.0,-0.4494188129901886,0.0526560880243778,9.714706420898438,2.736586570739746,0.6203895807266235,0.0780849903821945
3999049356.0,-0.4499500095844269,0.1062681674957275,9.930621147155762,2.7618162631988525,1.0435110330581665,0.0710923075675964
3999057689.0,-0.4068966209888458,-0.0826730579137802,10.059188842773438,2.693964719772339,0.7626767158508301,0.1527248919010162
3999066022.0,-0.3747720122337341,-0.1925283968448639,9.932332992553713,2.6662752628326416,0.2486502081155777,0.0759077966213226
3999074355.0,-0.4082964658737182,0.0136881284415721,9.723362922668455,2.716684341430664,0.4882713854312897,0.0032402009237557
3999082688.0,-0.4984179437160492,0.1570456624031067,9.807565689086914,2.760894298553467,1.080344319343567,0.2008027881383896
3999091021.0,-0.5287198424339294,0.0253635551780462,10.026473999023438,2.664405345916748,1.1686623096466064,0.0938633680343627
3999099354.0,-0.5414829254150391,-0.2462404519319534,10.078640937805176,2.508363723754883,0.7285841703414917,0.0862815603613853
3999107687.0,-0.4915563464164734,-0.2248340845108032,9.858268737792969,2.734332323074341,0.2361504286527633,0.0690175592899322
3999116020.0,-0.4914985597133636,0.1448965519666671,9.726625442504885,2.8417327404022217,0.5062525272369385,0.0924801900982856
3999124353.0,-0.4842260181903839,0.2718722522258758,9.909445762634276,2.7965750694274902,1.156623601913452,0.0856924280524253
3999132686.0,-0.4557244479656219,0.0106697501614689,10.087736129760742,2.6873559951782227,0.7953348755836487,0.1516747027635574
3999141019.0,-0.4297511875629425,-0.2502829432487488,9.922618865966797,2.581876516342163,0.3459842801094055,0.116531953215599
3999149352.0,-0.3941036164760589,-0.0927164256572723,9.69430446624756,2.729696035385132,0.318884402513504,0.0450170151889324
3999157685.0,-0.4533925354480743,0.1435145586729049,9.739971160888672,2.844575881958008,0.9655413627624512,0.0362825617194175
3999166018.0,-0.5029217004776001,0.1706002354621887,10.042791366577148,2.8316667079925537,1.2125650644302368,0.0926082655787468
3999174351.0,-0.5019283294677734,-0.0717043578624725,10.177111625671388,2.607260227203369,0.7567085027694702,0.081568531692028
3999182684.0,-0.4665464758872986,-0.1572659313678741,9.911640167236328,2.615636110305786,0.2340244799852371,0.0456573776900768
3999191017.0,-0.4337498545646667,0.0404208078980445,9.719895362854004,2.722575664520264,0.498645156621933,0.0718351230025291
3999199350.0,-0.4285737872123718,0.1274598985910415,9.82972812652588,2.78558611869812,1.006575345993042,0.1659674197435379
3999207683.0,-0.4179351329803467,-0.0175960902124643,10.070439338684082,2.6620233058929443,0.9796291589736938,0.0494738928973674
3999216016.0,-0.3732835948467254,-0.1959506869316101,10.019331932067873,2.543865203857422,0.364503413438797,0.0377681963145732
3999224349.0,-0.3421325385570526,-0.0640156641602516,9.769993782043455,2.6886112689971924,0.310278058052063,-0.0391129404306411
3999232682.0,-0.4217013418674469,0.1691508740186691,9.768320083618164,2.7344346046447754,0.8141613006591797,0.1104101538658142
3999241015.0,-0.4612880945205688,0.0769126862287521,9.992562294006348,2.6956803798675537,1.3007549047470093,0.0467331707477569
3999249348.0,-0.4758678078651428,-0.195671871304512,10.16336441040039,2.5644588470458984,0.8764550685882568,0.1648916453123092
3999257681.0,-0.4200921058654785,-0.303713321685791,9.90320110321045,2.7853047847747803,0.2136867642402649,0.1262910068035125
3999266014.0,-0.4114173948764801,0.0127192912623286,9.724027633666992,2.83678936958313,0.5559185743331909,0.0829260945320129
3999274347.0,-0.4430878162384033,0.2309995293617248,9.861289978027344,2.872239589691162,1.0544483661651611,0.1289804726839065
3999282680.0,-0.42050901055336,0.1032615154981613,10.062320709228516,2.6989848613739014,1.009341835975647,0.010745171457529
3999291013.0,-0.3999329805374145,-0.231979951262474,10.03664207458496,2.4143848419189453,0.5590946674346924,0.0630494430661201
3999299346.0,-0.3597679138183594,-0.2544122040271759,9.751266479492188,2.7505462169647217,0.3444474339485168,0.089739479124546
3999307679.0,-0.4129350185394287,0.0348807647824287,9.648768424987791,2.9136319160461426,0.7757142782211304,0.1014707833528518
3999316012.0,-0.4699966311454773,0.1680376529693603,9.894073486328123,2.837686061859131,1.2083388566970823,0.1003181487321853
3999324345.0,-0.5217421650886536,-0.013989589177072,10.183648109436035,2.614790678024292,1.0086500644683838,-0.0123204477131366
3999332678.0,-0.5075116753578186,-0.1737516522407531,10.007960319519045,2.475270271301269,0.3298729360103607,0.0948110967874527
3999341011.0,-0.4486996829509735,-0.0885039493441581,9.769000053405762,2.703748941421509,0.3483151793479919,0.0569788664579391
3999349344.0,-0.464708149433136,0.1010912880301475,9.719646453857422,2.8822543621063232,0.9172072410583496,0.1250358819961547
3999357677.0,-0.4697735607624054,0.0676848664879798,9.944668769836426,2.789249420166016,1.1010408401489258,0.038587849587202
3999366010.0,-0.4434673190116882,-0.1651060730218887,10.056123733520508,2.6646618843078613,0.6639594435691833,0.1636877954006195
3999374343.0,-0.4128084480762481,-0.173505961894989,9.858475685119627,2.641429662704468,0.2413757592439651,0.1109224557876586
3999382676.0,-0.412293016910553,0.0782193094491958,9.74769115447998,2.724547863006592,0.6692359447479248,0.0554163940250873
3999391009.0,-0.5138790607452393,0.1378807723522186,9.844768524169922,2.74058198928833,1.1260658502578735,0.0336699113249778
3999399342.0,-0.5354058146476746,-0.071577675640583,10.09256076812744,2.660922050476074,1.2035744190216064,0.0755748003721237
3999407675.0,-0.5146282315254211,-0.2875292897224426,10.059917449951172,2.7763400077819824,0.4400141537189483,0.2201927900314331
3999416008.0,-0.4490760564804077,-0.1538956314325332,9.79199504852295,2.813889980316162,0.2680145502090454,0.0590792223811149
3999424341.0,-0.4336999058723449,0.1653905063867569,9.714892387390137,2.8900411128997803,0.6399332880973816,0.0359239652752876
3999432674.0,-0.4745515584945678,0.2076780200004577,9.95343780517578,2.7272114753723145,1.0021697282791138,0.104006603360176
3999441007.0,-0.4326235353946686,-0.049556478857994,10.138333320617676,2.5664312839508057,0.8529667854309082,-0.0121667617931962
3999449340.0,-0.3901576101779938,-0.2549248933792114,9.904620170593262,2.6469621658325195,0.454127550125122,0.0449914000928401
3999457673.0,-0.343775600194931,-0.0701847299933433,9.697439193725586,2.7448341846466064,0.5408573150634766,-0.0013575544580817
3999466006.0,-0.4218710362911224,0.1553672850131988,9.789369583129885,2.845651865005493,0.9168487191200256,0.1489339619874954
3999474339.0,-0.5008751749992371,0.1266018152236938,10.077250480651855,2.837301731109619,1.1951731443405151,-0.0224124565720558
3999482672.0,-0.4908371269702911,-0.0915026664733886,10.204352378845217,2.6315934658050537,0.7756630182266235,0.0350018516182899
3999491005.0,-0.4419946074485779,-0.1670424938201904,9.917142868041992,2.6253437995910645,0.2913235127925873,0.1407117992639541
3999499338.0,-0.4040191173553467,0.0055301059037446,9.68784236907959,2.83333158493042,0.5694429278373718,0.1675555408000946
3999507671.0,-0.4323169291019439,0.1156687065958976,9.823593139648438,2.771806240081787,0.9923083782196044,0.0043159988708794
3999516004.0,-0.4273350536823272,0.0371843911707401,10.0960693359375,2.794602870941162,0.934317708015442,0.0728340819478035
3999524337.0,-0.4032604992389679,-0.1688678711652755,10.070108413696287,2.5952725410461426,0.4519504308700561,0.1616642624139785
3999532670.0,-0.3720630407333374,-0.0815698578953743,9.789945602416992,2.862070322036743,0.2813083231449127,0.0824394151568412
3999541003.0,-0.4028965532779693,0.1405951082706451,9.71540069580078,2.7922463417053223,0.7845000624656677,0.0924801975488662
3999549336.0,-0.4868742227554321,0.1160688549280166,9.894893646240234,2.590021848678589,1.1120805740356443,0.0779057070612907
3999557669.0,-0.5054351091384888,-0.1251766681671142,10.189132690429688,2.6093862056732178,0.8858810663223267,0.0506009273231029
3999566002.0,-0.4751177132129669,-0.257786363363266,9.967122077941896,2.645476818084717,0.3946000933647156,0.0683771967887878
3999574335.0,-0.4436538219451904,-0.0571836195886135,9.75748348236084,2.7644293308258057,0.4759765267372131,0.0216568354517221
3999582668.0,-0.4270021915435791,0.2167437374591827,9.792768478393556,2.843090295791626,0.7545568943023682,0.0056479386985301
3999591001.0,-0.4568636417388916,0.1577351689338684,9.982160568237305,2.835944175720215,1.0224305391311646,0.0319281443953514
3999599334.0,-0.4196722507476806,-0.140267327427864,10.087966918945312,2.621194362640381,0.6721559762954712,0.0395611822605133
3999607667.0,-0.3994448482990265,-0.2382155507802963,9.810552597045898,2.650548458099365,0.3050783574581146,0.0720144286751747
3999616000.0,-0.4055571258068084,-0.0304403584450483,9.645041465759276,2.854924440383911,0.6542516350746155,0.2624050378799438
3999624333.0,-0.4930858612060547,0.1822481453418731,9.825352668762209,2.8948569297790527,1.1852091550827026,0.1657369136810302
3999632666.0,-0.5069522857666016,0.0558752305805683,10.131111145019531,2.685358047485352,1.0710464715957642,0.1068497821688652
3999640999.0,-0.5000218152999878,-0.155469924211502,10.125327110290527,2.4714279174804688,0.5807642936706543,0.0587718561291694
3999649332.0,-0.4648669362068176,-0.1851100325584411,9.781404495239258,2.587357759475708,0.2947814166545868,0.136972114443779
3999657665.0,-0.4510895907878876,0.0349084995687007,9.716107368469238,2.874877691268921,0.6163938045501709,0.0212982352823019
3999665998.0,-0.4758667051792145,0.0848216712474823,9.905107498168944,2.628801822662353,0.9606490135192872,0.1420437395572662
3999674331.0,-0.4010391235351562,-0.0775233283638954,10.089250564575195,2.7016489505767822,0.7975377440452576,0.0838225856423378
3999682664.0,-0.3905235230922699,-0.2149219065904617,9.925459861755373,2.674881935119629,0.3566398024559021,0.0859485566616058
3999690997.0,-0.3793283402919769,-0.0180510990321636,9.727540016174316,2.739198923110962,0.3962393999099731,0.0428398065268993
3999699330.0,-0.4546229243278503,0.1809164136648178,9.789864540100098,2.8016724586486816,0.9798341989517212,0.1096161231398582
3999707663.0,-0.523324191570282,0.0324641577899456,10.032238006591797,2.651316404342652,1.0677677392959597,0.0316463857889175
3999715996.0,-0.4975955486297607,-0.2836795449256897,10.120841979980469,2.605543851852417,0.5667276978492737,-0.0378322228789329
3999724329.0,-0.4689531326293945,-0.2628722786903381,9.81911849975586,2.73543381690979,0.305257648229599,0.0618455745279789
3999732662.0,-0.4435707628726959,0.0884753763675689,9.740238189697266,2.902233839035034,0.507251501083374,0.0147922225296497
3999740995.0,-0.4654669165611267,0.2789138555526733,9.939635276794434,2.7563092708587646,1.135850429534912,0.041482251137495
3999749328.0,-0.4144501090049743,0.0582163371145725,10.134895324707031,2.67142391204834,0.788367748260498,-0.0136780012398958
3999757661.0,-0.3372175991535187,-0.2838664650917053,9.958626747131348,2.535181760787964,0.3367888033390045,0.083668902516365
3999765994.0,-0.3517008423805237,-0.1919156312942505,9.655532836914062,2.780694007873535,0.5573785901069641,0.0337467528879642
3999774327.0,-0.4571274518966675,0.1167825385928154,9.730975151062012,2.780233144760132,1.0542947053909302,0.1346924602985382
3999782660.0,-0.5171388387680054,0.2030096799135208,10.063337326049805,2.76468563079834,1.117997407913208,0.1277766227722168
3999790993.0,-0.4642755687236786,-0.0329288989305496,10.186029434204102,2.560822010040283,0.6705166101455688,0.0459135174751281
3999799326.0,-0.4606202840805053,-0.1722857803106308,9.892285346984863,2.6307740211486816,0.3058723509311676,0.0892784148454666
3999807659.0,-0.4933759570121765,-0.0224905759096145,9.655263900756836,2.839273929595948,0.6283812522888184,0.0522146224975585
3999815992.0,-0.4993752241134643,0.1168298050761222,9.86479949951172,2.775264024734497,1.0983256101608276,0.1283145099878311
3999824325.0,-0.4289846420288086,0.0013115232577547,10.09266471862793,2.679006099700928,0.7978963255882263,0.0759590119123458
3999832658.0,-0.3635823130607605,-0.2208196073770523,10.013894081115724,2.638150930404663,0.2614573240280151,0.0765993744134903
3999840991.0,-0.3296407163143158,-0.0661734789609909,9.69826602935791,2.8013393878936768,0.3330234885215759,0.0608978457748889
3999849324.0,-0.4257069826126098,0.1945235431194305,9.72917366027832,2.875723123550415,1.075247287750244,0.1073108315467834
3999857657.0,-0.5226779580116272,0.1047219783067703,10.039268493652344,2.6512911319732666,1.3424549102783203,0.0516254901885986
3999865990.0,-0.4891110062599182,-0.2160651832818985,10.114068984985352,2.616814136505127,0.8795287609100342,0.0691456198692321
3999874323.0,-0.4665353000164032,-0.2818617224693298,9.852954864501951,2.7799770832061768,0.25758957862854,0.0525732189416885
3999882656.0,-0.4811952114105224,0.0667615458369255,9.707982063293455,2.899953842163086,0.7538141012191772,0.0788278058171272
3999890989.0,-0.5039690136909485,0.292021244764328,9.970850944519045,2.76880955696106,1.16448712348938,0.0662256106734275
3999899322.0,-0.4574615955352783,0.0867929235100746,10.115819931030272,2.664456844329834,0.8378801345825195,0.0379474908113479
3999907655.0,-0.3573550879955292,-0.1826969534158706,10.064227104187012,2.398683786392212,0.17821104824543,0.0647912099957466
3999915988.0,-0.3727708756923675,-0.1773819178342819,9.655413627624512,2.6319780349731445,0.0369229204952716,0.0804158970713615
3999924321.0,-0.4127377867698669,0.1181100979447364,9.678461074829102,2.82057523727417,0.8926688432693481,0.145629733800888
3999932654.0,-0.4530199468135834,0.1438250690698623,9.929558753967283,2.6723461151123047,1.3011647462844849,0.0931717827916145
3999940987.0,-0.4775994718074798,-0.0689680874347686,10.167698860168455,2.658411979675293,0.8016615509986877,0.0252428278326988
3999949320.0,-0.4851293563842773,-0.1468477547168731,9.921831130981444,2.6154823303222656,0.2572309672832489,0.1753422319889068
3999957653.0,-0.5070638060569763,0.0212353020906448,9.808867454528809,2.714199542999268,0.5583263039588928,0.0667635053396225
3999965986.0,-0.5057185888290405,0.1207089200615882,9.85393524169922,2.647756338119507,1.0862101316452026,0.0732439085841178
3999974319.0,-0.4251531362533569,-0.0635765641927719,10.040694236755373,2.6259586811065674,0.7728455066680908,0.0461184307932853
3999982652.0,-0.3806860744953155,-0.1711444109678268,9.93293285369873,2.5289576053619385,0.2118681371212005,-0.0472326502203941
3999990985.0,-0.3667971491813659,0.0193412061780691,9.78928565979004,2.739276170730591,0.3246732950210571,0.061563815921545
3999999318.0,-0.4368125200271606,0.1387432068586349,9.822649002075195,2.7912728786468506,1.075990080833435,-0.0232064984738826
4000007651.0,-0.4813260436058044,-0.0524063631892204,10.00851058959961,2.6634063720703125,1.0729930400848389,0.0988581329584121
4000015984.0,-0.4740954637527466,-0.2619738280773163,10.025612831115724,2.675137996673584,0.5254888534545898,0.0529830493032932
4000024317.0,-0.4637549519538879,-0.1714821904897689,9.875255584716797,2.73197603225708,0.280335009098053,0.0198638401925563
4000032650.0,-0.4706388711929321,0.1165687590837478,9.841291427612305,2.798035144805908,0.7861905097961426,0.025447741150856
4000040983.0,-0.4399808943271637,0.1430549472570419,9.998852729797363,2.678442478179932,1.0660772323608398,0.0903029888868331
4000049316.0,-0.3683749437332153,-0.1072060242295265,9.998414993286133,2.654415845870972,0.7192093133926392,0.080902561545372
4000057649.0,-0.3716906905174255,-0.1948056519031524,9.816134452819824,2.739839553833008,0.2702942192554474,-0.0043288054876029
4000065982.0,-0.4157664179801941,-0.0402761436998844,9.741125106811523,2.778849840164185,0.6914178133010864,0.0912507101893425
4000074315.0,-0.4627696275711059,0.0793489813804626,9.908876419067385,2.765991449356079,1.2797768115997314,0.0689663216471672
4000082648.0,-0.4499408900737762,-0.0056106830015778,10.076969146728516,2.695885419845581,1.0383882522583008,0.0818502902984619
4000090981.0,-0.4628571569919586,-0.09940105676651,9.952210426330566,2.577265977859497,0.5018213391304016,0.0778032392263412
4000099314.0,-0.5046892762184143,-0.0017221274320036,9.834295272827148,2.652392625808716,0.4622473120689392,0.1215011328458786
4000107647.0,-0.4479252398014068,0.0735567063093185,9.898571968078612,2.7353055477142334,0.7041224837303162,0.0754467248916626
4000115980.0,-0.3740453124046325,-0.0705194845795631,9.994940757751465,2.7014694213867188,0.8435152173042297,0.1397128403186798
4000124313.0,-0.3244050741195678,-0.1480058282613754,9.886770248413086,2.7281084060668945,0.3520036339759826,-0.0368076562881469
4000132646.0,-0.3743480145931244,-0.0316092781722545,9.764067649841309,2.728184938430786,0.5930335521697998,0.0659438446164131
4000140979.0,-0.4475016295909881,0.1228169128298759,9.879233360290527,2.676187992095948,0.9175915122032166,0.0822601094841957
4000149312.0,-0.477947860956192,0.0225106291472911,10.027532577514648,2.717247486114502,1.174015760421753,0.1888665854930877
4000157645.0,-0.4994091987609863,-0.1900408565998077,9.957337379455566,2.715992450714112,0.7453615069389343,0.1196056753396987
4000165978.0,-0.5222712159156799,-0.1339086443185806,9.761162757873535,2.789966583251953,0.5159091949462891,0.0564665831625461
4000174311.0,-0.5236721634864807,0.0596585981547832,9.857151985168455,2.7471141815185547,0.8292480707168579,0.1082841753959655
4000182644.0,-0.4328428506851196,0.1187589690089225,10.08541488647461,2.831897258758545,0.7721540331840515,0.0712203830480575
4000190977.0,-0.3790059089660644,-0.0373458340764045,10.031763076782228,2.6886112689971924,0.4909608960151672,0.1055178493261337
4000199310.0,-0.3660167753696441,-0.1204175874590873,9.747145652770996,2.6727302074432373,0.4163209795951843,0.0437619239091873
4000207643.0,-0.4088619947433471,0.0314752347767353,9.72492218017578,2.783921480178833,0.7592186331748962,0.0595146752893924
4000215976.0,-0.4504755735397339,0.0871952399611473,9.965275764465332,2.663201808929444,1.099222183227539,0.0616150423884391
4000224309.0,-0.479170024394989,-0.0428205505013465,10.073577880859377,2.679262161254883,0.8343709707260132,0.053213570266962
4000232642.0,-0.4977101981639862,-0.0837801620364189,9.911972045898438,2.6456046104431152,0.4722112119197845,0.0434033200144767
4000240975.0,-0.525040328502655,0.0065015694126486,9.819341659545898,2.8246994018554688,0.7201826572418213,0.1721660792827606
4000249308.0,-0.4882770180702209,0.1250055432319641,9.946273803710938,2.69160795211792,0.880399763584137,0.1154049485921859
4000257641.0,-0.4364238381385803,-0.011988503858447,10.064948081970217,2.539305686950684,0.7272521257400513,0.0958612784743309
4000265974.0,-0.3679196536540985,-0.153209313750267,9.893661499023438,2.6438374519348145,0.4013110101222992,0.0253708995878696
4000274307.0,-0.3583520948886871,-0.0447550490498542,9.719589233398438,2.820985078811645,0.4275400042533874,0.0393562689423561
4000282640.0,-0.4252546727657318,0.1190959066152572,9.83588695526123,2.7278521060943604,0.9762994647026062,0.0067493515089154
4000290973.0,-0.5012456178665161,0.0044801174663007,10.048495292663574,2.7058749198913574,1.1416648626327517,0.01717434450984
4000299306.0,-0.491469532251358,-0.1765461564064026,10.024622917175291,2.7232415676116943,0.6963102221488953,0.1187604069709777
4000307639.0,-0.4908331632614136,-0.1191331222653389,9.82716178894043,2.726648330688477,0.4285389482975006,0.0574143044650554
4000315972.0,-0.4801936745643616,0.1062022596597671,9.837030410766602,2.78479266166687,0.6939793229103088,0.144297793507576
4000324305.0,-0.435215562582016,0.1118424162268638,9.987439155578612,2.769475221633911,0.9358802437782288,0.0825162604451179
4000332638.0,-0.3823851346969604,-0.1365392953157425,10.016350746154783,2.6204259395599365,0.7079646587371826,0.0665073618292808
4000340971.0,-0.375433087348938,-0.1605835855007171,9.812610626220703,2.671884775161743,0.2452947199344635,0.0952977612614631
4000349304.0,-0.4324264526367187,0.0554820746183395,9.746038436889648,2.77749252319336,0.74459308385849,0.0946061760187149
4000357637.0,-0.479894608259201,0.111905537545681,9.9109525680542,2.720654249191284,1.034955978393555,0.091558076441288
4000365970.0,-0.4585048258304596,-0.0768564119935035,10.084831237792969,2.6054160594940186,0.9446146488189696,0.0749088302254676
4000374303.0,-0.4479121565818786,-0.1060657054185867,9.933981895446776,2.646347761154175,0.4309211075305938,0.1197849810123443
4000382636.0,-0.5126982927322388,0.0072839530184865,9.805689811706545,2.75671911239624,0.5424966812133789,0.0981409326195716
4000390969.0,-0.502524733543396,0.0520457699894905,9.90410327911377,2.7670161724090576,0.9361362457275392,0.1171467080712318
4000399302.0,-0.4020008146762848,-0.1205575838685035,10.052413940429688,2.625472068786621,0.7293782234191895,0.1507013589143753
4000407635.0,-0.3481669723987579,-0.156368151307106,9.911947250366213,2.660025119781494,0.3455232083797455,0.0522402301430702
4000415968.0,-0.3866755962371826,0.0369764454662799,9.738974571228027,2.800135612487793,0.6029975414276123,0.0118465842679142
4000424301.0,-0.4385460615158081,0.1200872063636779,9.873906135559082,2.843705177307129,1.0809334516525269,0.1270081847906112
4000432634.0,-0.4544872939586639,-0.0799901336431503,10.022668838500977,2.610974073410034,1.1158969402313232,0.1250102669000625
4000440967.0,-0.4957737326622009,-0.2252232879400253,9.93029499053955,2.6494719982147217,0.5874751806259155,0.0237572025507688
4000449300.0,-0.5067079067230225,-0.0798039585351944,9.802660942077637,2.8735456466674805,0.3282592296600342,0.1077206656336784
4000457633.0,-0.4724832475185394,0.1053381189703941,9.916955947875977,2.7993924617767334,0.8918235898017883,0.0505496971309185
4000465966.0,-0.4113345146179199,0.0888167470693588,10.057130813598633,2.6656606197357178,0.8984578251838684,-0.034502375870943
4000474299.0,-0.3923479914665222,-0.1413888782262802,9.948317527770996,2.772676706314087,0.6080434918403625,0.0228350907564163
4000482632.0,-0.3812518119812011,-0.111204132437706,9.763557434082031,2.781821250915528,0.5263853073120117,0.0045209126546978
4000490965.0,-0.4130786657333374,0.0279227327555418,9.809196472167969,2.791887760162353,0.7827070355415344,0.0727060139179229
4000499298.0,-0.4504802823066711,0.0537012703716754,9.978991508483888,2.7292096614837646,1.1314960718154907,0.0320818312466144
4000507631.0,-0.4803647994995117,-0.0667223036289215,10.041128158569336,2.602752447128296,0.8025068640708923,0.1151744127273559
4000515964.0,-0.505491316318512,-0.0681674629449844,9.903640747070312,2.7577695846557617,0.6193394064903259,-0.0002049139002338
4000524297.0,-0.5273921489715576,0.0371646657586097,9.825868606567385,2.649369955062866,0.8020713329315186,0.1046981886029243
4000532630.0,-0.5209697484970093,0.046769380569458,9.979225158691406,2.724726915359497,0.8900306224822998,-0.0109372790902853
4000540963.0,-0.4193319082260132,-0.0805804803967475,10.045289039611816,2.721090078353882,0.7550692558288574,0.0478089712560176
4000549296.0,-0.334075391292572,-0.1176155060529708,9.83882999420166,2.71120285987854,0.1872528642416,-0.0334778055548667
4000557629.0,-0.3799875378608703,0.0394571535289287,9.714550018310549,2.711843013763428,0.6730268001556396,-0.0159064382314682
4000565962.0,-0.4627739489078522,0.0940676108002662,9.862363815307615,2.6778018474578857,1.206161618232727,0.058438878506422
4000574295.0,-0.4674251675605774,-0.0712519139051437,10.055086135864258,2.642761707305908,1.0407449007034302,0.1604859977960586
4000582628.0,-0.4893087446689605,-0.1627902090549469,9.93796730041504,2.748522520065308,0.6213116645812988,0.0348481647670269
4000590961.0,-0.5287469029426575,-0.0316758342087268,9.801995277404783,2.807640314102173,0.5579933524131775,0.0855131298303604
4000599294.0,-0.5022991895675659,0.1405317634344101,9.97169589996338,2.7754945755004883,0.9474064707756042,0.0576704479753971
4000607627.0,-0.3965569734573364,0.0430432930588722,10.114583015441896,2.594401836395264,0.7637012600898743,0.0555444732308387
4000615960.0,-0.346220999956131,-0.1329378634691238,9.91334342956543,2.630415916442871,0.4153732657432556,0.0004226349119562
4000624293.0,-0.3819844722747803,-0.0658834651112556,9.690234184265137,2.720014333724976,0.512732982635498,0.0667635053396225
4000632626.0,-0.3981199860572815,0.0699932277202606,9.835227012634276,2.8533618450164795,1.017691969871521,-0.0070695294998586
4000640959.0,-0.4183799028396606,0.0543999187648296,10.023198127746582,2.7523138523101807,0.8800410628318787,0.1041090562939643
4000649292.0,-0.4732628762722015,-0.1013658866286277,9.967432022094728,2.5471949577331543,0.5114778876304626,0.1030844822525978
4000657625.0,-0.4948871731758117,-0.0472540259361267,9.818230628967283,2.630159378051758,0.7051727175712585,0.0794425532221794
4000665958.0,-0.5041620135307312,0.0748234391212463,9.853529930114746,2.6758294105529785,0.9431802034378052,-0.0043288054876029
4000674291.0,-0.5019024610519409,0.0213013887405395,9.991168975830078,2.66589093208313,1.0916402339935305,0.0714765265583992
4000682624.0,-0.4372905492782593,-0.1446556597948074,10.001285552978516,2.634974956512451,0.5179582238197327,0.0709898546338081
4000690957.0,-0.3390985429286957,-0.0810441821813583,9.845735549926758,2.7870209217071533,0.3858400285243988,0.0667891204357147
4000699290.0,-0.3423085808753967,0.1185232177376747,9.806452751159668,2.8865578174591064,0.6766897439956665,0.0889966636896133
4000707623.0,-0.421286016702652,0.0872280374169349,9.882235527038574,2.7459099292755127,1.2239633798599243,0.1670432239770889
4000715956.0,-0.4275345206260681,-0.1426208466291427,9.983020782470703,2.5893561840057373,0.9650548100471495,0.1264446824789047
4000724289.0,-0.4577797055244446,-0.2108548432588577,9.910120010375977,2.659205675125122,0.4155781269073486,0.0858204960823059
4000732622.0,-0.5041520595550537,-0.0169703345745801,9.813668251037598,2.8178343772888184,0.4607616364955902,0.0939401984214782
4000740955.0,-0.5148786306381226,0.1512181907892227,9.90932559967041,2.808126926422119,1.0381320714950562,0.0539051555097103
4000749288.0,-0.433484137058258,0.0091306837275624,10.130043983459473,2.6978321075439453,0.8570907711982727,0.0528293624520301
4000757621.0,-0.3835830688476562,-0.1322253197431564,9.93174648284912,2.6225008964538574,0.2259816080331802,0.1239601075649261
4000765954.0,-0.4513843953609466,-0.0486979931592941,9.699878692626951,2.708897352218628,0.5588129758834839,0.0034963435027748
4000774287.0,-0.4473083913326263,0.0669981837272644,9.845293998718262,2.863043785095215,1.0226868391036987,0.0539563857018947
4000782620.0,-0.413983553647995,-0.0057034427300095,10.077807426452637,2.76135516166687,1.0485570430755615,0.0298533905297517
4000790953.0,-0.4535793960094452,-0.1163604333996772,9.97103214263916,2.660230159759521,0.5064574480056763,0.0118465842679142
4000799286.0,-0.4866460561752319,-0.0081651294603943,9.79974365234375,2.739506483078003,0.6389086842536926,0.0350018516182899
4000807619.0,-0.5053583979606628,0.0967887341976165,9.942949295043944,2.731693983078003,1.029346585273743,0.0838481932878494
4000815952.0,-0.4407745599746704,-0.0024903747253119,10.051770210266112,2.6720387935638428,0.8017640709877014,0.0752162039279937
4000824285.0,-0.416216641664505,-0.1435766071081161,9.93901538848877,2.5641002655029297,0.4896032810211181,0.0898419320583343
4000832618.0,-0.3424764275550842,-0.0717179477214813,9.789748191833496,2.738353967666626,0.4496195018291473,0.074037954211235
4000840951.0,-0.3883369863033294,0.1073005944490432,9.88487720489502,2.817322969436645,0.8102167248725891,0.1550045609474182
4000849284.0,-0.4589029848575592,0.0327936373651027,9.926980018615724,2.5933003425598145,0.9860839247703552,0.1071315333247184
4000857617.0,-0.4945510625839233,-0.1390459239482879,9.928332328796388,2.546989917755127,0.9385440945625304,0.0362569540739059
4000865950.0,-0.5136403441429138,-0.1567054092884063,9.9012451171875,2.759357690811157,0.5466718077659607,0.1358194798231125
4000874283.0,-0.5293907523155212,0.0411854498088359,9.85085105895996,2.7811293601989746,0.6710801124572754,0.0574655383825302
4000882616.0,-0.4995374977588653,0.0935100317001342,9.945442199707031,2.6804656982421875,0.8766343593597412,0.1210400685667991
4000890949.0,-0.3883062303066253,-0.0722273737192154,10.057591438293455,2.6664035320281982,0.511810839176178,0.1443234086036682
4000899282.0,-0.349615067243576,-0.1186649203300476,9.831095695495604,2.541457176208496,0.3228802680969238,0.0949903801083564
4000907615.0,-0.401096910238266,-0.0052390610799193,9.66559886932373,2.759972333908081,0.5302274823188782,0.0175329465419054
4000915948.0,-0.3972504734992981,0.1035041287541389,9.869290351867676,2.7705509662628174,1.1614646911621094,0.0564409680664539
4000924281.0,-0.4159881174564361,-0.0109577700495719,10.12360954284668,2.704030990600586,0.8452056646347046,-0.0755363851785659
4000932614.0,-0.4719791412353515,-0.1254139989614486,9.913561820983888,2.6905834674835205,0.4428316950798034,0.0035475713666528
4000940947.0,-0.5664562582969666,-0.0058489334769546,9.7371244430542,2.75216007232666,0.728917121887207,-0.0285854898393154
4000949280.0,-0.5076995491981506,0.0903318598866462,9.948824882507324,2.7165303230285645,1.1845942735671997,0.0357702784240245
4000957613.0,-0.4527173638343811,-0.0186859723180532,10.116847038269045,2.6507275104522705,0.6417262554168701,0.1103076934814453
4000965946.0,-0.4141832590103149,-0.1537215411663055,9.888333320617676,2.69875431060791,0.3755687177181244,0.0413541793823242
4000974279.0,-0.3587269484996795,0.00322693772614,9.782424926757812,2.666762113571167,0.4942650496959686,-0.0171615369617939
4000982612.0,-0.3435521423816681,0.1460460871458053,9.847166061401367,2.86470890045166,0.9775543808937072,0.0830029249191284
4000990945.0,-0.4550069570541382,-0.0207610372453928,9.94040298461914,2.5697097778320312,1.0776036977767944,0.0071847937069833
4000999278.0,-0.4433656334877014,-0.1814012080430984,9.951004981994627,2.690096616744995,0.8105239868164062,-0.0063523300923407
4001007611.0,-0.4587597846984863,-0.0918491184711456,9.878507614135742,2.7806687355041504,0.4897826313972473,-0.06928651034832
4001015944.0,-0.5189149379730225,0.0883656069636344,9.878536224365234,2.8571271896362305,0.7810165286064148,0.0628701448440551
4001024277.0,-0.4803267121315002,0.0993463173508644,9.996949195861816,2.7245988845825195,0.8895695805549622,0.1064655631780624
4001032610.0,-0.4047518968582153,-0.1059055775403976,10.069910049438477,2.705670118331909,0.5726959109306335,-0.0430831462144851
4001040943.0,-0.3825798332691192,-0.1203168481588363,9.83649444580078,2.622910499572754,0.2895561158657074,-0.0311469100415706
4001049276.0,-0.4310702383518219,0.0048730988055467,9.675451278686523,2.7499313354492188,0.641342043876648,0.0427885763347148
4001057609.0,-0.4225016236305237,0.0632019639015197,9.956021308898926,2.828490257263184,1.082931399345398,0.034899391233921
4001065942.0,-0.4053773283958435,-0.0288919098675251,10.115131378173828,2.7157108783721924,0.7642647624015808,0.1046981886029243
4001074275.0,-0.4906220734119415,-0.0958374515175819,9.871109008789062,2.51776385307312,0.2978550791740417,-0.0095541095361113
4001082608.0,-0.5144830346107483,0.035276785492897,9.786226272583008,2.6591546535491943,0.8317326307296753,-0.0435185879468917
