SampleTimeFine,Acc_X,Acc_Y,Acc_Z,Gyr_X,Gyr_Y,Gyr_Z
3274561670.0,0.0,0.0,0.0,0.0,0.0,0.0
3274570003.0,-0.4325226843357086,0.2515541315078735,9.895691871643066,1.6032077074050903,0.6296619176864624,0.4752593040466308
3274578336.0,-0.4427539408206939,0.3965472877025604,9.79114818572998,1.6580992937088013,0.8961524963378906,0.4800748527050018
3274586669.0,-0.5365030765533447,0.5683850049972534,9.63783359527588,1.6169112920761108,1.5409393310546875,0.5201098322868347
3274595002.0,-0.5954533815383911,0.4499720633029938,9.766088485717772,1.6465214490890503,1.5955235958099363,0.5484647750854492
3274603335.0,-0.5661329627037048,0.2259709239006042,9.995905876159668,1.6154769659042358,0.9513511061668396,0.4511051177978515
3274611668.0,-0.502461850643158,0.2670231759548187,9.882638931274414,1.6340217590332031,0.7667236924171448,0.5534083247184753
3274620001.0,-0.4912186861038208,0.5542619824409485,9.67013168334961,1.7690342664718628,1.1986820697784424,0.5282551646232605
3274628334.0,-0.4678688943386078,0.6256415247917175,9.641631126403809,1.6510294675827026,1.5034146308898926,0.4718014001846313
3274636667.0,-0.428193598985672,0.394598126411438,9.828653335571287,1.4249838590621948,1.0720196962356567,0.5891145467758179
3274645000.0,-0.4136775135993957,0.2427674829959869,9.921172142028809,1.4392253160476685,0.6817100644111633,0.4136058688163757
3274653333.0,-0.4797968566417694,0.3820672035217285,9.742875099182127,1.654564380645752,1.1439446210861206,0.5322510600090027
3274661666.0,-0.5380154848098755,0.5810344815254211,9.666872024536133,1.7447007894515991,1.7719030380249023,0.5656519532203674
3274669999.0,-0.5719935894012451,0.5053744912147522,9.84117317199707,1.540990710258484,1.475443959236145,0.5223638415336609
3274678332.0,-0.5083767771720886,0.3160071074962616,9.993680953979492,1.421346664428711,0.8535047173500061,0.4756435453891754
3274686665.0,-0.5037472248077393,0.3400382697582245,9.83288860321045,1.5213701725006104,0.8323729634284973,0.5355295538902283
3274694998.0,-0.4859475791454315,0.5279251933097839,9.66610050201416,1.731637477874756,1.4583848714828491,0.5227225422859192
3274703331.0,-0.4561405181884765,0.482875794172287,9.764132499694824,1.5285165309906006,1.4931176900863647,0.5014882683753967
3274711664.0,-0.3863588273525238,0.2810952067375183,9.917502403259276,1.537020564079285,0.7827838063240051,0.4718014001846313
3274719997.0,-0.3842234909534454,0.3357448875904083,9.83664321899414,1.653386116027832,0.7246395945549011,0.4862478971481323
3274728330.0,-0.4533203244209289,0.5377541780471802,9.612703323364258,1.6443697214126587,1.3944517374038696,0.5859127640724182
3274736663.0,-0.5182280540466309,0.5562858581542969,9.659829139709473,1.5003410577774048,1.8595038652420044,0.6204664707183838
3274744996.0,-0.5398528575897217,0.3019223809242248,9.913111686706545,1.34901225566864,1.3312358856201172,0.4368380010128021
3274753329.0,-0.5274709463119507,0.1891767382621765,10.010366439819336,1.58117938041687,0.703097939491272,0.3600977063179016
3274761662.0,-0.4975788295269012,0.4126228392124176,9.787307739257812,1.6787186861038208,0.8771979212760925,0.5080968737602234
3274769995.0,-0.5080980658531189,0.6391449570655823,9.638389587402344,1.7449824810028076,1.486688494682312,0.5115033984184265
3274778328.0,-0.4513317048549652,0.5392777323722839,9.738961219787598,1.4698858261108398,1.3761632442474363,0.4476984143257141
3274786661.0,-0.3976549506187439,0.2699770033359527,9.9152193069458,1.367761731147766,0.6818124651908875,0.461402028799057
3274794994.0,-0.419220358133316,0.2893381416797638,9.822936058044434,1.507615327835083,0.9529135227203368,0.5001563429832458
3274803327.0,-0.5243573188781738,0.4873619973659515,9.655838012695312,1.7756427526474,1.5608161687850952,0.6244365572929382
3274811660.0,-0.5685675740242004,0.5551404356956482,9.737340927124023,1.508665680885315,1.7753353118896484,0.586553156375885
3274819993.0,-0.5662074089050293,0.373887300491333,9.91999340057373,1.427417278289795,1.1002720594406128,0.5403194427490234
3274828326.0,-0.5325068831443787,0.2954031229019165,9.935209274291992,1.5318976640701294,0.5868092775344849,0.5418562889099121
3274836659.0,-0.5278818011283875,0.440173476934433,9.734282493591309,1.598136067390442,1.211617350578308,0.5217491388320923
3274844992.0,-0.5181435346603394,0.4946260452270508,9.66966438293457,1.5592535734176636,1.647366642951965,0.571901798248291
3274853325.0,-0.4660964906215668,0.3248107433319092,9.865561485290527,1.3925050497055054,1.2505509853363037,0.544059157371521
3274861658.0,-0.4040426313877105,0.2297278642654419,9.92368984222412,1.493502140045166,0.5957742929458618,0.472262442111969
3274869991.0,-0.4287194609642029,0.4121938943862915,9.71523094177246,1.595113754272461,1.0236858129501345,0.4359927177429199
3274878324.0,-0.5499649047851562,0.5923594236373901,9.571146965026855,1.6461373567581177,1.845928430557251,0.4194971621036529
3274886657.0,-0.5887829065322876,0.4169721007347107,9.84933090209961,1.525980830192566,1.603182077407837,0.4134777784347534
3274894990.0,-0.5331615209579468,0.1646737903356552,10.014817237854004,1.3459126949310305,0.8944106101989746,0.4892702996730804
3274903323.0,-0.5015369057655334,0.2933840751647949,9.879801750183104,1.589299201965332,0.8494577407836914,0.4515149295330047
3274911656.0,-0.505623459815979,0.5533534288406372,9.65121364593506,1.6845587491989136,1.4041340351104736,0.5506420731544495
3274919989.0,-0.4803211092948913,0.6128798127174377,9.685407638549805,1.5753140449523926,1.5455502271652222,0.500489354133606
3274928322.0,-0.4130723476409912,0.3487829267978668,9.852521896362305,1.3847439289093018,1.1883083581924438,0.4861453473567962
3274936655.0,-0.4143081903457641,0.2593067288398742,9.87591552734375,1.4418123960494995,0.7965897917747498,0.577383279800415
3274944988.0,-0.4766563773155212,0.3870010077953338,9.674595832824709,1.6392980813980105,1.2410224676132202,0.5361698865890503
3274953321.0,-0.5088256001472473,0.5816546082496643,9.676127433776855,1.593397617340088,1.811502814292908,0.5469279885292053
3274961654.0,-0.544827401638031,0.4221055209636688,9.841217041015623,1.4188876152038574,1.2876403331756592,0.4945211708545685
3274969987.0,-0.5325502157211304,0.3087246716022491,9.97067165374756,1.464890956878662,0.7630609273910522,0.4119665324687958
3274978320.0,-0.4982207417488098,0.4135995805263519,9.791152000427246,1.6297699213027954,0.9734818935394288,0.4785636067390442
3274986653.0,-0.5148136615753174,0.509752094745636,9.667713165283203,1.5754932165145874,1.553080677986145,0.5293565988540649
3274994986.0,-0.4804330766201019,0.4701391160488128,9.78466796875,1.500443458557129,1.4307984113693235,0.4195739924907684
3275003319.0,-0.422800213098526,0.2747418582439422,9.922043800354004,1.460741400718689,0.8612658977508545,0.4382467865943908
3275011652.0,-0.3732947707176208,0.3633181154727936,9.876038551330566,1.517733097076416,0.8712809681892395,0.5649603605270386
3275019985.0,-0.4541216194629669,0.5798965692520142,9.590635299682615,1.617398023605347,1.4378677606582642,0.4874772727489471
3275028318.0,-0.5282346606254578,0.5013089776039124,9.706048965454102,1.521754503250122,1.783019781112671,0.484454870223999
3275036651.0,-0.550180971622467,0.3134053349494934,9.967562675476074,1.4663764238357544,1.2671488523483276,0.5321229100227356
3275044984.0,-0.5172829031944275,0.2344038188457489,10.001152992248535,1.5874806642532349,0.7930039167404175,0.5039729475975037
3275053317.0,-0.5135325193405151,0.4766304790973663,9.834381103515623,1.6441649198532104,1.1040631532669067,0.4665760993957519
3275061650.0,-0.5259143114089966,0.6646294593811035,9.687095642089844,1.5248537063598633,1.5003923177719116,0.5968756675720215
3275069983.0,-0.4481644332408905,0.4686500132083893,9.795592308044434,1.5387367010116575,1.331005334854126,0.6205432415008545
3275078316.0,-0.4208233952522278,0.2433754056692123,9.90585231781006,1.3330031633377075,0.8879814147949219,0.4005169570446014
3275086649.0,-0.4586034119129181,0.3013989925384521,9.847848892211914,1.4631489515304563,1.048172950744629,0.5222357511520386
3275094982.0,-0.5278632044792175,0.5144346952438354,9.669062614440918,1.6349952220916748,1.5455758571624756,0.4635024070739746
3275103315.0,-0.5401198267936707,0.5199325680732727,9.795806884765623,1.5365852117538452,1.7350953817367554,0.51035076379776
3275111648.0,-0.5385561585426331,0.3244111835956573,9.97510051727295,1.454235315322876,1.1061122417449951,0.3993387222290039
3275119981.0,-0.5510306358337402,0.3297986090183258,9.939762115478516,1.4988809823989868,0.801226019859314,0.4956226050853729
3275128314.0,-0.5518081784248352,0.4974778294563293,9.662075996398926,1.6201387643814087,1.1491955518722534,0.4497475922107696
3275136647.0,-0.5239471197128296,0.4466789364814758,9.674213409423828,1.410973072052002,1.5771068334579468,0.3754150569438934
3275144980.0,-0.4433492720127105,0.2793825268745422,9.835765838623049,1.3544423580169678,1.1553171873092651,0.4076121151447296
3275153313.0,-0.4245808124542236,0.252326101064682,9.965779304504396,1.4160702228546145,0.9553470015525818,0.509941041469574
3275161646.0,-0.488649845123291,0.4610603451728821,9.753046989440918,1.6672433614730835,1.302778244018555,0.5942886471748352
3275169979.0,-0.5576947927474976,0.5435822606086731,9.638708114624023,1.5609185695648191,1.4858945608139038,0.5047412514686584
3275178312.0,-0.5139411091804504,0.3222546577453613,9.81119155883789,1.353443264961243,1.299858331680298,0.4996696412563324
3275186645.0,-0.5096890926361084,0.196849524974823,10.03958797454834,1.519910216331482,0.9410797953605652,0.4923952221870422
3275194978.0,-0.50863116979599,0.3505171537399292,9.85366153717041,1.6787440776824951,1.1591593027114868,0.5284600853919983
3275203311.0,-0.5261116027832031,0.601363480091095,9.63089084625244,1.5861998796463013,1.4047229290008545,0.4531286358833313
3275211644.0,-0.4611490666866302,0.539156973361969,9.723620414733888,1.419758439064026,1.1394363641738892,0.5007454752922058
3275219977.0,-0.4030042886734009,0.2997328639030456,9.895174026489258,1.399343967437744,0.7844487428665161,0.5424454808235168
3275228310.0,-0.4017485976219177,0.2431524246931076,9.846039772033691,1.4827439785003662,1.0754776000976562,0.6990764737129211
3275236643.0,-0.4919072985649109,0.4205279052257538,9.608104705810549,1.595113754272461,1.5932437181472778,0.5905746221542358
3275244976.0,-0.5076436996459961,0.4659219086170196,9.671830177307127,1.577311873435974,1.6871711015701294,0.5044339299201965
3275253309.0,-0.5032324194908142,0.3129633665084839,9.8941068649292,1.5101255178451538,1.0099563598632812,0.4911657273769378
3275261642.0,-0.4908876121044159,0.2926372587680816,9.846880912780762,1.653642177581787,0.7442856431007385,0.4140925109386444
3275269975.0,-0.5157673954963684,0.4050401151180267,9.63172721862793,1.7489269971847534,1.1099544763565063,0.5764099359512329
3275278308.0,-0.5262529850006104,0.4983490109443664,9.594564437866213,1.605743646621704,1.5971627235412598,0.5544329285621643
3275286641.0,-0.4695963263511657,0.3422762453556061,9.84816074371338,1.576210379600525,1.162181735038757,0.4382723569869995
3275294974.0,-0.4061228632926941,0.3091015517711639,9.957473754882812,1.5503144264221191,0.6897785067558289,0.4576880037784576
3275303307.0,-0.3894919157028198,0.4482646286487579,9.765880584716797,1.751078724861145,0.971432626247406,0.523567795753479
3275311640.0,-0.4856854081153869,0.5803693532943726,9.613397598266602,1.6593798398971558,1.5713692903518677,0.4723905026912689
3275319973.0,-0.5254122018814087,0.4614245295524597,9.848433494567873,1.412253737449646,1.5202434062957764,0.5293822288513184
3275328306.0,-0.5518364310264587,0.2733864486217499,10.07835865020752,1.3650721311569214,1.0788074731826782,0.5540486574172974
3275336639.0,-0.5374430418014526,0.2982541918754577,9.977028846740724,1.615425705909729,0.8440786600112915,0.4927794337272644
3275344972.0,-0.5376766324043274,0.5475589632987976,9.74997615814209,1.6997480392456057,1.3225014209747314,0.560221791267395
3275353305.0,-0.5539014339447021,0.6602751612663269,9.752421379089355,1.549648404121399,1.4671961069107056,0.470418244600296
3275361638.0,-0.4686842262744903,0.4188869893550873,9.901437759399414,1.3124349117279053,1.2256795167922974,0.5823267698287964
3275369971.0,-0.4576868116855621,0.2561490833759308,9.936952590942385,1.368094801902771,0.93157696723938,0.4888092279434204
3275378304.0,-0.4482671916484833,0.3921935260295868,9.785545349121094,1.6390163898468018,1.2053418159484863,0.5635004043579102
3275386637.0,-0.5261361002922058,0.5709770321846008,9.633721351623535,1.573444128036499,1.6111739873886108,0.494546890258789
3275394970.0,-0.5363894104957581,0.491580605506897,9.833359718322754,1.5624297857284546,1.4911198616027832,0.4316127002239227
3275403303.0,-0.541128933429718,0.3454032838344574,9.982598304748535,1.4137393236160278,0.8699234127998352,0.5154992341995239
3275411636.0,-0.5659258961677551,0.3487202823162079,9.816360473632812,1.5699090957641602,0.8920541405677795,0.5227737426757812
3275419969.0,-0.6019496321678162,0.4827469885349273,9.593796730041504,1.6636571884155271,1.5242133140563965,0.4694192707538605
3275428302.0,-0.5312798619270325,0.4619569182395935,9.633283615112305,1.587301254272461,1.3714756965637207,0.4376832246780395
3275436635.0,-0.4403688311576843,0.329998105764389,9.935193061828612,1.4779798984527588,0.7152391672134399,0.4493633806705475
3275444968.0,-0.3896594643592834,0.4117124676704407,9.876047134399414,1.5662976503372192,0.6607831716537476,0.457457423210144
3275453301.0,-0.4675648808479309,0.6365630626678467,9.592218399047852,1.5863535404205322,1.2204029560089111,0.5137830972671509
3275461634.0,-0.4862612187862396,0.5993874669075012,9.57855224609375,1.300140142440796,1.8159340620040887,0.5780492424964905
3275469967.0,-0.4958302676677704,0.382338672876358,9.930852890014648,1.211489200592041,1.1714541912078855,0.5867836475372314
3275478300.0,-0.4806138277053833,0.2805845737457275,10.041711807250977,1.3248833417892456,0.6925704479217529,0.5875265002250671
3275486633.0,-0.5074824094772339,0.486123651266098,9.817089080810549,1.4496504068374634,0.9288874864578248,0.5652934312820435
3275494966.0,-0.5349144339561462,0.6690120697021484,9.619586944580078,1.3325166702270508,1.4476525783538818,0.5263341069221497
3275503299.0,-0.4557360708713531,0.5361840724945068,9.81350040435791,1.140332818031311,1.2794437408447266,0.5720810890197754
3275511632.0,-0.3982989192008972,0.3269063830375671,9.976706504821776,1.0730187892913818,0.8380337357521057,0.430408775806427
3275519965.0,-0.4136779606342315,0.3429984748363495,9.819847106933594,1.3092331886291504,0.972559690475464,0.4803822040557861
3275528298.0,-0.4780037999153137,0.507565975189209,9.708250999450684,1.383949875831604,1.5495458841323853,0.628201961517334
3275536631.0,-0.5114518404006958,0.4975295960903168,9.846579551696776,1.2621285915374756,1.619344711303711,0.5584287047386169
3275544964.0,-0.4661436080932617,0.3707461655139923,10.008143424987791,1.0446124076843262,0.9499934911727904,0.5249509215354919
3275553297.0,-0.4975803792476654,0.3376213312149048,9.93394660949707,1.0963020324707031,0.8781710863113403,0.5472865104675293
3275561630.0,-0.5215039253234863,0.4649896025657654,9.708417892456056,1.1860798597335815,1.4163519144058228,0.5126560926437378
3275569963.0,-0.509965717792511,0.471898466348648,9.727144241333008,1.3785452842712402,1.575800538063049,0.4800748527050018
3275578296.0,-0.4499782025814056,0.2753057777881622,9.917817115783691,1.1642309427261353,1.0629522800445557,0.4031296074390411
3275586629.0,-0.389322280883789,0.2207366824150085,9.933268547058104,1.3629206418991089,0.6815563440322876,0.3937035799026489
3275594962.0,-0.4566342830657959,0.4024142026901245,9.692063331604004,1.36256206035614,1.1578530073165894,0.4037443697452545
3275603295.0,-0.5508127808570862,0.5003716349601746,9.518439292907717,1.4997519254684448,1.7660374641418457,0.4005169868469238
3275611628.0,-0.5566713213920593,0.3214110434055328,9.759973526000977,1.2967336177825928,1.481360912322998,0.4680105447769165
3275619961.0,-0.5508118271827698,0.1102539226412773,9.967565536499023,1.4000356197357178,0.8217686414718628,0.4109675884246826
3275628294.0,-0.5266671180725098,0.2070333212614059,9.820974349975586,1.5595097541809082,0.9176427721977234,0.4856330752372741
3275636627.0,-0.5383133888244629,0.4569918513298034,9.582481384277344,1.5853800773620603,1.37250018119812,0.6317878365516663
3275644960.0,-0.4997525811195373,0.45813649892807,9.61398220062256,1.4908380508422852,1.4013419151306152,0.5722348093986511
3275653293.0,-0.4154872000217438,0.2601703703403473,9.88935661315918,1.2356947660446167,0.8361382484436035,0.5182912349700928
3275661626.0,-0.400602787733078,0.210383728146553,9.879562377929688,1.4577958583831787,0.6773044466972351,0.59428870677948
3275669959.0,-0.4705469608306885,0.3719427585601806,9.600595474243164,1.6007744073867798,1.3601030111312866,0.5398840308189392
3275678292.0,-0.5356293320655823,0.4732424914836883,9.570761680603027,1.4904282093048096,1.6745177507400513,0.6248719692230225
3275686625.0,-0.4979686439037323,0.3684308528900146,9.943404197692873,1.47805655002594,1.15144944190979,0.5259754657745361
3275694958.0,-0.5027375817298889,0.2925727367401123,10.000554084777832,1.382361888885498,0.7338350415229797,0.5665484666824341
3275703291.0,-0.517950177192688,0.3873307406902313,9.777230262756348,1.4702186584472656,1.0244284868240356,0.5861945152282715
3275711624.0,-0.5522658228874207,0.4585095643997192,9.667037963867188,1.4512897729873655,1.5640949010849,0.5316874980926514
3275719957.0,-0.4629116356372833,0.3806164264678955,9.875251770019531,1.269479751586914,1.2691980600357056,0.4765656292438507
3275728290.0,-0.3875755667686462,0.2661343514919281,10.0435209274292,1.4640456438064575,0.7451052665710449,0.5184449553489685
3275736623.0,-0.3576837480068207,0.381038635969162,9.897594451904297,1.3990111351013184,0.8175936341285706,0.4944700002670288
3275744956.0,-0.4462544322013855,0.5807216167449951,9.66311740875244,1.475853681564331,1.681843400001526,0.5860152244567871
3275753289.0,-0.4962703883647918,0.5300208330154419,9.773128509521484,1.287563443183899,1.7079187631607056,0.4610946476459503
3275761622.0,-0.5174610614776611,0.3317393958568573,10.05170440673828,1.2150239944458008,1.2095425128936768,0.3985446691513061
3275769955.0,-0.5047332048416138,0.2928874492645263,10.115686416625977,1.3215535879135132,0.7841669917106628,0.4529748857021332
3275778288.0,-0.5214858651161194,0.5626343488693237,9.859888076782228,1.45787250995636,1.2362838983535769,0.4550240635871887
3275786621.0,-0.531199038028717,0.7168905735015869,9.706149101257324,1.3087464570999146,1.6479045152664185,0.5090188384056091
3275794954.0,-0.4528035819530487,0.5913755893707275,9.928532600402832,0.980167031288147,1.2567239999771118,0.4442917108535766
3275803287.0,-0.4114887416362762,0.4153155088424682,10.091581344604492,0.858371376991272,0.6925705075263977,0.4037699997425079
3275811620.0,-0.4275180995464325,0.5148117542266846,9.956592559814451,1.0190751552581787,1.150194525718689,0.5086090564727783
3275819953.0,-0.514388382434845,0.7164102792739868,9.724039077758787,1.102090835571289,1.7612475156784058,0.5105558037757874
3275828286.0,-0.5559980869293213,0.6674129962921143,9.890950202941896,0.8658507466316223,1.5368156433105469,0.4188311398029327
3275836619.0,-0.5587657690048218,0.5496816635131836,10.157588005065918,0.6207737922668457,1.0098284482955933,0.3091510236263275
3275844952.0,-0.552557110786438,0.5693805813789368,10.102160453796388,0.7603457570075989,0.8414404392242432,0.5444434285163879
3275853285.0,-0.5550320148468018,0.6773813962936401,9.768966674804688,0.7680813074111938,1.2423800230026243,0.4079450964927673
3275861618.0,-0.5989372134208679,0.6027340292930603,9.740242004394531,0.666008472442627,1.5815380811691284,0.4080987870693207
3275869951.0,-0.5025373101234436,0.435200423002243,10.060044288635254,0.4558181762695312,1.0381577014923096,0.4949310421943664
3275878284.0,-0.4589478671550751,0.4197073578834533,10.056059837341309,0.6301997900009155,0.6806598901748657,0.4368636310100555
3275886617.0,-0.4802990853786468,0.5740299820899963,9.72313117980957,0.6910336017608643,1.050145149230957,0.5438798666000366
3275894950.0,-0.5555292963981628,0.5654535889625549,9.610716819763184,0.6141909956932068,1.5928597450256348,0.4954689741134643
3275903283.0,-0.6012322306632996,0.3576993644237518,9.875085830688477,0.4033601284027099,1.3390223979949951,0.4859660565853119
3275911616.0,-0.5933783650398254,0.2514152824878692,10.067554473876951,0.5721323490142822,0.9306291937828064,0.618750274181366
3275919949.0,-0.5648242235183716,0.3310621976852417,9.82800579071045,0.8734838962554932,0.7369856238365173,0.5708260536193848
3275928282.0,-0.5649813413619995,0.5014646053314209,9.582297325134276,0.8984577059745789,1.1589288711547852,0.5495662689208984
3275936615.0,-0.5346750020980835,0.4425678551197052,9.692288398742676,0.67991703748703,1.2622566223144531,0.687857449054718
3275944948.0,-0.4880098700523376,0.2940104603767395,9.875600814819336,0.5773320198059082,0.838161826133728,0.6786107420921326
3275953281.0,-0.4793763756752014,0.2477673292160034,9.795103073120115,0.810088574886322,0.7614983916282654,0.6856545805931091
3275961614.0,-0.5212348103523254,0.372963547706604,9.553823471069336,1.0223537683486938,1.0601346492767334,0.6432374715805054
3275969947.0,-0.5641058087348938,0.3637148141860962,9.605514526367188,0.9590352773666382,1.2510119676589966,0.6736927628517151
3275978280.0,-0.550104022026062,0.2958555519580841,9.864200592041016,0.6979750394821167,0.9088571071624756,0.6215165853500366
3275986613.0,-0.5610763430595398,0.2796688377857208,9.846403121948242,0.8752768039703369,0.7581941485404968,0.6570435166358948
3275994946.0,-0.5225867033004761,0.3193386793136596,9.584895133972168,0.9014546871185304,1.0241724252700806,0.5838636755943298
3276003279.0,-0.5366634726524353,0.2999044060707092,9.55355167388916,0.8695648312568665,1.0708415508270264,0.5341208577156067
3276011612.0,-0.4694840013980865,0.2223818898200988,9.755669593811035,0.8879558444023132,0.8084493279457092,0.5726958513259888
3276019945.0,-0.3869187235832214,0.1888493597507476,9.822176933288574,0.8576542139053345,0.7220268845558167,0.57082599401474
3276028278.0,-0.4023045003414154,0.2889176309108734,9.623785018920898,0.9863145351409912,0.7673384547233582,0.5753085613250732
3276036611.0,-0.4565575420856476,0.3291139602661133,9.427197456359863,0.9840349555015564,1.240254282951355,0.5601450204849243
3276044944.0,-0.4825236201286316,0.1642864942550659,9.647232055664062,0.902607262134552,1.23630952835083,0.6323258280754089
3276053277.0,-0.4649562537670135,0.0120239285752177,9.904627799987791,0.8694623708724976,0.8325779438018799,0.4263617396354675
3276061610.0,-0.4447779655456543,0.0262009762227535,9.825995445251465,1.0222254991531372,0.7612165808677673,0.4619655013084411
3276069943.0,-0.4602926075458526,0.2365588247776031,9.54192066192627,1.29604172706604,0.8901585340499878,0.4279241561889648
3276078276.0,-0.4387983083724975,0.2153792530298233,9.531907081604004,1.1795226335525513,1.1046267747879028,0.3441400527954101
3276086609.0,-0.3475494980812073,0.0855193883180618,9.8807373046875,1.091460943222046,0.757733166217804,0.4130167067050934
3276094942.0,-0.3258906900882721,-0.0407282896339893,9.778115272521973,1.2483481168746948,0.777122974395752,0.3315122127532959
3276103275.0,-0.3713095188140869,0.0565261654555797,9.617317199707031,1.5637874603271484,1.153498649597168,0.5412928462028503
3276111608.0,-0.4407820701599121,0.1417713165283203,9.511897087097168,1.5539259910583496,1.405004858970642,0.4392456710338592
3276119941.0,-0.4181025922298431,0.154218316078186,9.811030387878418,1.4460899829864502,1.1216601133346558,0.3767981827259063
3276128274.0,-0.4215063452720642,0.0337019450962543,9.982535362243652,1.6524895429611206,0.7409557700157166,0.4154500961303711
3276136607.0,-0.4289022088050842,0.0964012816548347,9.77094554901123,1.7505407333374023,1.1330585479736328,0.4619399011135101
3276144940.0,-0.4471020996570587,0.2419098913669586,9.530927658081056,1.915368676185608,1.3682740926742554,0.408098816871643
3276153273.0,-0.406176894903183,0.1839732825756073,9.69326400756836,1.7843517065048218,1.264177918434143,0.4689838588237762
3276161606.0,-0.3456681668758392,0.1458897888660431,9.9800443649292,1.853100299835205,0.8311691880226135,0.488578736782074
3276169939.0,-0.3158084154129028,0.1828503310680389,9.857466697692873,2.005453586578369,1.0824960470199585,0.5390644073486328
3276178272.0,-0.3938588798046112,0.4215111136436462,9.55792236328125,2.1052212715148926,1.5010069608688354,0.6155997514724731
3276186605.0,-0.473838597536087,0.4814303815364837,9.506169319152832,1.94226336479187,1.700874924659729,0.5888328552246094
3276194938.0,-0.4856543838977813,0.276390939950943,9.94359302520752,1.8007190227508545,1.3605642318725586,0.4960581362247467
3276203271.0,-0.4517295956611633,0.2302611768245697,10.05678939819336,1.8833764791488647,1.0060374736785889,0.64349365234375
3276211604.0,-0.4956562221050262,0.4300828874111175,9.78917407989502,2.0693867206573486,1.2630763053894043,0.608120322227478
3276219937.0,-0.5354394912719727,0.6311612129211426,9.587518692016602,1.9033043384552,1.506795883178711,0.6328893899917603
3276228270.0,-0.4640482664108276,0.5799726843833923,9.740833282470703,1.7372984886169434,1.355005979537964,0.5512311458587646
3276236603.0,-0.4127286970615387,0.3929905593395233,9.99411678314209,1.6865051984786987,0.9392355680465698,0.551205575466156
3276244936.0,-0.4097564220428467,0.3551533818244934,9.82158374786377,1.7720056772232056,1.0956872701644895,0.621106743812561
3276253269.0,-0.5006310939788818,0.5304880142211914,9.645631790161133,1.9745116233825684,1.7617597579956057,0.6862437129020691
3276261602.0,-0.5527466535568237,0.5559259057044983,9.692439079284668,1.7957756519317627,1.5983155965805054,0.5024616718292236
3276269935.0,-0.5363554954528809,0.4536177217960357,9.977556228637695,1.622111201286316,1.1038583517074585,0.5418307185173035
3276278268.0,-0.5281765460968018,0.4112735390663147,9.993613243103027,1.679922342300415,0.9509155750274658,0.6299180388450623
3276286601.0,-0.5792166590690613,0.4957479238510132,9.732093811035156,1.6841742992401123,1.3183517456054688,0.5081223249435425
3276294934.0,-0.5944017767906189,0.5769535303115845,9.651897430419922,1.7708529233932495,1.453646183013916,0.4385541081428528
3276303267.0,-0.5009183883666992,0.4189797639846802,9.904415130615234,1.5452938079833984,1.0832642316818235,0.5102483034133911
3276311600.0,-0.4418620765209198,0.3746273219585418,9.992673873901367,1.599800944328308,0.8056060671806335,0.4986194968223572
3276319933.0,-0.4301245510578155,0.5259507894515991,9.772663116455078,1.664502501487732,1.167176604270935,0.4561766982078552
3276328266.0,-0.5134955644607544,0.6017311215400696,9.56668186187744,1.664758801460266,1.7572516202926636,0.3878379464149475
3276336599.0,-0.589016318321228,0.4421819746494293,9.758973121643066,1.5227278470993042,1.5693713426589966,0.5183680057525635
3276344932.0,-0.5477315187454224,0.2691867649555206,10.067109107971191,1.5076923370361328,0.9255064129829408,0.5061245560646057
3276353265.0,-0.5214205980300903,0.3370212316513061,9.95490837097168,1.5299509763717651,0.8382385969161987,0.5055097341537476
3276361598.0,-0.5344064235687256,0.5456399321556091,9.643360137939451,1.5920655727386477,1.354493498802185,0.5741302371025085
3276369931.0,-0.5366349816322327,0.5720739364624023,9.66867446899414,1.456822395324707,1.487661838531494,0.5246179699897766
3276378264.0,-0.464720219373703,0.3756100833415985,9.855937957763672,1.2988338470458984,0.9681796431541444,0.4278985857963562
3276386597.0,-0.4071716070175171,0.250561773777008,9.911330223083496,1.374319076538086,0.758168637752533,0.6149082183837891
3276394930.0,-0.4423942565917969,0.3474888801574707,9.654287338256836,1.4643275737762451,1.3226807117462158,0.5893707871437073
3276403263.0,-0.5411763191223145,0.4360127449035644,9.610395431518556,1.491939663887024,1.7983115911483765,0.591240644454956
3276411596.0,-0.514549732208252,0.3586374819278717,9.878873825073242,1.4085651636123655,1.233978509902954,0.4581233561038971
3276419929.0,-0.4957776367664337,0.2550561726093292,9.990889549255373,1.349908709526062,0.8863678574562073,0.4582002162933349
3276428262.0,-0.4743532538414001,0.3030539453029632,9.82431411743164,1.4443738460540771,0.924020767211914,0.5628343820571899
3276436595.0,-0.5225108861923218,0.4069015085697174,9.632197380065918,1.5908873081207275,1.5113294124603271,0.5525630712509155
3276444928.0,-0.479583740234375,0.3322336375713348,9.768750190734863,1.4341795444488523,1.4536207914352417,0.4985939860343933
3276453261.0,-0.3657034039497375,0.1536144614219665,9.947014808654783,1.3601799011230469,0.8382129669189453,0.4638609886169433
3276461594.0,-0.3636892437934875,0.272286057472229,9.830862998962402,1.6381711959838867,0.7076315879821777,0.4843523502349853
3276469927.0,-0.4414937794208526,0.4351218938827514,9.578770637512209,1.668831467628479,1.3433256149291992,0.5772808790206909
3276478260.0,-0.5016254186630249,0.4529473185539245,9.63767433166504,1.434640645980835,1.7861957550048828,0.4286670088768005
3276486593.0,-0.4793102443218231,0.2002223283052444,9.911259651184082,1.372423529624939,1.257697343826294,0.400081604719162
3276494926.0,-0.4788756370544433,0.0835829451680183,10.00615119934082,1.4610230922698977,0.7341935634613037,0.4410130679607391
3276503259.0,-0.4809103310108185,0.2834889590740204,9.75686264038086,1.658560276031494,1.1417418718338013,0.5749755501747131
3276511592.0,-0.4611374735832214,0.5228232145309448,9.599750518798828,1.6510807275772097,1.5813076496124268,0.6098877191543579
3276519925.0,-0.4544573128223419,0.3628354668617248,9.754916191101074,1.4280574321746826,1.2551615238189695,0.4526419341564178
3276528258.0,-0.4148255288600921,0.1476723402738571,9.969921112060549,1.4592558145523071,0.8428236246109009,0.4397836327552795
3276536591.0,-0.3743622899055481,0.1937873661518097,9.793166160583496,1.710249662399292,1.0387468338012695,0.3782069683074951
3276544924.0,-0.4603482186794281,0.3690283894538879,9.623984336853027,1.7837624549865725,1.6255178451538086,0.4654490649700165
3276553257.0,-0.5040492415428162,0.417485773563385,9.727564811706545,1.6576637029647827,1.743497014045715,0.4505416452884674
3276561590.0,-0.5272210240364075,0.2569439113140106,9.937477111816406,1.4414538145065308,1.137720227241516,0.4592503905296325
3276569923.0,-0.5202345848083496,0.206505537033081,9.98819351196289,1.6240065097808838,0.7592700123786926,0.488578736782074
3276578256.0,-0.5279662013053894,0.3924210369586944,9.671335220336914,1.827486038208008,1.235950946807861,0.5178045630455017
3276586589.0,-0.5437539219856262,0.4195104837417602,9.69161319732666,1.6422182321548462,1.5857901573181152,0.4295635223388672
3276594922.0,-0.4922482967376709,0.3267778754234314,9.89883518218994,1.6667053699493408,1.1417416334152222,0.4397835731506347
3276603255.0,-0.3925260603427887,0.2322567105293274,9.923707008361816,1.686249017715454,0.6928521990776062,0.4537177383899688
3276611588.0,-0.4183098673820495,0.4104484617710113,9.732378005981444,1.738655686378479,0.9292972087860109,0.4945212304592132
3276619921.0,-0.53731769323349,0.5678204894065857,9.600440979003906,1.661224126815796,1.7524876594543457,0.5437262058258057
3276628254.0,-0.5691184997558594,0.3727759122848511,9.812151908874512,1.6829960346221924,1.5648375749588013,0.5810973048210144
3276636587.0,-0.5851569175720215,0.1832901984453201,10.04293155670166,1.6832009553909302,0.8831915855407715,0.4302038848400116
3276644920.0,-0.5361374020576477,0.3111441135406494,9.940231323242188,1.800411581993103,0.6939280033111572,0.4569707214832306
3276653253.0,-0.5328196287155151,0.5710421204566956,9.670708656311035,1.7704944610595703,1.285079002380371,0.5717225670814514
3276661586.0,-0.4639391005039215,0.6208149194717407,9.694775581359863,1.6313832998275757,1.489685297012329,0.4455211758613586
3276669919.0,-0.4376204311847687,0.3865817189216614,9.838665008544922,1.5488544702529907,0.9394660592079164,0.3749539852142334
3276678252.0,-0.4153211712837219,0.2462651580572128,9.867438316345217,1.5567690134048462,0.7921330332756042,0.5164470076560974
3276686585.0,-0.458164781332016,0.4475280046463012,9.725046157836914,1.65771484375,1.301215887069702,0.5331475138664246
3276694918.0,-0.5503152012825012,0.5378099083900452,9.692754745483398,1.631588339805603,1.7137330770492554,0.5156273245811462
3276703251.0,-0.5504729151725769,0.5022150278091431,9.912389755249023,1.553772211074829,1.3818238973617554,0.5635771751403809
3276711584.0,-0.5285993814468384,0.3577601015567779,9.949213027954102,1.4908636808395386,0.7343472838401794,0.4600956737995147
3276719917.0,-0.4902437627315521,0.407207727432251,9.767820358276367,1.6052311658859253,0.8403390049934387,0.5116827487945557
3276728250.0,-0.4862180948257446,0.4863605797290802,9.654376983642578,1.5999548435211182,1.4106144905090332,0.5536133050918579
3276736583.0,-0.4726988077163696,0.4226402938365936,9.777568817138672,1.410691261291504,1.454133152961731,0.6142933964729309
3276744916.0,-0.3863756656646728,0.2875235676765442,9.906488418579102,1.4757513999938965,0.8384178876876831,0.4472630023956299
3276753249.0,-0.3721874356269836,0.343115746974945,9.808255195617676,1.5286190509796145,0.8117790818214417,0.5606059432029724
3276761582.0,-0.4342945516109466,0.5304744839668274,9.58559513092041,1.61314594745636,1.4728056192398071,0.4361719787120819
3276769915.0,-0.5154922604560852,0.4916267991065979,9.685011863708496,1.421500325202942,1.69447124004364,0.5236957669258118
3276778248.0,-0.546460747718811,0.277291476726532,9.927271842956545,1.394195556640625,1.3538529872894287,0.4289743900299072
3276786581.0,-0.5021542906761169,0.164550170302391,9.955192565917969,1.5297460556030271,0.7918256521224976,0.4429853558540344
3276794914.0,-0.5047225952148438,0.3720288872718811,9.764728546142578,1.612377643585205,0.9178476333618164,0.5153456330299377
3276803247.0,-0.4804013073444366,0.5416014790534973,9.634852409362791,1.558152437210083,1.717524170875549,0.5399097204208374
3276811580.0,-0.4264849722385406,0.4167115390300751,9.78309726715088,1.530386447906494,1.3551595211029053,0.5071234107017517
3276819913.0,-0.3941559195518493,0.2038372457027435,9.897347450256348,1.413688063621521,0.7968972325325012,0.5489770770072937
3276828246.0,-0.4166627824306488,0.2082676887512207,9.77237319946289,1.5284910202026367,1.0265544652938845,0.476104587316513
3276836579.0,-0.4778533577919006,0.4000464379787445,9.622021675109863,1.7025909423828125,1.5557187795639038,0.5267439484596252
3276844912.0,-0.5274767875671387,0.3932047486305237,9.769819259643556,1.6153230667114258,1.817137718200684,0.5199049115180969
3276853245.0,-0.5227557420730591,0.234302133321762,9.98139476776123,1.4729595184326172,1.0029382705688477,0.4967497289180755
3276861578.0,-0.5132473111152649,0.2155317515134811,9.897333145141602,1.5060274600982666,0.8956658840179443,0.6461831331253052
3276869911.0,-0.487137496471405,0.3804412484169006,9.710418701171877,1.6341753005981443,1.254521131515503,0.5932897329330444
3276878244.0,-0.5201895236968994,0.3951077461242676,9.663189888000488,1.5310524702072144,1.698364496231079,0.6000263094902039
3276886577.0,-0.4701665043830871,0.2318596690893173,9.908768653869627,1.3945542573928833,1.1689441204071045,0.4830716848373413
3276894910.0,-0.4157658219337463,0.1754806637763977,9.898717880249023,1.5889663696289062,0.6585291624069214,0.3856095373630523
3276903243.0,-0.4258067309856415,0.3362128734588623,9.69125747680664,1.760351061820984,1.0433573722839355,0.5204940438270569
3276911576.0,-0.5075705647468567,0.4853550493717193,9.585129737854004,1.6223928928375244,1.695521593093872,0.5198794007301331
3276919909.0,-0.561931312084198,0.314702957868576,9.846482276916504,1.4761353731155396,1.5312317609786987,0.4633486866950989
3276928242.0,-0.5256757140159607,0.1310303211212158,10.035956382751465,1.4289796352386477,0.9417969584465028,0.6542772054672241
3276936575.0,-0.4895507395267486,0.2378462851047516,9.866750717163086,1.7317399978637695,0.7756630778312683,0.6063529253005981
3276944908.0,-0.4820581376552582,0.5037488341331482,9.63399600982666,1.7417807579040527,1.3614604473114014,0.6518694758415222
3276953241.0,-0.4646067023277282,0.5129544734954834,9.695164680480955,1.5698834657669067,1.549341082572937,0.5571480393409729
3276961574.0,-0.4264368414878845,0.2814047634601593,9.880346298217772,1.5011605024337769,1.0076768398284912,0.5203658938407898
3276969907.0,-0.4208324253559112,0.1729881167411804,9.866007804870604,1.5271847248077393,0.7539677619934082,0.5513591766357422
3276978240.0,-0.4752784967422485,0.369464248418808,9.662200927734377,1.7548696994781494,1.287563681602478,0.5211856961250305
3276986573.0,-0.5585806965827942,0.5082361698150635,9.685250282287598,1.7304338216781616,1.720521092414856,0.4803822040557861
3276994906.0,-0.5739806294441223,0.4073133766651153,9.923535346984863,1.464814066886902,1.3513685464859009,0.5227224826812744
3277003239.0,-0.4926818609237671,0.2729362845420837,9.978779792785645,1.5912458896636963,0.7382149696350098,0.3802304863929748
3277011572.0,-0.4713058173656463,0.3629734516143799,9.764430046081545,1.6603018045425415,0.8369066715240479,0.5452117919921875
3277019905.0,-0.4659926891326904,0.4696551263332367,9.598326683044434,1.6595333814620972,1.4419915676116943,0.5396022200584412
3277028238.0,-0.4406460225582123,0.3846104741096496,9.80717658996582,1.589632272720337,1.4026740789413452,0.4598908424377441
3277036571.0,-0.3928562998771667,0.254870057106018,9.95766544342041,1.5885562896728516,0.8280953764915466,0.4113517999649048
3277044904.0,-0.3969649076461792,0.3545064628124237,9.809493064880373,1.689348578453064,0.8138283491134644,0.4219048917293548
3277053237.0,-0.4824396967887878,0.587058424949646,9.606276512145996,1.7201367616653442,1.5512107610702517,0.5239775776863098
3277061570.0,-0.5428040623664856,0.500008761882782,9.678959846496582,1.494347333908081,1.9865760803222656,0.550565242767334
3277069903.0,-0.534511387348175,0.240442469716072,9.941838264465332,1.3713732957839966,1.1661008596420288,0.4682410061359405
3277078236.0,-0.4857464730739593,0.1791778653860092,9.990920066833496,1.6056411266326904,0.6159583330154419,0.4359414577484131
3277086569.0,-0.4842983186244964,0.4413866102695465,9.765341758728027,1.701745867729187,1.010289430618286,0.5393205285072327
3277094902.0,-0.476269006729126,0.6562341451644897,9.64418888092041,1.7085334062576294,1.650517225265503,0.4998746514320373
3277103235.0,-0.4377600252628326,0.472510814666748,9.830663681030272,1.4275455474853516,1.361281394958496,0.5010272264480591
3277111568.0,-0.4030338525772095,0.2560432553291321,9.897194862365724,1.3523931503295898,0.8072198033332825,0.522491991519928
3277119901.0,-0.4236214458942413,0.3055171072483063,9.782952308654783,1.5194236040115356,1.045816421508789,0.5779468417167664
3277128234.0,-0.5171124935150146,0.4766584038734436,9.64970874786377,1.6265937089920044,1.805611491203308,0.5712102651596069
3277136567.0,-0.5627986192703247,0.4701334536075592,9.80319595336914,1.5855339765548706,1.839985966682434,0.533173143863678
3277144900.0,-0.5463782548904419,0.3420442044734955,9.998804092407228,1.4075404405593872,0.959240198135376,0.4502085149288177
3277153233.0,-0.5367960333824158,0.3316284418106079,9.89280128479004,1.4415050745010376,0.8521983623504639,0.4921903312206268
3277161566.0,-0.5302969217300415,0.4693323075771332,9.675562858581545,1.5818456411361694,1.3262156248092651,0.5254632830619812
3277169899.0,-0.5169038772583008,0.4413902163505554,9.742090225219728,1.587992787361145,1.5668611526489258,0.537399411201477
3277178232.0,-0.4431967437267303,0.2230240702629089,9.911307334899902,1.460613250732422,0.9835225939750672,0.4781537353992462
3277186565.0,-0.3985281884670257,0.2288419306278228,9.922717094421388,1.571958303451538,0.678636372089386,0.5949802398681641
3277194898.0,-0.4333212077617645,0.420384794473648,9.674506187438965,1.647008180618286,1.1363115310668943,0.4734919369220733
3277203231.0,-0.5226514935493469,0.5109943747520447,9.662101745605469,1.5070265531539917,1.8716963529586792,0.626255214214325
3277211564.0,-0.5774661302566528,0.2957318723201751,9.873766899108888,1.3681715726852417,1.6224184036254885,0.6441851258277893
3277219897.0,-0.5614224076271057,0.1170743629336357,10.005593299865724,1.5797450542449951,0.6892918944358826,0.6017167568206787
3277228230.0,-0.5279737710952759,0.2697489857673645,9.82559871673584,1.6510294675827026,0.8246374726295471,0.5194182395935059
3277236563.0,-0.4911641776561737,0.5077095627784729,9.660253524780272,1.7417807579040527,1.3965519666671753,0.5841710567474365
3277244896.0,-0.4597885906696319,0.4570072889328003,9.688470840454102,1.5791560411453247,1.4535695314407349,0.4159367382526397
3277253229.0,-0.4227584600448608,0.2287232130765915,9.8706693649292,1.4839990139007568,0.9569094181060792,0.5036398768424988
3277261562.0,-0.3970223069190979,0.1742972284555435,9.779369354248049,1.5795657634735107,0.7264580726623535,0.5783565044403076
3277269895.0,-0.4660959839820862,0.3755841255187988,9.627488136291504,1.7681890726089478,1.5429117679595947,0.5862457752227783
3277278228.0,-0.5287869572639465,0.4477840363979339,9.739702224731444,1.6846867799758911,1.6919612884521484,0.6674174070358276
3277286561.0,-0.5354379415512085,0.3131814002990722,9.923240661621094,1.4181705713272097,1.1123110055923462,0.5442641377449036
3277294894.0,-0.5023335218429565,0.2404088973999023,9.890565872192385,1.539658784866333,0.677176296710968,0.5206989645957947
3277303227.0,-0.4854109287261963,0.3521636128425598,9.729066848754885,1.6475205421447754,1.0609289407730105,0.5369639992713928
3277311560.0,-0.5207144618034363,0.4505776166915893,9.632051467895508,1.561431050300598,1.6332533359527588,0.5703649520874023
3277319893.0,-0.4457919299602508,0.2977780103683471,9.858160018920898,1.4743680953979492,1.2325698137283323,0.4723392724990845
3277328226.0,-0.3789678514003753,0.1935352981090545,9.940740585327148,1.6327409744262695,0.7511246204376221,0.4129654765129089
3277336559.0,-0.3848297297954559,0.361564964056015,9.76050853729248,1.7758477926254272,1.0089576244354248,0.4472373723983764
3277344892.0,-0.4824455380439758,0.5122527480125427,9.582530975341797,1.7029238939285278,1.6808444261550903,0.6756650805473328
3277353225.0,-0.5183683037757874,0.3929171860218048,9.788848876953123,1.464353084564209,1.7500543594360352,0.5667021870613098
3277361558.0,-0.5224356651306152,0.1608175486326217,10.001568794250488,1.5269030332565308,1.03772234916687,0.5691867470741272
3277369891.0,-0.487076073884964,0.2176466882228851,9.895790100097656,1.773055911064148,0.7662115097045898,0.597618579864502
3277378224.0,-0.4934926927089691,0.510245680809021,9.653467178344728,1.8400882482528689,1.251806139945984,0.422468364238739
3277386557.0,-0.5000483393669128,0.5749821662902832,9.65620231628418,1.678052544593811,1.6157586574554443,0.4544605612754822
3277394890.0,-0.4483965039253235,0.34999680519104,9.882997512817385,1.3938114643096924,1.1362860202789309,0.3660146296024322
3277403223.0,-0.4178728759288788,0.2061233222484588,9.918315887451172,1.5393770933151243,0.6633446216583252,0.3685503900051117
3277411556.0,-0.4421593248844147,0.3561696410179138,9.70793914794922,1.6433966159820557,1.1082638502120972,0.396930992603302
3277419889.0,-0.5000613331794739,0.5085114240646362,9.64003849029541,1.7340196371078491,1.8455696105957031,0.4184469282627105
3277428222.0,-0.5542727708816528,0.4352656304836273,9.8438081741333,1.6065119504928589,1.5237778425216677,0.5902928113937378
3277436555.0,-0.5493282079696655,0.291258841753006,10.04106616973877,1.459281325340271,0.8925151824951172,0.5258474946022034
3277444888.0,-0.5102716684341431,0.3484460711479187,9.83204174041748,1.593653678894043,0.9004811644554138,0.5619122385978699
3277453221.0,-0.5568161010742188,0.4996914565563202,9.65297031402588,1.7380154132843018,1.393452763557434,0.6296106576919556
3277461554.0,-0.5073975324630737,0.4268393218517303,9.745871543884276,1.6186788082122805,1.5251611471176147,0.5555087327957153
3277469887.0,-0.4297213554382324,0.2318093329668045,9.92667293548584,1.3662503957748413,0.8446934223175049,0.4497987627983093
3277478220.0,-0.411944568157196,0.2921379208564758,9.802216529846191,1.6793075799942017,0.6802500486373901,0.4720831513404846
3277486553.0,-0.4420060813426971,0.5081532597541809,9.607279777526855,1.698876976966858,1.4001892805099487,0.5256425142288208
3277494886.0,-0.5295886993408203,0.5112274289131165,9.690793991088867,1.5972652435302734,1.702872633934021,0.5940068960189819
3277503219.0,-0.5546851754188538,0.2624898254871368,9.92338752746582,1.3894569873809814,1.202165603637695,0.4805870652198791
3277511552.0,-0.5395721197128296,0.158811554312706,9.98600959777832,1.5388648509979248,0.7003315687179565,0.4955969750881195
3277519885.0,-0.5089299082756042,0.3916279673576355,9.779685020446776,1.7445214986801147,0.9771445989608764,0.5432394742965698
3277528218.0,-0.5013405084609985,0.5742801427841187,9.644597053527832,1.696597456932068,1.5045418739318848,0.4836607873439789
3277536551.0,-0.4569856524467468,0.4392503201961517,9.775160789489746,1.4911710023880005,1.328648805618286,0.4980815649032593
3277544884.0,-0.405053049325943,0.2227759659290313,9.884638786315918,1.4746756553649902,0.6467978954315186,0.5076613426208496
3277553217.0,-0.4124137461185455,0.2600146532058716,9.777385711669922,1.5550272464752195,0.9849825501441956,0.4376576244831085
3277561550.0,-0.4712562263011932,0.4583209455013275,9.647176742553713,1.6731603145599363,1.7491577863693235,0.5116059184074402
3277569883.0,-0.4907377660274505,0.455929547548294,9.803929328918455,1.5578962564468384,1.657740592956543,0.4956994354724884
3277578216.0,-0.4917551875114441,0.2966713309288025,9.97983169555664,1.283926248550415,1.027348518371582,0.4633230566978454
3277586549.0,-0.497395396232605,0.269944280385971,9.92773723602295,1.5418360233306885,0.8421063423156738,0.5233372449874878
3277594882.0,-0.4867013394832611,0.4340349435806274,9.703953742980955,1.6722893714904783,1.3527261018753052,0.5689049959182739
3277603215.0,-0.4933522045612335,0.4249252676963806,9.703078269958496,1.6273876428604126,1.609380841255188,0.4974668622016907
3277611548.0,-0.436746597290039,0.2506464719772339,9.88161563873291,1.3750617504119873,1.0612361431121826,0.5091725587844849
3277619881.0,-0.3941806256771087,0.1990759074687957,9.927206039428713,1.6069986820220947,0.6674429178237915,0.3818954229354858
3277628214.0,-0.4194163978099823,0.405223548412323,9.689329147338867,1.616860270500183,1.1440472602844238,0.4523602426052093
3277636547.0,-0.5046183466911316,0.5130360126495361,9.632691383361816,1.6410144567489624,1.7979017496109009,0.6036122441291809
3277644880.0,-0.5373333096504211,0.3120112121105194,9.843326568603516,1.4096921682357788,1.475418210029602,0.4040005207061767
3277653213.0,-0.5147733092308044,0.1355659216642379,10.006011009216309,1.4788506031036377,0.7856013774871826,0.4713403284549713
3277661546.0,-0.4793928563594818,0.2841182649135589,9.81417751312256,1.7964417934417725,0.7978450655937195,0.4588150382041931
3277669879.0,-0.4673983156681061,0.5473779439926147,9.670916557312012,1.6428073644638062,1.4592556953430176,0.4646550118923187
3277678212.0,-0.4438760578632355,0.5264887809753418,9.717867851257324,1.5616613626480105,1.5936790704727173,0.4706743657588959
3277686545.0,-0.4206295013427734,0.2677232027053833,9.880473136901855,1.4418123960494995,1.0283218622207642,0.4950078725814819
3277694878.0,-0.4188814461231231,0.2114479094743728,9.840033531188965,1.606844782829285,0.7340142130851746,0.3413480818271637
3277703211.0,-0.4990019500255584,0.3755486905574798,9.6904878616333,1.7539218664169312,1.4095896482467651,0.4849414527416229
3277711544.0,-0.5592095255851746,0.441478967666626,9.72260856628418,1.6167833805084229,1.7615550756454468,0.5401658415794373
3277719877.0,-0.5640851259231567,0.3038714528083801,9.910286903381348,1.5732390880584717,1.235438585281372,0.5298944711685181
3277728210.0,-0.5439088344573975,0.2432997822761535,9.93073272705078,1.479465365409851,0.6895992159843445,0.4862990081310272
3277736543.0,-0.535502552986145,0.376734048128128,9.740394592285156,1.717626690864563,1.2284458875656128,0.5175228714942932
3277744876.0,-0.5089128017425537,0.4607569277286529,9.645467758178713,1.7296910285949707,1.6272083520889282,0.5362468361854553
3277753209.0,-0.4812831878662109,0.3465582132339477,9.841205596923828,1.5897345542907717,1.3913779258728027,0.5194182395935059
3277761542.0,-0.4186868071556091,0.2251635938882827,9.959874153137209,1.6297953128814695,0.7483069896697998,0.3899382650852203
3277769875.0,-0.4248851835727691,0.3547103703022003,9.754558563232422,1.6676275730133057,0.914825201034546,0.5665996670722961
3277778208.0,-0.4979213178157806,0.5605043172836304,9.57325553894043,1.6465729475021362,1.6252361536026,0.6010764837265015
3277786541.0,-0.5580841302871704,0.4327975213527679,9.75879192352295,1.5433214902877808,1.706817388534546,0.5594788193702698
3277794874.0,-0.5529966354370117,0.1894090622663498,9.994011878967283,1.4417613744735718,0.9197432398796082,0.5986688137054443
3277803207.0,-0.4917225539684295,0.2413963824510574,9.910937309265137,1.6824582815170288,0.7569647431373596,0.573208212852478
3277811540.0,-0.4643093347549438,0.510490357875824,9.66114330291748,1.7730556726455688,1.179138422012329,0.551845908164978
3277819873.0,-0.4481356739997864,0.5781324505805969,9.697854042053224,1.713297963142395,1.5733160972595217,0.5337879061698914
3277828206.0,-0.4305373728275299,0.3769518733024597,9.859712600708008,1.4685280323028564,1.1024237871170044,0.497774213552475
3277836539.0,-0.4070690274238586,0.2086758464574813,9.88759708404541,1.4342308044433594,0.7095784544944763,0.5146028399467468
3277844872.0,-0.4640534520149231,0.365105390548706,9.686319351196287,1.5940889120101929,1.1442774534225464,0.5126816630363464
3277853205.0,-0.5428301095962524,0.4890567362308502,9.68979263305664,1.698364496231079,1.8823002576828003,0.5104532241821289
3277861538.0,-0.5498158931732178,0.3987510204315185,9.88851833343506,1.503337860107422,1.5417336225509644,0.4395018517971039
3277869871.0,-0.5325973629951477,0.2591992020606994,10.004006385803224,1.4203989505767822,0.769899845123291,0.4859660863876343
3277878204.0,-0.4955362975597381,0.3491893112659454,9.806806564331056,1.5638641119003296,0.6972578167915344,0.5170873999595642
3277886537.0,-0.4833210706710815,0.4793753027915954,9.631025314331056,1.571702241897583,1.4404548406600952,0.5824292302131653
3277894870.0,-0.4545479118824005,0.4112186133861542,9.8007230758667,1.54332172870636,1.5699093341827393,0.4396299719810486
3277903203.0,-0.4046340584754944,0.2280308306217193,9.92995834350586,1.4834355115890503,0.8022506237030029,0.4325347542762756
3277911536.0,-0.3570161759853363,0.2869430184364319,9.808850288391112,1.5713436603546145,0.7708219885826111,0.341040700674057
3277919869.0,-0.4334402680397033,0.4987214803695678,9.593396186828612,1.7579691410064695,1.4801315069198608,0.5489515066146851
3277928202.0,-0.5256202816963196,0.4814777076244354,9.6680326461792,1.548162817955017,1.7802278995513916,0.7120117545127869
3277936535.0,-0.5547301769256592,0.251000165939331,9.9087495803833,1.3592064380645752,1.283234715461731,0.5669582486152649
3277944868.0,-0.4983089864253998,0.1454925239086151,9.98440647125244,1.518629550933838,0.6824272274971008,0.541164755821228
3277953201.0,-0.4887629151344299,0.3534420728683471,9.735881805419922,1.733353853225708,0.9142618179321288,0.6063786149024963
3277961534.0,-0.4805890917778015,0.5398072600364685,9.645418167114258,1.7219555377960205,1.6172189712524414,0.5028971433639526
3277969867.0,-0.4252931773662567,0.4037180840969085,9.774710655212402,1.5618407726287842,1.4420174360275269,0.4485436975955963
3277978200.0,-0.4205069541931152,0.164750725030899,9.893442153930664,1.458179950714111,0.8180546164512634,0.517497181892395
3277986533.0,-0.414414495229721,0.238335832953453,9.802205085754396,1.5527478456497192,0.9590866565704346,0.5528192520141602
3277994866.0,-0.4875081479549408,0.4522014260292053,9.63026523590088,1.7333922386169434,1.6472773551940918,0.5733490586280823
3278003199.0,-0.5237781405448914,0.4880375266075134,9.704193115234377,1.6234685182571411,1.6670128107070925,0.546364426612854
3278011532.0,-0.4949401617050171,0.2680264711380005,9.961246490478516,1.5014936923980713,1.1249388456344604,0.5663948059082031
3278019865.0,-0.4685375094413757,0.3347894251346588,9.906758308410645,1.5658878087997437,0.8883400559425354,0.5626806616783142
3278028198.0,-0.5244436264038086,0.4034246504306793,9.63505744934082,1.605308175086975,1.3821057081222534,0.5986943244934082
3278036531.0,-0.5142190456390381,0.4671165645122528,9.720138549804688,1.5998265743255615,1.6491341590881348,0.5696221590042114
3278044864.0,-0.4555463492870331,0.2551318705081939,9.89585781097412,1.436792016029358,1.2169451713562012,0.4479289352893829
3278053197.0,-0.4145961105823517,0.2241974622011184,9.947357177734377,1.5772347450256348,0.5821987390518188,0.4557156562805176
3278061530.0,-0.4293447434902191,0.3714872896671295,9.71945571899414,1.5807183980941772,1.2038817405700684,0.5637052059173584
3278069863.0,-0.5041593313217163,0.5369925498962402,9.629388809204102,1.5518256425857544,1.8044333457946773,0.556891918182373
3278078196.0,-0.5730514526367188,0.2886642515659332,9.824973106384276,1.4432467222213743,1.6774377822875977,0.5900110006332397
3278086529.0,-0.5605199337005615,0.1466675698757171,10.060894966125488,1.4963451623916626,1.0665127038955688,0.4155012965202331
3278094862.0,-0.5254945158958435,0.2571041882038116,9.850963592529297,1.757892370223999,0.7551974058151245,0.4867857694625854
3278103195.0,-0.5186842679977417,0.5414910912513733,9.684492111206056,1.8400628566741943,1.3185312747955322,0.4944956600666046
3278111528.0,-0.4988567531108856,0.5778050422668457,9.72578239440918,1.656818389892578,1.5207300186157229,0.5301250219345093
3278119861.0,-0.4286792874336242,0.3135223686695099,9.865593910217283,1.4875081777572632,1.013183832168579,0.4442917108535766
3278128194.0,-0.3973555862903595,0.2352437078952789,9.87840175628662,1.629103660583496,0.765442967414856,0.4758484661579132
3278136527.0,-0.474909245967865,0.4314505755901336,9.615018844604492,1.727667212486267,1.3351547718048096,0.519366979598999
3278144860.0,-0.5311301946640015,0.5228567719459534,9.713367462158203,1.5998010635375977,1.7117863893508911,0.5833257436752319
3278153193.0,-0.5380539298057556,0.4282778799533844,9.889495849609377,1.4925285577774048,1.298808217048645,0.4652441442012787
3278161526.0,-0.5146162509918213,0.2900971174240112,9.915728569030762,1.4944497346878052,0.7086817622184753,0.5272049903869629
3278169859.0,-0.4929972887039184,0.3924482464790344,9.765788078308104,1.54634428024292,0.8953583836555481,0.5203916430473328
3278178192.0,-0.4915499687194824,0.4891132116317749,9.664262771606444,1.5365594625473022,1.569806694984436,0.539935290813446
3278186525.0,-0.4449271261692047,0.3918011784553528,9.828386306762695,1.4310288429260254,1.414225935935974,0.4969033002853393
3278194858.0,-0.4074709117412567,0.2490486651659011,9.893832206726074,1.4470635652542114,0.7439783215522766,0.4776670932769775
3278203191.0,-0.3823921084403991,0.35943603515625,9.791831970214844,1.6639389991760254,0.7612934708595276,0.4643732607364654
3278211524.0,-0.4583703279495239,0.5295323133468628,9.567984580993652,1.5368669033050537,1.506872534751892,0.5680084824562073
3278219857.0,-0.5150745511054993,0.465663194656372,9.72378158569336,1.4930665493011477,1.8122199773788448,0.5027946829795837
3278228190.0,-0.5188401341438293,0.1926650404930114,9.956154823303224,1.4354857206344604,1.228650689125061,0.6076335906982422
3278236523.0,-0.4832037389278412,0.1629383563995361,9.994097709655762,1.5819735527038574,0.6400869488716125,0.3990313410758972
3278244856.0,-0.4809683859348297,0.4387944638729095,9.69870662689209,1.818213939666748,1.1683804988861084,0.4619911313056946
3278253189.0,-0.4601521790027618,0.5717405080795288,9.642682075500488,1.701002836227417,1.651388168334961,0.3698823451995849
3278261522.0,-0.4279665946960449,0.4105177521705627,9.806662559509276,1.5222667455673218,1.233440637588501,0.5202891230583191
3278269855.0,-0.386158674955368,0.1753075122833252,9.886175155639648,1.459614396095276,0.7184408903121948,0.4604287147521972
3278278188.0,-0.4091683030128479,0.2590691745281219,9.769326210021973,1.6453689336776731,0.9662842750549316,0.5624758005142212
3278286521.0,-0.4997800290584564,0.4780338406562805,9.628149032592772,1.6849173307418823,1.6733397245407104,0.4974669218063354
3278294854.0,-0.5469536781311035,0.4353490471839905,9.794109344482422,1.6207022666931152,1.7831990718841553,0.5471841096878052
3278303187.0,-0.5470557808876038,0.2616521120071411,10.010383605957031,1.4185547828674316,0.9391074776649476,0.5341975688934326
3278311520.0,-0.519822359085083,0.2734913527965545,9.867036819458008,1.497830867767334,0.7802224159240723,0.4398860335350036
3278319853.0,-0.5195992588996887,0.4422431290149688,9.661165237426758,1.6775915622711182,1.400855302810669,0.6170341372489929
3278328186.0,-0.5270953178405762,0.4253945052623749,9.719992637634276,1.593371868133545,1.608074426651001,0.6319672465324402
3278336519.0,-0.4587492644786834,0.245099663734436,9.930811882019045,1.436356544494629,1.017563819885254,0.4351986348628998
3278344852.0,-0.4013023376464844,0.2108558416366577,9.90202522277832,1.5633009672164917,0.6490775346755981,0.5092494487762451
3278353185.0,-0.4298381507396698,0.4299001395702362,9.664814949035645,1.6001341342926023,1.3261898756027222,0.5168312191963196
3278361518.0,-0.5227692127227783,0.4996725916862488,9.62790584564209,1.5821787118911743,1.793829083442688,0.6386013627052307
3278369851.0,-0.5727673172950745,0.2855511605739593,9.879399299621582,1.369503378868103,1.5599966049194336,0.5089932084083557
3278378184.0,-0.5447174906730652,0.0846469327807426,10.047478675842283,1.5488030910491943,0.7392652034759521,0.4860429465770721
3278386517.0,-0.5106174945831299,0.2714712917804718,9.870901107788086,1.7751049995422363,0.7819642424583435,0.5821987986564636
3278394850.0,-0.5159266591072083,0.5499908924102783,9.648425102233888,1.8061749935150144,1.452980399131775,0.5681365728378296
3278403183.0,-0.4950355291366577,0.5139355063438416,9.737191200256348,1.6074342727661133,1.5147619247436523,0.5687769055366516
3278411516.0,-0.4490229487419128,0.2550989985466003,9.870506286621094,1.612275242805481,0.8229470252990723,0.3478797376155853
3278419849.0,-0.4106059968471527,0.2011583894491195,9.81735610961914,1.5754419565200806,0.7150342464447021,0.38665971159935
3278428182.0,-0.4328054189682007,0.4091624319553375,9.6721830368042,1.794238805770874,1.5542078018188477,0.4712635278701782
3278436515.0,-0.4975522756576538,0.4597751796245575,9.672727584838867,1.7283074855804443,1.846312403678894,0.5331730842590332
3278444848.0,-0.5036594271659851,0.3112371265888214,9.901178359985352,1.5894017219543457,1.2033694982528689,0.4142462015151977
3278453181.0,-0.4663290977478027,0.2131041437387466,9.883585929870604,1.4999823570251465,0.7001267075538635,0.4478521049022674
3278461514.0,-0.4991190135478973,0.4052810072898865,9.766502380371094,1.6662700176239014,1.045995831489563,0.5516921877861023
3278469847.0,-0.5178368091583252,0.4979259073734283,9.70521640777588,1.5971373319625854,1.8275372982025144,0.7050190567970276
3278478180.0,-0.4625533521175384,0.3680968284606933,9.799944877624512,1.629129409790039,1.2724000215530396,0.4886811375617981
3278486513.0,-0.4096207022666931,0.2363522350788116,9.895617485046388,1.5447304248809814,0.6202102303504944,0.5077124834060669
3278494846.0,-0.3939977288246155,0.3681724369525909,9.767974853515623,1.6669360399246216,0.8643907308578491,0.4640402793884277
3278503179.0,-0.4884219169616699,0.5590893626213074,9.601774215698242,1.669727802276611,1.855610489845276,0.480049192905426
3278511512.0,-0.526239275932312,0.4882598221302032,9.753469467163086,1.651311278343201,1.87338662147522,0.5854005217552185
3278519845.0,-0.529590368270874,0.1861470490694046,10.032265663146973,1.3418145179748535,1.0398739576339722,0.4844035804271698
3278528178.0,-0.4980634450912475,0.2291132509708404,9.93124008178711,1.6593029499053955,0.6186989545822144,0.4861709475517273
3278536511.0,-0.4650493562221527,0.5297765135765076,9.634567260742188,1.59554922580719,1.2509864568710327,0.4968008995056152
3278544844.0,-0.4824313223361969,0.5976743102073669,9.654359817504885,1.614657282829285,1.6762338876724243,0.5962353944778442
3278553177.0,-0.4180840253829956,0.3754751682281494,9.933692932128906,1.3569267988204956,1.3497291803359983,0.5276147723197937
3278561510.0,-0.4405294060707092,0.2091591656208038,9.85335922241211,1.4825646877288818,0.7313248515129089,0.3775922656059265
3278569843.0,-0.4606987535953522,0.3449573516845703,9.703031539916992,1.6191400289535522,1.1334940195083618,0.4344558715820312
3278578176.0,-0.5167155265808105,0.4991536140441894,9.670816421508787,1.6460859775543213,1.8468502759933472,0.4737480580806732
3278586509.0,-0.570069432258606,0.4539107084274292,9.860026359558104,1.4099996089935305,1.4416075944900513,0.4872211515903473
3278594842.0,-0.5056487917900085,0.316727876663208,10.01098346710205,1.3411996364593506,0.8379056453704834,0.5180094242095947
3278603175.0,-0.5188015103340149,0.3425222933292389,9.808713912963867,1.5426557064056396,0.8025323152542114,0.5797653794288635
3278611508.0,-0.5049998760223389,0.4295840561389923,9.65417766571045,1.5052590370178225,1.3993440866470337,0.5660874247550964
3278619841.0,-0.4930080771446228,0.410163015127182,9.751642227172852,1.6141196489334106,1.5810515880584717,0.5823524594306946
3278628174.0,-0.4595949947834015,0.2432917654514312,9.927193641662598,1.3958349227905271,1.0099563598632812,0.6836310625076294
3278636507.0,-0.390198141336441,0.2536094784736633,9.818260192871094,1.6218035221099854,0.5803288817405701,0.4916779994964599
3278644840.0,-0.4276240468025207,0.4545224606990814,9.601452827453612,1.6445233821868896,1.2105671167373655,0.5716456174850464
3278653173.0,-0.5045585632324219,0.4736531376838684,9.618660926818848,1.546600341796875,1.7032568454742432,0.5626038908958435
3278661506.0,-0.5357133150100708,0.2565525472164154,9.895931243896484,1.3965264558792114,1.53271746635437,0.5058426856994629
3278669839.0,-0.5190871953964233,0.0999917015433311,9.96805191040039,1.5200127363204956,0.7876248955726624,0.5165494680404663
3278678172.0,-0.5107777118682861,0.3094923794269562,9.81994342803955,1.7719286680221558,0.904041588306427,0.6095035076141357
3278686505.0,-0.5145993232727051,0.5992104411125183,9.65381145477295,1.7094043493270874,1.586430311203003,0.5563027262687683
3278694838.0,-0.454817920923233,0.4572397172451019,9.724775314331056,1.4230115413665771,1.4222431182861328,0.5347868204116821
3278703171.0,-0.396160215139389,0.2014383673667907,9.881195068359377,1.2666367292404177,0.9173353910446168,0.4606848061084747
3278711504.0,-0.3796380460262298,0.1936129629611969,9.815580368041992,1.6154255867004397,0.7698741555213928,0.4907302558422088
3278719837.0,-0.4545213580131531,0.4131500124931335,9.607489585876465,1.640758037567139,1.6106358766555786,0.5823780298233032
3278728170.0,-0.515987753868103,0.4625366628170013,9.756742477416992,1.6090480089187622,1.794827938079834,0.3939085006713867
3278736503.0,-0.5265583992004395,0.3261105716228485,9.999135971069336,1.3718342781066897,1.12662935256958,0.5286393761634827
3278744836.0,-0.4892603158950805,0.2765473425388336,9.950098037719728,1.5784387588500977,0.6360911726951599,0.393396258354187
3278753169.0,-0.4982872903347015,0.4011921882629394,9.709609985351562,1.5996472835540771,1.2287275791168213,0.5648579597473145
3278761502.0,-0.489043653011322,0.4174290001392364,9.626245498657228,1.6249032020568848,1.6637855768203735,0.5161908864974976
3278769835.0,-0.4514343738555908,0.284222275018692,9.880026817321776,1.577900767326355,1.249910593032837,0.5240288376808167
3278778168.0,-0.3871905505657196,0.1804948449134826,9.94564151763916,1.4766989946365356,0.5865788459777832,0.5011553764343262
3278786501.0,-0.3857779204845428,0.3516198098659515,9.70734977722168,1.7202136516571045,1.0292439460754397,0.5342232584953308
3278794834.0,-0.4884587228298187,0.5252705216407776,9.635295867919922,1.5117393732070925,1.7375799417495728,0.4792551100254059
3278803167.0,-0.5422177314758301,0.3613952398300171,9.81877326965332,1.4922980070114136,1.5699348449707031,0.5750523805618286
3278811500.0,-0.5362956523895264,0.1398408710956573,10.0436372756958,1.5758774280548096,0.9729183316230774,0.4130423367023468
3278819833.0,-0.5011947154998779,0.196315124630928,9.900949478149414,1.7575591802597046,0.7078109383583069,0.5261804461479187
3278828166.0,-0.4844468832015991,0.4912172853946686,9.65086841583252,1.830713391304016,1.2717596292495728,0.5365541577339172
3278836499.0,-0.44827401638031,0.5050100684165955,9.667157173156738,1.5559751987457275,1.5468308925628662,0.5652677416801453
3278844832.0,-0.409229040145874,0.2689694762229919,9.775520324707031,1.5284910202026367,1.036031723022461,0.5490539073944092
3278853165.0,-0.4307419955730438,0.2383338212966919,9.835725784301758,1.6103540658950806,0.7543007731437683,0.5460314750671387
3278861498.0,-0.4326232969760895,0.3245655596256256,9.816251754760742,1.6267986297607422,1.2842081785202026,0.5775113701820374
3278869831.0,-0.5442407131195068,0.5762301087379456,9.721115112304688,1.8831969499588013,1.797824740409851,0.4914731085300445
3278878164.0,-0.5532213449478149,0.4414554834365845,9.739482879638672,1.57057523727417,1.3630743026733398,0.5155504941940308
3278886497.0,-0.531823456287384,0.2771987617015838,10.01626968383789,1.4524166584014893,0.7908779382705688,0.6362447738647461
3278894830.0,-0.4863855242729187,0.3701359629631042,9.7976655960083,1.740628004074097,0.9772982597351074,0.6354250907897949
3278903163.0,-0.5190643072128296,0.5677047967910767,9.61388874053955,1.6727505922317505,1.689041256904602,0.5418051481246948
3278911496.0,-0.4810059666633606,0.3873504400253296,9.829777717590332,1.5036195516586304,1.5267236232757568,0.5121182203292847
3278919829.0,-0.4574088454246521,0.2874568998813629,9.939544677734377,1.4803106784820557,0.6983081102371216,0.4834046065807342
3278928162.0,-0.3898083865642547,0.3089161515235901,9.782331466674805,1.5362521409988403,0.7194398045539856,0.523849606513977
3278936495.0,-0.4196896851062774,0.5306052565574646,9.670604705810549,1.6340984106063845,1.373115062713623,0.4353523552417755
3278944828.0,-0.5286387801170349,0.522290050983429,9.619721412658691,1.5195516347885132,1.9090675115585327,0.6464136242866516
3278953161.0,-0.5696971416473389,0.2679917514324188,9.911920547485352,1.358694314956665,1.3406362533569336,0.5422917604446411
3278961494.0,-0.5451008677482605,0.1730353534221649,10.046859741210938,1.5281580686569214,0.5876801609992981,0.5038960576057434
3278969827.0,-0.5142770409584045,0.3863126933574676,9.738773345947266,1.7071247100830078,0.9241743087768556,0.508429765701294
3278978160.0,-0.4668477475643158,0.5804316997528076,9.612845420837402,1.6850963830947876,1.6264654397964478,0.4642964601516723
3278986493.0,-0.454735517501831,0.4841930568218231,9.788437843322754,1.471140742301941,1.2869231700897217,0.5742583274841309
3278994826.0,-0.3951018154621124,0.2215019613504409,9.923748016357422,1.322578191757202,0.833474338054657,0.5531009435653687
3279003159.0,-0.3998986780643463,0.1911685019731521,9.790230751037598,1.613683819770813,0.8231261968612671,0.5616816878318787
3279011492.0,-0.4743611812591553,0.4417205154895782,9.66567325592041,1.7029753923416138,1.653949737548828,0.5811229348182678
3279019825.0,-0.534660279750824,0.4914286732673645,9.752059936523438,1.5640692710876465,1.7786651849746704,0.5365030169487
3279028158.0,-0.5430217385292053,0.3275009393692016,9.97502613067627,1.4337950944900513,1.0341875553131104,0.5911637544631958
3279036491.0,-0.4742692410945892,0.2192489355802536,9.91889762878418,1.435895562171936,0.6542515754699707,0.5164982080459595
3279044824.0,-0.4698215126991272,0.407551646232605,9.720556259155272,1.6448564529418943,1.1975806951522827,0.5273842811584473
3279053157.0,-0.4980092346668243,0.4261474907398224,9.659995079040527,1.544013261795044,1.5764153003692627,0.5791250467300415
3279061490.0,-0.4376367628574371,0.2653840482234955,9.853026390075684,1.487892508506775,1.3457846641540527,0.4620935618877411
3279069823.0,-0.3933604657649994,0.1810759603977203,9.967207908630373,1.5181686878204346,0.6402150988578796,0.4778207838535309
3279078156.0,-0.3898966312408447,0.3382611870765686,9.732172966003418,1.5838688611984253,1.014618158340454,0.5111448168754578
3279086489.0,-0.5065034627914429,0.5135603547096252,9.6122407913208,1.6228795051574707,1.8437254428863523,0.5256937146186829
3279094822.0,-0.5529975891113281,0.3480948805809021,9.750438690185549,1.533485770225525,1.8111952543258667,0.6353994607925415
3279103155.0,-0.5289485454559326,0.0927434936165809,10.032578468322754,1.440941572189331,0.935598373413086,0.5835818648338318
3279111488.0,-0.5137181878089905,0.1682515144348144,9.926107406616213,1.6751837730407717,0.6049185395240784,0.4336361885070801
3279119821.0,-0.4934300184249878,0.4800301492214203,9.65878677368164,1.730613112449646,1.368837594985962,0.5444434285163879
3279128154.0,-0.4798933565616607,0.5386858582496643,9.639744758605955,1.6822022199630735,1.6090478897094729,0.5232092142105103
3279136487.0,-0.4290959239006042,0.323148638010025,9.864745140075684,1.412970781326294,1.0445356369018557,0.473978579044342
3279144820.0,-0.392596036195755,0.1454809755086898,9.898472785949709,1.43953275680542,0.7949761748313904,0.3899382650852203
3279153153.0,-0.4708455204963684,0.3189720511436462,9.711223602294922,1.6777708530426023,1.2024987936019895,0.5517690181732178
3279161486.0,-0.543333113193512,0.4896084368228912,9.636032104492188,1.7022069692611694,1.8671627044677728,0.5301762819290161
3279169819.0,-0.5597885251045227,0.4163957238197326,9.881061553955078,1.546882152557373,1.4231908321380615,0.5009247660636902
3279178152.0,-0.5316344499588013,0.2384416908025741,9.963881492614746,1.5098440647125244,0.7737932801246643,0.502051830291748
3279186485.0,-0.5149675011634827,0.3397756218910217,9.801831245422363,1.794213056564331,0.7686191201210022,0.656249463558197
3279194818.0,-0.525061309337616,0.4395391047000885,9.666424751281738,1.648519515991211,1.4004456996917725,0.5226457118988037
3279203151.0,-0.4740912616252899,0.434759259223938,9.799243927001951,1.6489804983139038,1.48284649848938,0.3618651032447815
3279211484.0,-0.4141507148742676,0.2325654327869415,9.908210754394531,1.5331270694732666,0.8520702123641968,0.5465693473815918
3279219817.0,-0.4071058332920074,0.3066724240779876,9.860011100769045,1.5596123933792114,0.6396002173423767,0.4950591027736664
3279228150.0,-0.4322440922260284,0.4803751409053802,9.58693504333496,1.626388430595398,1.2319550514221191,0.5608876347541809
3279236483.0,-0.5523102283477783,0.520829439163208,9.676844596862791,1.595036864280701,1.803920865058899,0.5721836090087891
3279244816.0,-0.5610924363136292,0.2228756994009018,9.911096572875977,1.436740756034851,1.428006291389465,0.5538437962532043
3279253149.0,-0.5386800169944763,0.162199929356575,10.0223388671875,1.5196027755737305,0.680352509021759,0.5177532434463501
3279261482.0,-0.473318338394165,0.3953365087509155,9.788167953491213,1.8194174766540527,0.8909783363342285,0.6239755749702454
3279269815.0,-0.4695425033569336,0.5913970470428467,9.593557357788086,1.6412705183029177,1.497984528541565,0.6099645495414734
3279278148.0,-0.4405483305454254,0.4984771609306335,9.777137756347656,1.5701909065246582,1.42170512676239,0.5807642936706543
3279286481.0,-0.3637271523475647,0.2180709242820739,9.868614196777344,1.4353320598602295,0.7762265801429749,0.440500795841217
3279294814.0,-0.3943524360656738,0.2535610198974609,9.826311111450195,1.6104307174682615,0.8249703645706177,0.4618118405342102
3279303147.0,-0.5061916708946228,0.4938519895076751,9.62502384185791,1.680947184562683,1.5730342864990234,0.495315283536911
3279311480.0,-0.5294142961502075,0.5298359990119934,9.773418426513672,1.617398023605347,1.6725199222564695,0.5049206018447876
3279319813.0,-0.547003448009491,0.3383242487907409,9.966217041015623,1.5595866441726685,1.038593053817749,0.512015700340271
3279328146.0,-0.501224935054779,0.291167140007019,9.9342679977417,1.5430654287338257,0.8047351241111755,0.4694192707538605
3279336479.0,-0.4781990349292755,0.4075945615768432,9.717636108398438,1.587121844291687,1.0876957178115845,0.4255420863628387
3279344812.0,-0.4753265380859375,0.4647798240184784,9.673331260681152,1.6234430074691772,1.7941107749938965,0.4631694257259369
3279353145.0,-0.437519371509552,0.3154871761798858,9.906685829162598,1.4495735168457031,1.11351478099823,0.4469811916351318
3279361478.0,-0.3851431012153625,0.2431411445140838,9.945393562316896,1.5007251501083374,0.6134993433952332,0.5270769000053406
3279369811.0,-0.4200166463851928,0.4221654236316681,9.739686965942385,1.661941409111023,1.112669587135315,0.5496174693107605
3279378144.0,-0.5024479031562805,0.5355201363563538,9.57447338104248,1.5536699295043943,1.6940360069274902,0.5975930094718933
3279386477.0,-0.5484267473220825,0.3604900538921356,9.83255100250244,1.4975745677947998,1.7381690740585327,0.3822540044784546
3279394810.0,-0.5413840413093567,0.1105435043573379,10.026784896850586,1.4827183485031128,0.8244325518608093,0.5096336007118225
3279403143.0,-0.4911636710166931,0.1930082738399505,9.884681701660156,1.6752349138259888,0.614344596862793,0.3943951725959778
3279411476.0,-0.4602563381195068,0.518649697303772,9.659798622131348,1.6974936723709106,1.334770441055298,0.5642943978309631
3279419809.0,-0.4498895108699798,0.5406169891357422,9.698402404785156,1.540888428688049,1.7391682863235474,0.5476707816123962
3279428142.0,-0.4485069513320923,0.2912539839744568,9.867098808288574,1.4442715644836426,1.0225330591201782,0.5391412377357483
3279436475.0,-0.413886159658432,0.1602030098438263,9.864309310913086,1.4340770244598389,0.7708731889724731,0.5261547565460205
3279444808.0,-0.4809386730194092,0.3195520043373108,9.699777603149414,1.6448566913604736,1.2843105792999268,0.5423686504364014
3279453141.0,-0.5425810217857361,0.4599112868309021,9.667350769042969,1.5414263010025024,1.8029221296310425,0.5121438503265381
3279461474.0,-0.5683661103248596,0.3696313798427582,9.871252059936523,1.4542866945266724,1.4597680568695068,0.5664460062980652
3279469807.0,-0.5210933685302734,0.222294807434082,9.958226203918455,1.506334900856018,0.8509946465492249,0.5104276537895203
3279478140.0,-0.4856938421726227,0.3188683986663818,9.769972801208496,1.5506728887557983,0.9686663150787354,0.5036142468452454
3279486473.0,-0.4956264197826385,0.4483814537525177,9.683733940124512,1.6834571361541748,1.4970365762710571,0.5769990086555481
3279494806.0,-0.4599754810333252,0.331464022397995,9.778420448303224,1.583228588104248,1.3428902626037598,0.5062525272369385
3279503139.0,-0.3907795548439026,0.2078669816255569,9.951350212097168,1.553644061088562,0.7482302188873291,0.4939064085483551
3279511472.0,-0.4180063307285309,0.2893478870391845,9.785910606384276,1.6338934898376465,0.8096787333488464,0.4600444734096527
3279519805.0,-0.4826191961765289,0.5035128593444824,9.62052059173584,1.7107362747192385,1.5800269842147827,0.5487722158432007
3279528138.0,-0.552506685256958,0.4451860189437866,9.692383766174316,1.5948320627212524,1.8493859767913816,0.6012814044952393
3279536471.0,-0.5714709162712097,0.1990059912204742,9.985359191894531,1.4283905029296875,1.2127442359924316,0.6040732860565186
3279544804.0,-0.4938430190086365,0.1693713217973709,9.973790168762209,1.7521289587020874,0.7974863648414612,0.5465437173843384
3279553137.0,-0.4636705815792084,0.4259320497512817,9.734397888183594,1.7835575342178345,1.0278607606887815,0.4622728526592254
3279561470.0,-0.4657728374004364,0.5845076441764832,9.644179344177246,1.6746715307235718,1.5537723302841189,0.4933941960334778
3279569803.0,-0.4136222004890442,0.3933990895748138,9.800349235534668,1.5020315647125244,1.2488861083984375,0.5296383500099182
3279578136.0,-0.3971060812473297,0.2405845075845718,9.922191619873049,1.5678857564926147,0.7310943007469177,0.5194950699806213
3279586469.0,-0.4460800588130951,0.2623905539512634,9.745049476623535,1.6334837675094604,0.9392611384391784,0.4994135200977325
3279594802.0,-0.5069928169250488,0.4806463718414306,9.68717098236084,1.603412628173828,1.660429835319519,0.5245667099952698
3279603135.0,-0.5218380093574524,0.4605380594730377,9.807778358459473,1.4682718515396118,1.7227237224578855,0.4558181166648865
3279611468.0,-0.5252537131309509,0.3020495772361755,9.96750545501709,1.4866631031036377,0.8906198143959045,0.4370941519737243
3279619801.0,-0.4868950247764587,0.2905075550079345,9.866765022277832,1.5269029140472412,0.6774067878723145,0.5025640726089478
3279628134.0,-0.4936426281929016,0.477122962474823,9.6682767868042,1.5621994733810425,1.339970350265503,0.4749519824981689
3279636467.0,-0.4834764301776886,0.4011665880680084,9.69479751586914,1.4994701147079468,1.3995745182037354,0.5788688659667969
3279644800.0,-0.4170268774032593,0.2602333128452301,9.94589900970459,1.5041831731796265,1.062824249267578,0.4795368015766144
3279653133.0,-0.3797027170658111,0.2798142433166504,9.817666053771973,1.5299253463745115,0.6938511729240417,0.5272818207740784
3279661466.0,-0.4141134321689605,0.4416179955005646,9.6402587890625,1.6861978769302368,1.2880756855010986,0.6061992049217224
3279669799.0,-0.5177187919616699,0.5412882566452026,9.624845504760742,1.5149413347244265,1.827409267425537,0.5892939567565918
3279678132.0,-0.5521215796470642,0.2665950655937195,9.867262840270996,1.459819197654724,1.5200127363204956,0.5333011746406555
3279686465.0,-0.5226323008537292,0.1305123120546341,10.07179069519043,1.526954174041748,0.7127288579940796,0.3933449983596802
3279694798.0,-0.4866118431091308,0.322543740272522,9.788285255432127,1.7317655086517334,0.7619850635528564,0.3918081223964691
3279703131.0,-0.4796024262905121,0.5681688189506531,9.699777603149414,1.6805883646011353,1.4727288484573364,0.5384496450424194
3279711464.0,-0.4436278045177459,0.5485775470733643,9.743246078491213,1.5249308347702026,1.594985842704773,0.6324027180671692
3279719797.0,-0.4144586622714996,0.2708029150962829,9.88064193725586,1.4047743082046509,0.8798618316650391,0.4723905622959137
3279728130.0,-0.4440147280693054,0.2206873595714569,9.808536529541016,1.4649165868759155,0.7821690440177917,0.4352242350578308
3279736463.0,-0.5054205060005188,0.4371013045310974,9.650680541992188,1.639836072921753,1.5345615148544312,0.5775113105773926
3279744796.0,-0.5472419857978821,0.49419105052948,9.761000633239746,1.6874016523361206,1.72164785861969,0.5507957339286804
3279753129.0,-0.5498576760292053,0.3390715718269348,9.974478721618652,1.507487416267395,1.081061601638794,0.4616069197654724
3279761462.0,-0.5164604187011719,0.3043214976787567,9.949359893798828,1.5127125978469849,0.7814775109291077,0.6168291568756104
3279769795.0,-0.4874153435230255,0.4217825829982757,9.69271755218506,1.6262348890304563,1.0494791269302368,0.5453654527664185
3279778128.0,-0.4668035507202148,0.4339567720890045,9.693222999572754,1.5612260103225708,1.5864815711975098,0.569442868232727
3279786461.0,-0.427720844745636,0.3101472854614258,9.878271102905272,1.5613027811050415,1.2794692516326904,0.4276424348354339
3279794794.0,-0.3582668602466583,0.205331265926361,9.899786949157717,1.5608675479888916,0.5735155344009399,0.5401401519775391
3279803127.0,-0.3892522156238556,0.3951953053474426,9.736211776733398,1.6222389936447144,0.91610586643219,0.5016931295394897
3279811460.0,-0.5055546164512634,0.5262611508369446,9.592361450195312,1.6141451597213743,1.838704824447632,0.4930355548858642
3279819793.0,-0.5643439888954163,0.3673315644264221,9.806118965148926,1.3368453979492188,1.707764983177185,0.4694961011409759
3279828126.0,-0.5535545945167542,0.1344053298234939,10.020410537719728,1.4922724962234497,0.911777138710022,0.5318924188613892
3279836459.0,-0.4966419637203216,0.2288086414337158,9.907814025878906,1.691295146942139,0.7049421072006226,0.5377067923545837
3279844792.0,-0.4912948310375213,0.4927621781826019,9.690357208251951,1.8022303581237795,1.2786753177642822,0.4778975546360016
3279853125.0,-0.4657901227474212,0.5547698140144348,9.704142570495604,1.621342658996582,1.4781078100204468,0.5415233373641968
3279861458.0,-0.3911252021789551,0.305185317993164,9.833052635192873,1.4493942260742188,1.1436370611190796,0.5671887397766113
3279869791.0,-0.3783566355705261,0.2028628289699554,9.841115951538086,1.5794121026992798,0.7085537314414978,0.5309703350067139
3279878124.0,-0.4301933646202087,0.3724123537540436,9.695054054260254,1.6381455659866333,1.3613067865371704,0.4930099546909332
3279886457.0,-0.4944417178630829,0.4622535407543182,9.67799949645996,1.617065191268921,1.902612566947937,0.5163446068763733
3279894790.0,-0.5213934183120728,0.3532530665397644,9.90754222869873,1.6202155351638794,1.4120486974716189,0.4552289247512817
3279903123.0,-0.5373626947402954,0.2517609000205993,9.951824188232422,1.497702717781067,0.7722308039665222,0.4886043667793274
3279911456.0,-0.534602165222168,0.3561542630195617,9.762273788452148,1.569576382637024,1.0208683013916016,0.532584011554718
3279919789.0,-0.5104084610939026,0.4408958554267883,9.62442684173584,1.617321252822876,1.4896342754364014,0.5946473479270935
3279928122.0,-0.4760654270648956,0.3635737895965576,9.80352020263672,1.5390441417694092,1.4595375061035156,0.4572013020515442
3279936455.0,-0.4064171910285949,0.1951593905687332,9.942268371582031,1.587685465812683,0.7088611125946045,0.4133240878582001
3279944788.0,-0.3665667474269867,0.3219326436519623,9.776533126831056,1.6242371797561646,0.7978193759918213,0.5353759527206421
3279953121.0,-0.4495449662208557,0.5474193096160889,9.612430572509766,1.6402974128723145,1.633816838264465,0.5621428489685059
3279961454.0,-0.5216361284255981,0.4443493485450744,9.749990463256836,1.4824622869491575,1.83568274974823,0.4385797679424286
3279969787.0,-0.5481434464454651,0.1830358505249023,9.978034019470217,1.5001872777938845,1.1802397966384888,0.5211088061332703
3279978120.0,-0.5424240827560425,0.166449636220932,9.965758323669434,1.65587055683136,0.664625346660614,0.4640402793884277
3279986453.0,-0.4970017075538635,0.4461415708065033,9.7525053024292,1.82256817817688,1.0609288215637207,0.4804078042507171
3279994786.0,-0.4914290904998779,0.5835533738136292,9.694137573242188,1.6912438869476318,1.4545683860778809,0.564550518989563
3280003119.0,-0.4498259723186493,0.3507171273231506,9.854632377624512,1.475802659988403,1.2524975538253784,0.4518223106861114
3280011452.0,-0.3924080729484558,0.2073086649179458,9.887367248535156,1.400163650512695,0.7929525971412659,0.5281270742416382
3280019785.0,-0.4201507866382599,0.3283469080924988,9.714990615844728,1.597931146621704,1.141536831855774,0.4361463785171509
3280028118.0,-0.4896231293678283,0.5086673498153687,9.643552780151367,1.6634269952774048,1.6782832145690918,0.497441291809082
3280036451.0,-0.5457385778427124,0.4285003542900085,9.865405082702637,1.594780683517456,1.5521585941314695,0.5664716362953186
3280044784.0,-0.5171119570732117,0.3053733110427856,9.96497917175293,1.5470869541168213,0.94512677192688,0.4898081719875335
3280053117.0,-0.4913466572761535,0.3522943556308746,9.858600616455078,1.6006721258163452,0.8375983238220215,0.5290492177009583
3280061450.0,-0.5245609879493713,0.4641187191009521,9.663222312927246,1.5783874988555908,1.3885602951049805,0.567060649394989
3280069783.0,-0.478982001543045,0.4098661541938782,9.739298820495604,1.546139121055603,1.49462890625,0.5207757949829102
3280078116.0,-0.4291596710681915,0.2276982069015503,9.929620742797852,1.4835381507873535,0.8442580699920654,0.4660382270812988
3280086449.0,-0.4015816152095794,0.2766322195529938,9.849205017089844,1.496370792388916,0.7334764003753662,0.5036398768424988
3280094782.0,-0.4577840566635132,0.4896711111068725,9.632783889770508,1.7327134609222412,1.3967314958572388,0.5632186532020569
3280103115.0,-0.5099327564239502,0.4817701876163482,9.66014575958252,1.5483932495117188,1.867828369140625,0.5698270797729492
3280111448.0,-0.5442332029342651,0.24843530356884,9.949762344360352,1.4258549213409424,1.3450931310653689,0.5469791889190674
3280119781.0,-0.5292196273803711,0.1369743347167968,9.992979049682615,1.5814868211746216,0.6628835201263428,0.5351454019546509
3280128114.0,-0.5176143646240234,0.3616315722465515,9.759637832641602,1.7200852632522583,0.8364711999893188,0.5854517221450806
3280136447.0,-0.4906356334686279,0.5765559673309326,9.643521308898926,1.7199060916900637,1.462355136871338,0.6597586870193481
3280144780.0,-0.4515400528907776,0.4333501756191253,9.768477439880373,1.4967550039291382,1.376880407333374,0.4896288812160492
3280153113.0,-0.4250936806201935,0.2141628414392471,9.908329010009766,1.419732928276062,0.8478183150291443,0.5372969508171082
3280161446.0,-0.4242272675037384,0.2817905247211456,9.738374710083008,1.5974446535110474,0.8789397478103638,0.5475426912307739
3280169779.0,-0.4819342494010925,0.4530770182609558,9.644201278686523,1.6812288761138916,1.521754503250122,0.555969774723053
3280178112.0,-0.5312221646308899,0.4673668146133423,9.743701934814451,1.5414773225784302,1.6180126667022705,0.5370151996612549
3280186445.0,-0.5283929109573364,0.2877278327941894,9.977785110473633,1.46855366230011,1.0323177576065063,0.4582002162933349
3280194778.0,-0.5208661556243896,0.3047828674316406,9.904239654541016,1.5335882902145386,0.7211047410964966,0.5182143449783325
3280203111.0,-0.5159584283828735,0.4288145303726196,9.70462131500244,1.7588398456573486,1.166741132736206,0.4677031338214874
3280211444.0,-0.5017929673194885,0.4372154176235199,9.718450546264648,1.6855319738388062,1.6985183954238892,0.4389383792877197
3280219777.0,-0.4472635686397552,0.2938405871391296,9.917479515075684,1.4126890897750854,1.1451228857040403,0.4257213771343231
3280228110.0,-0.3973801136016845,0.2296848446130752,9.91472053527832,1.5269540548324585,0.7769693732261658,0.4322274029254913
3280236443.0,-0.4250701367855072,0.4368043541908264,9.706132888793944,1.707227110862732,1.2130517959594729,0.5290747880935669
3280244776.0,-0.5234571695327759,0.5364057421684265,9.646232604980469,1.5840482711791992,1.842111587524414,0.5398840308189392
3280253109.0,-0.5738930106163025,0.3270819783210754,9.871336936950684,1.4008809328079224,1.6970583200454712,0.4693936705589294
3280261442.0,-0.5466163754463196,0.1484198272228241,10.0310640335083,1.4697834253311155,0.796103298664093,0.4063314497470855
3280269775.0,-0.49982750415802,0.3189154863357544,9.876245498657228,1.6570231914520264,0.8412354588508606,0.4161928594112396
3280278108.0,-0.4652602970600128,0.5525745153427124,9.677388191223145,1.7014895677566528,1.343248724937439,0.4654490649700165
3280286441.0,-0.4407304227352142,0.5157682299613953,9.772640228271484,1.547215223312378,1.4372787475585938,0.4664224088191986
3280294774.0,-0.393822580575943,0.2433436512947082,9.890332221984863,1.3734480142593384,0.8735607862472534,0.4360695481300354
3280303107.0,-0.3831188678741455,0.2345072478055954,9.835247039794922,1.5173488855361938,0.7638804912567139,0.4872723817825317
3280311440.0,-0.4618790745735168,0.4225064814090729,9.65098762512207,1.6550511121749878,1.498701810836792,0.5337367057800293
3280319773.0,-0.547545313835144,0.4896974861621856,9.71279239654541,1.5719072818756104,1.8109649419784544,0.5690074563026428
3280328106.0,-0.5609245896339417,0.3262763321399688,9.957063674926758,1.3897643089294434,1.2466319799423218,0.5872703194618225
3280336439.0,-0.5334108471870422,0.2406728118658065,9.923704147338867,1.4733692407608032,0.7324519157409668,0.5790225863456726
3280344772.0,-0.5141666531562805,0.3835795819759369,9.716022491455078,1.5567690134048462,1.1713517904281616,0.5143465995788574
3280353105.0,-0.510620653629303,0.4477316737174988,9.658981323242188,1.5029792785644531,1.6583808660507202,0.4998233914375305
3280361438.0,-0.4471777081489563,0.3191454410552978,9.83166790008545,1.4313616752624512,1.2956063747406006,0.4530005156993866
3280369771.0,-0.4002182483673095,0.2153739631175995,9.910213470458984,1.5436545610427856,0.6947476863861084,0.4848901927471161
3280378104.0,-0.3941538631916046,0.3406513035297394,9.699138641357422,1.7123758792877195,0.997969090938568,0.4971082806587219
3280386437.0,-0.4785678684711456,0.5091344118118286,9.592631340026855,1.5378657579421997,1.618704319000244,0.628253161907196
3280394770.0,-0.5402036309242249,0.3853117823600769,9.763140678405762,1.4834611415863037,1.7535120248794556,0.5694172382354736
3280403103.0,-0.5496715307235718,0.1377292871475219,10.008119583129885,1.3899692296981812,0.9589327573776244,0.6329917311668396
3280411436.0,-0.5376110672950745,0.211669385433197,9.910722732543944,1.6993638277053833,0.7242041230201721,0.4740554690361023
3280419769.0,-0.513816237449646,0.5123093724250793,9.652758598327637,1.783352613449097,1.232416033744812,0.5564308166503906
3280428102.0,-0.4800211489200592,0.5530975461006165,9.701894760131836,1.6831241846084597,1.6237503290176392,0.5562259554862976
3280436435.0,-0.4358648359775543,0.3137765526771545,9.869836807250977,1.4964475631713867,1.051323413848877,0.4378625154495239
3280444768.0,-0.3861704766750335,0.1968668699264526,9.830077171325684,1.532461166381836,0.677176296710968,0.4891934692859649
3280453101.0,-0.4463696479797363,0.3602817058563232,9.66819667816162,1.6850197315216064,1.2994487285614014,0.5274867415428162
3280461434.0,-0.5137399435043335,0.4750027954578399,9.641661643981934,1.5533112287521362,1.7129391431808472,0.4224171340465545
3280469767.0,-0.5534869432449341,0.3718257546424866,9.900487899780272,1.5459342002868652,1.427980661392212,0.4963398277759552
3280478100.0,-0.5234069228172302,0.2623702883720398,9.986531257629396,1.52019202709198,0.8503285050392151,0.4842242896556854
3280486433.0,-0.5275593400001526,0.3630621433258056,9.793603897094728,1.557922124862671,1.0276046991348269,0.5917529463768005
3280494766.0,-0.5000672936439514,0.4896488487720489,9.661324501037598,1.4733691215515137,1.4830514192581177,0.5436493158340454
3280503099.0,-0.4637046158313751,0.3605910837650299,9.791465759277344,1.442760348320007,1.4069771766662598,0.5143722295761108
3280511432.0,-0.38248410820961,0.2079372256994247,9.934234619140623,1.5447306632995603,0.7322214245796204,0.4881689846515655
3280519765.0,-0.3604882061481476,0.3186853229999542,9.813794136047363,1.533639669418335,0.7161869406700134,0.4434208571910858
3280528098.0,-0.4398875534534454,0.5248823761940002,9.609904289245604,1.692370891571045,1.4826672077178955,0.4571500718593597
3280536431.0,-0.5458380579948425,0.461746335029602,9.735668182373049,1.5565643310546875,1.8172147274017327,0.5806875228881836
3280544764.0,-0.561331570148468,0.1991544216871261,10.009108543395996,1.4349991083145142,1.1713005304336548,0.4013366401195526
3280553097.0,-0.5123162269592285,0.1794003546237945,9.992379188537598,1.6604557037353516,0.7776610255241394,0.519110918045044
3280561430.0,-0.5073176622390747,0.4396370053291321,9.738381385803224,1.736094355583191,1.007753610610962,0.5309446454048157
3280569763.0,-0.4993030726909637,0.5748675465583801,9.662537574768066,1.6069985628128052,1.5695761442184448,0.5561233758926392
3280578096.0,-0.4412002861499786,0.3863449096679687,9.81895351409912,1.5091521739959717,1.2657657861709597,0.5408061146736145
3280586429.0,-0.403891921043396,0.2000797390937805,9.883865356445312,1.5153765678405762,0.6121417880058289,0.5177021026611328
3280594762.0,-0.4291946589946747,0.3098409175872803,9.745394706726074,1.749669909477234,1.124503254890442,0.6095803380012512
3280603095.0,-0.4908265173435211,0.4814922511577606,9.61535358428955,1.6303331851959229,1.7061258554458618,0.541907548904419
3280611428.0,-0.5395953059196472,0.4330716729164123,9.82025909423828,1.5679625272750854,1.5542333126068115,0.4551777243614197
3280619761.0,-0.5371056795120239,0.2804199755191803,9.961536407470703,1.452775239944458,0.91584974527359,0.5528191328048706
3280628094.0,-0.5448582172393799,0.306175023317337,9.841575622558594,1.5442181825637815,0.7552997469902039,0.4435488879680633
3280636427.0,-0.5334972143173218,0.466789186000824,9.67306423187256,1.667704463005066,1.417171597480774,0.4374783039093017
3280644760.0,-0.5010492205619812,0.4193939864635467,9.703899383544922,1.550775408744812,1.4554648399353027,0.4498243629932403
3280653093.0,-0.4087322056293487,0.228813037276268,9.912302017211914,1.530591368675232,0.9057834148406982,0.438656598329544
3280661426.0,-0.364046961069107,0.2842592597007751,9.849854469299316,1.580487847328186,0.7208742499351501,0.4661150574684143
3280669759.0,-0.4170880615711212,0.461425632238388,9.622476577758787,1.6168088912963867,1.3026248216629028,0.5893451571464539
3280678092.0,-0.4890124797821045,0.5132089257240295,9.62345027923584,1.5214729309082031,1.835938811302185,0.5827879309654236
3280686425.0,-0.5474454760551453,0.2761502861976623,9.88954257965088,1.4021871089935305,1.490325689315796,0.3848410546779632
3280694758.0,-0.5425099730491638,0.1728419661521911,10.012097358703612,1.4282112121582031,0.76823490858078,0.4629900753498077
3280703091.0,-0.4961830377578735,0.3306344449520111,9.785167694091797,1.662786602973938,0.8235872983932495,0.468087375164032
3280711424.0,-0.5119996070861816,0.5601837038993835,9.668426513671877,1.7192658185958862,1.5380195379257202,0.473952978849411
3280719757.0,-0.4618644714355469,0.4750027358531952,9.7577543258667,1.4847674369812012,1.4397631883621216,0.4306392967700958
3280728090.0,-0.4164957404136657,0.2183762937784195,9.91622257232666,1.2800586223602295,0.7819129228591919,0.4462127685546875
3280736423.0,-0.3954159915447235,0.2471220791339874,9.794145584106444,1.6093807220458984,0.7989720106124878,0.4719806909561157
3280744756.0,-0.4176468849182129,0.4310600161552429,9.64859676361084,1.6980571746826172,1.5154277086257937,0.5325071215629578
3280753089.0,-0.5070548057556152,0.4595526456832886,9.770709991455078,1.6123266220092771,1.7830710411071775,0.6128846406936646
3280761422.0,-0.5128956437110901,0.3204565942287445,9.949342727661133,1.5345360040664673,1.1648200750350952,0.5244385600090027
3280769755.0,-0.5123867392539978,0.2731956839561462,9.948259353637695,1.4303373098373413,0.6678271293640137,0.4489790797233581
3280778088.0,-0.5378453731536865,0.3944026827812195,9.723360061645508,1.6492109298706057,1.3244223594665527,0.6143702268600464
3280786421.0,-0.5279043316841125,0.4663927853107452,9.661118507385254,1.596573829650879,1.5989559888839722,0.6381403207778931
3280794754.0,-0.4655545055866241,0.2754381895065307,9.882447242736816,1.5326404571533203,1.1770893335342407,0.4923696219921112
3280803087.0,-0.3817684054374695,0.2330535054206848,9.941231727600098,1.5298230648040771,0.6837591528892517,0.459711492061615
3280811420.0,-0.3871890008449554,0.4118424952030182,9.675822257995604,1.6412960290908811,1.006472945213318,0.5761793851852417
3280819753.0,-0.4586848020553589,0.5314955115318298,9.573299407958984,1.5758262872695925,1.7247217893600464,0.5527679920196533
3280828086.0,-0.5325306057929993,0.3454928398132324,9.833490371704102,1.4954997301101685,1.6233147382736206,0.5368359088897705
3280836419.0,-0.534814715385437,0.1253085136413574,10.043512344360352,1.501032471656799,0.9428215026855468,0.6027413010597229
3280844752.0,-0.5243405699729919,0.2643069922924042,9.881599426269531,1.6777452230453491,0.6492825150489807,0.5598631501197815
3280853085.0,-0.5059572458267212,0.5428475737571716,9.665714263916016,1.8151911497116089,1.3914035558700562,0.6103487610816956
3280861418.0,-0.4891141057014465,0.5517731308937073,9.70323085784912,1.4481135606765747,1.6068192720413208,0.5601961612701416
3280869751.0,-0.4413597285747528,0.3114337921142578,9.83255386352539,1.478492021560669,0.9604953527450562,0.4681897759437561
3280878084.0,-0.4092105031013489,0.177107036113739,9.850555419921877,1.499982476234436,0.6715155243873596,0.4831997156143188
3280886417.0,-0.4583351612091064,0.3894571363925934,9.664645195007324,1.7316887378692627,1.2482714653015137,0.5604522824287415
3280894750.0,-0.5289348363876343,0.4906299114227295,9.704965591430664,1.6009281873703003,1.848848342895508,0.6823248267173767
3280903083.0,-0.529049813747406,0.3847735524177551,9.91304874420166,1.6380430459976196,1.332542061805725,0.6173927187919617
3280911416.0,-0.5138197541236877,0.2520144283771515,9.974570274353027,1.4439127445220947,0.7909035086631775,0.533531665802002
3280919749.0,-0.4950389862060547,0.3733417987823486,9.786399841308594,1.6566389799118042,0.9652084112167358,0.5588129758834839
3280928082.0,-0.4988561570644378,0.4520680606365204,9.656021118164062,1.617295742034912,1.5702935457229614,0.4751825034618377
3280936415.0,-0.4676475524902344,0.3778025209903717,9.774408340454102,1.4960123300552368,1.4437079429626465,0.5714408159255981
3280944748.0,-0.4019421637058258,0.2134318500757217,9.9292573928833,1.495858669281006,0.8234848976135254,0.5335829854011536
3280953081.0,-0.4065602421760559,0.3185029327869415,9.774744987487791,1.6693438291549685,0.8364200592041016,0.5498992204666138
3280961414.0,-0.4901950061321258,0.5370590090751648,9.641255378723145,1.568858981132507,1.5797706842422483,0.530048131942749
3280969747.0,-0.562513530254364,0.4546559453010559,9.742754936218262,1.5258272886276243,1.826871395111084,0.5365542769432068
3280978080.0,-0.5723925232887268,0.1872699558734893,9.982270240783691,1.3594114780426023,1.1512188911437988,0.5120157599449158
3280986413.0,-0.4980910420417785,0.1585926711559295,9.96093463897705,1.6304357051849363,0.6674172878265381,0.5225688219070435
3280994746.0,-0.4878855645656585,0.4488087594509125,9.726391792297363,1.7589422464370728,1.15506112575531,0.6153435707092285
3281003079.0,-0.4256693720817566,0.6067095994949341,9.64559555053711,1.6864283084869385,1.6486985683441162,0.5669070482254028
3281011412.0,-0.4276773929595947,0.4069921374320984,9.81971836090088,1.447421908378601,1.257108211517334,0.4381442964076996
3281019745.0,-0.3985084891319275,0.1695824414491653,9.882328033447266,1.4956791400909424,0.813776969909668,0.489065408706665
3281028078.0,-0.4327362179756164,0.2956277132034302,9.768037796020508,1.6135815382003784,1.0515539646148682,0.6556347012519836
3281036411.0,-0.5296200513839722,0.4851802885532379,9.649008750915527,1.7959293127059937,1.6356356143951416,0.6754602789878845
3281044744.0,-0.5688357353210449,0.4572255611419678,9.808892250061035,1.5660157203674316,1.6342520713806152,0.5953900218009949
3281053077.0,-0.5577893257141113,0.2802654802799225,9.953027725219728,1.5057967901229858,0.9833688139915466,0.5976953506469727
3281061410.0,-0.5279737114906311,0.2954666018486023,9.846631050109863,1.4555927515029907,0.7234100103378296,0.4237490892410278
3281069743.0,-0.519277036190033,0.4287299513816833,9.644055366516112,1.604283571243286,1.3143304586410522,0.4899618625640869
3281078076.0,-0.4787985384464264,0.4069142043590545,9.70314598083496,1.5085886716842651,1.645906686782837,0.5849906802177429
3281086409.0,-0.4138312339782715,0.2309767305850982,9.924886703491213,1.490735650062561,0.9418994188308716,0.4590967297554016
3281094742.0,-0.3742327988147735,0.2505471110343933,9.917430877685549,1.5911433696746826,0.5572761297225952,0.4911145269870758
3281103075.0,-0.4009292423725128,0.4635361135005951,9.63255786895752,1.6283864974975586,1.1788311004638672,0.4437281787395477
3281111408.0,-0.501258134841919,0.524316132068634,9.594700813293455,1.680716633796692,1.9654953479766848,0.586348295211792
3281119741.0,-0.5682069659233093,0.2909933626651764,9.85832405090332,1.5136346817016602,1.5337419509887695,0.4590198695659637
3281128074.0,-0.533801257610321,0.1090423539280891,9.998197555541992,1.4907101392745972,0.7080159187316895,0.5303043127059937
3281136407.0,-0.5122699737548828,0.3368397355079651,9.82938003540039,1.678616285324097,0.7556328177452087,0.5170361399650574
3281144740.0,-0.5090521574020386,0.547736644744873,9.63563346862793,1.7067404985427856,1.576005458831787,0.5151150226593018
3281153073.0,-0.468978613615036,0.5100186467170715,9.761640548706056,1.5098694562911987,1.48932683467865,0.6315061450004578
3281161406.0,-0.4107776582241058,0.2494489103555679,9.895821571350098,1.3206058740615845,0.9330369234085084,0.5505395531654358
3281169739.0,-0.370969295501709,0.2471898049116134,9.79284381866455,1.648007035255432,0.7982035875320435,0.5047412514686584
3281178072.0,-0.4432923197746277,0.4020493626594543,9.637877464294434,1.567065954208374,1.47923481464386,0.5330962538719177
3281186405.0,-0.4809302985668182,0.5221083164215088,9.745405197143556,1.5616614818572998,1.7827893495559692,0.5812510251998901
3281194738.0,-0.5432848334312439,0.3308169245719909,9.947890281677246,1.4513154029846191,1.2607197761535645,0.5392692685127258
3281203071.0,-0.5055863857269287,0.2897308468818664,9.974690437316896,1.6019525527954102,0.6707983613014221,0.5377580523490906
3281211404.0,-0.515349268913269,0.4057284593582153,9.731108665466309,1.5457805395126345,1.0454578399658203,0.5386545658111572
3281219737.0,-0.5249062180519104,0.4421949386596679,9.680620193481444,1.575160264968872,1.5906825065612793,0.6041246056556702
3281228070.0,-0.4895802736282348,0.3286958634853363,9.861649513244627,1.5905799865722656,1.3569267988204956,0.5086859464645386
3281236403.0,-0.3884600400924682,0.1916474550962448,9.90697956085205,1.5447815656661987,0.7575281858444214,0.5176507830619812
3281244736.0,-0.3784793019294739,0.3523162603378296,9.77414894104004,1.5965737104415894,0.7898533344268799,0.4555363357067108
3281253069.0,-0.4825011193752289,0.5582134127616882,9.577695846557615,1.6580222845077517,1.722672700881958,0.5874752998352051
3281261402.0,-0.5399062633514404,0.387222409248352,9.819191932678224,1.4644556045532229,1.8624240159988403,0.4840450584888458
3281269735.0,-0.5502448081970215,0.1711384505033493,10.017831802368164,1.5424762964248655,1.003988265991211,0.5295870900154114
3281278068.0,-0.5230638384819031,0.1977420896291732,9.902432441711426,1.6463165283203125,0.7292500734329224,0.4475190937519073
3281286401.0,-0.5090643167495728,0.4731358587741852,9.687705039978027,1.7252339124679563,1.2974761724472046,0.5927261710166931
3281294734.0,-0.4944807291030884,0.5639000535011292,9.662824630737305,1.5937048196792605,1.5860973596572876,0.4674725532531738
3281303067.0,-0.440344363451004,0.3574739098548889,9.864715576171877,1.4631236791610718,1.089719295501709,0.5025898218154907
3281311400.0,-0.4279545843601227,0.1851799488067627,9.870043754577637,1.4317972660064695,0.5258474946022034,0.4210339784622192
3281319733.0,-0.4649069607257843,0.3708235323429107,9.745454788208008,1.659891963005066,1.0523990392684937,0.554023027420044
3281328066.0,-0.5257816910743713,0.4893479943275451,9.64605712890625,1.676182746887207,1.6983903646469116,0.5580957531929016
3281336399.0,-0.5493877530097961,0.4214164912700653,9.879423141479492,1.443451762199402,1.4116132259368896,0.3606868684291839
3281344732.0,-0.5385498404502869,0.2714383900165558,10.00865077972412,1.4392253160476685,0.7732040286064148,0.3965723812580108
3281353065.0,-0.5192261338233948,0.3483102321624756,9.770097732543944,1.5510058403015137,0.8706918954849243,0.4256445467472076
3281361398.0,-0.5396633148193359,0.4836041331291199,9.630671501159668,1.5955235958099363,1.622367262840271,0.499772161245346
3281369731.0,-0.467531144618988,0.3838878273963928,9.745967864990234,1.4562333822250366,1.5577682256698608,0.5012578368186951
3281378064.0,-0.4232835471630096,0.2501175105571747,9.891519546508787,1.5211396217346191,0.7770462036132812,0.517445981502533
3281386397.0,-0.3948437869548797,0.2747080624103546,9.802827835083008,1.6146060228347778,0.743286669254303,0.5765891671180725
3281394730.0,-0.4753811657428741,0.4755488038063049,9.621891975402832,1.5972908735275269,1.4206551313400269,0.601998507976532
3281403063.0,-0.5417351722717285,0.4737547636032104,9.696699142456056,1.5375585556030271,1.8677771091461184,0.5239008069038391
3281411396.0,-0.5615783333778381,0.2173224836587906,9.974569320678713,1.4010603427886963,1.247298002243042,0.5773577094078064
3281419729.0,-0.5009922981262207,0.1445804089307785,9.985433578491213,1.4373300075531006,0.6060712337493896,0.5536900758743286
3281428062.0,-0.4764489233493805,0.3862241506576538,9.772627830505373,1.7487735748291016,1.031882405281067,0.524592399597168
3281436395.0,-0.4742116630077362,0.5657644867897034,9.632685661315918,1.5593048334121704,1.5793097019195557,0.5829928517341614
3281444728.0,-0.4309541583061218,0.4060433506965637,9.766356468200684,1.410178780555725,1.3925563097000122,0.5274611115455627
3281453061.0,-0.3838964998722076,0.1810116171836853,9.900041580200195,1.492067575454712,0.7863185405731201,0.5779467821121216
3281461394.0,-0.3957898914813995,0.2549681067466736,9.779311180114746,1.6057435274124146,0.8745595812797546,0.5716200470924377
3281469727.0,-0.5000354647636414,0.4765381217002868,9.65399932861328,1.6929088830947876,1.630487084388733,0.5186242461204529
3281478060.0,-0.554867684841156,0.4699792265892029,9.814051628112791,1.5885564088821411,1.6757473945617676,0.5657288432121277
3281486393.0,-0.5320205688476562,0.2686488628387451,9.977801322937012,1.3513175249099731,0.9413104057312012,0.4558181762695312
3281494726.0,-0.546201229095459,0.2777206301689148,9.859877586364746,1.525391697883606,0.7805297374725342,0.5100178122520447
3281503059.0,-0.5198769569396973,0.421615719795227,9.654279708862305,1.6266448497772217,1.3188130855560305,0.5409342050552368
3281511392.0,-0.4887295961380005,0.4216986894607544,9.707923889160156,1.688452124595642,1.6136072874069214,0.4869394600391388
3281519725.0,-0.428152859210968,0.2532207071781158,9.889137268066406,1.6083306074142456,1.0561645030975342,0.446161538362503
3281528058.0,-0.3861455023288727,0.2262907922267913,9.894022941589355,1.6130691766738892,0.5739509463310242,0.4810737669467926
3281536391.0,-0.4215703904628753,0.4128284156322479,9.6348876953125,1.7102367877960205,1.1600687503814695,0.5942758917808533
3281544724.0,-0.5246617197990417,0.5006281733512878,9.61667537689209,1.5470612049102783,1.892879128456116,0.5650115013122559
3281553057.0,-0.5664984583854675,0.281697154045105,9.883034706115724,1.4629954099655151,1.4605108499526978,0.4759765267372131
3281561390.0,-0.5510671734809875,0.1523229330778122,9.99802017211914,1.489992618560791,0.7426207065582275,0.4280779063701629
3281569723.0,-0.5309302806854248,0.3202850818634033,9.802496910095217,1.7658069133758545,0.8231518268585205,0.4533847570419311
3281578056.0,-0.52119380235672,0.5518128275871277,9.672040939331056,1.7698540687561035,1.5110222101211548,0.4925233423709869
3281586389.0,-0.4891259372234344,0.4821857511997223,9.785683631896973,1.5279786586761477,1.4083858728408811,0.4954176843166351
3281594722.0,-0.4277144074440002,0.2353604286909103,9.914128303527832,1.4277504682540894,0.9323197603225708,0.6027414798736572
3281603055.0,-0.4470055699348449,0.2408262938261032,9.784713745117188,1.5377891063690186,0.7713343501091003,0.5251558423042297
3281611388.0,-0.468274861574173,0.4320049583911896,9.634584426879885,1.772569179534912,1.558459758758545,0.647310197353363
3281619721.0,-0.5215896368026733,0.4871824979782104,9.738637924194336,1.613402247428894,1.7799205780029297,0.5316618084907532
3281628054.0,-0.5390628576278687,0.3219900727272033,9.930907249450684,1.4732412099838257,1.1370799541473389,0.4454700052738189
3281636387.0,-0.5195057392120361,0.272542804479599,9.933892250061035,1.466402292251587,0.7021759152412415,0.5411904454231262
3281644720.0,-0.5278500914573669,0.409679651260376,9.721358299255373,1.5511341094970703,1.2121808528900146,0.4531542956829071
3281653053.0,-0.5389688014984131,0.464599072933197,9.69369125366211,1.5492385625839231,1.6428842544555664,0.5982075929641724
3281661386.0,-0.4698755443096161,0.3302148282527923,9.86646556854248,1.4064648151397705,1.1523971557617188,0.4599163830280304
3281669719.0,-0.3768403828144073,0.2069532126188278,9.868734359741213,1.511662244796753,0.5779210925102234,0.3239560127258301
3281678052.0,-0.3948254585266113,0.3957399427890777,9.6871337890625,1.6142733097076416,0.9850082993507384,0.6427252888679504
3281686385.0,-0.4494787454605102,0.5183160305023193,9.569177627563477,1.6563574075698853,1.7413454055786133,0.494546890258789
3281694718.0,-0.5069615244865417,0.3464374542236328,9.823271751403809,1.5050796270370483,1.6801272630691528,0.404897004365921
3281703051.0,-0.5269023180007935,0.1560758650302887,9.976788520812988,1.5030819177627563,0.896920919418335,0.4360439479351043
3281711384.0,-0.5031574964523315,0.2760141491889953,9.900314331054688,1.6813822984695437,0.7509453296661377,0.5568662285804749
3281719717.0,-0.4953043460845947,0.5294206738471985,9.68178367614746,1.8109393119812007,1.2660475969314575,0.5025385618209839
3281728050.0,-0.4708430469036102,0.5373935699462891,9.716891288757324,1.5877623558044434,1.6150927543640137,0.450695276260376
3281736383.0,-0.435462474822998,0.2807064354419708,9.854362487792969,1.4495223760604858,1.052937150001526,0.5335317254066467
3281744716.0,-0.4172015190124511,0.188741385936737,9.854973793029783,1.5437827110290527,0.7586040496826172,0.4803309738636017
3281753049.0,-0.4439169466495514,0.3965622186660766,9.676201820373535,1.681049346923828,1.3270350694656372,0.5310214161872864
3281761382.0,-0.4988020956516266,0.4924454689025879,9.70102596282959,1.6150927543640137,1.8504878282547,0.55307537317276
3281769715.0,-0.5514025688171387,0.3624843955039978,9.920151710510254,1.541631102561951,1.330825924873352,0.5461082458496094
3281778048.0,-0.5346070528030396,0.2549005448818207,9.976228713989258,1.5879417657852173,0.7577843070030212,0.4945980608463287
3281786381.0,-0.5037136673927307,0.3372744619846344,9.76184368133545,1.6076388359069824,0.9837018847465516,0.4179346263408661
3281794714.0,-0.5327284932136536,0.4403799772262573,9.688024520874023,1.545959711074829,1.544730305671692,0.5553293824195862
3281803047.0,-0.4799808859825134,0.3359131515026092,9.790650367736816,1.39747416973114,1.441838026046753,0.5028714537620544
3281811380.0,-0.4118833541870117,0.201563686132431,9.91420841217041,1.49765145778656,0.916490077972412,0.4444197714328766
3281819713.0,-0.4145421087741852,0.3733227252960205,9.758091926574709,1.6032333374023438,0.8936164975166321,0.5275635719299316
3281828046.0,-0.4630768895149231,0.5080291032791138,9.595677375793455,1.6931650638580322,1.711402416229248,0.5617073774337769
3281836379.0,-0.5631586909294128,0.4278998672962188,9.730905532836914,1.5149410963058472,1.8881916999816888,0.4723392724990845
3281844712.0,-0.5668575167655945,0.1635048538446426,9.988035202026367,1.4465510845184326,1.1229920387268066,0.4127861857414245
3281853045.0,-0.5156826376914978,0.2068099081516266,9.919877052307127,1.6976985931396484,0.6988971829414368,0.5659849047660828
3281861378.0,-0.5158807635307312,0.4729447960853576,9.720903396606444,1.7708529233932495,1.150194525718689,0.5193926692008972
3281869711.0,-0.5062220096588135,0.5741149187088013,9.682784080505373,1.6456761360168457,1.467554807662964,0.5499247908592224
3281878044.0,-0.4470624327659607,0.3682391047477722,9.85910987854004,1.5192954540252686,1.204573392868042,0.4945212304592132
3281886377.0,-0.4043788313865661,0.2036199867725372,9.87728214263916,1.4215515851974487,0.7039176225662231,0.4048457443714142
3281894710.0,-0.4393940269947052,0.3274804353713989,9.724014282226562,1.6543850898742676,1.219173550605774,0.5378605127334595
3281903043.0,-0.5020668506622314,0.4833141267299652,9.685861587524414,1.7498494386672974,1.7318938970565796,0.5302018523216248
3281911376.0,-0.5123797655105591,0.431325763463974,9.876361846923828,1.594319462776184,1.4591789245605469,0.5313032269477844
3281919709.0,-0.5121989846229553,0.2853608727455139,9.957074165344238,1.4403780698776243,0.8133928775787354,0.5157041549682617
3281928042.0,-0.4979493319988251,0.3560115098953247,9.820775985717772,1.5645301342010498,0.9280165433883668,0.6080179214477539
3281936375.0,-0.5235365629196167,0.4779801368713379,9.653790473937988,1.6422436237335205,1.4817962646484375,0.5252583026885986
3281944708.0,-0.4811967313289642,0.3814856708049774,9.77008819580078,1.593397617340088,1.4694759845733645,0.4875029027462005
3281953041.0,-0.418431282043457,0.2251381874084472,9.924560546875,1.42944073677063,0.826327919960022,0.4086110293865204
3281961374.0,-0.379861056804657,0.3015704751014709,9.830855369567873,1.6360450983047483,0.6824015974998474,0.4855562448501587
3281969707.0,-0.4416768848896026,0.5078529715538025,9.631690979003906,1.5958564281463623,1.4083858728408811,0.575231671333313
3281978040.0,-0.5184905529022217,0.4697031080722809,9.681706428527832,1.4308751821517944,1.805893063545227,0.5384496450424194
3281986373.0,-0.5182368159294128,0.2270026803016662,9.97828197479248,1.4943214654922483,1.317250370979309,0.5244898796081543
3281994706.0,-0.5188999176025391,0.1637995988130569,9.972785949707031,1.6867101192474363,0.690316379070282,0.4556131660938263
3282003039.0,-0.5035603046417236,0.3987933993339538,9.741998672485352,1.815882682800293,0.9858278036117554,0.5075844526290894
3282011372.0,-0.5037919282913208,0.5765909552574158,9.661534309387209,1.674159049987793,1.4617658853530884,0.5101202726364136
3282019705.0,-0.4621625542640686,0.4254405200481415,9.819046974182127,1.3699132204055786,1.2125394344329834,0.406100869178772
3282028038.0,-0.4465879201889038,0.2019247114658355,9.874622344970703,1.3758045434951782,0.6817100644111633,0.4065619111061096
3282036371.0,-0.4476496279239654,0.2682572305202484,9.720309257507324,1.5833821296691897,0.8592422604560852,0.4070998132228851
3282044704.0,-0.4964557588100433,0.4750877320766449,9.659452438354492,1.780202031135559,1.6169114112854004,0.5099666118621826
3282053037.0,-0.5347069501876831,0.4517437517642975,9.804925918579102,1.5179123878479004,1.7303569316864014,0.4831229150295257
3282061370.0,-0.5382753014564514,0.2712324857711792,9.956246376037598,1.3609994649887085,0.9935632944107056,0.5099921822547913
3282069703.0,-0.5156620740890503,0.2866675853729248,9.860663414001465,1.5466259717941284,0.9635947942733764,0.4387078285217285
3282078036.0,-0.5130706429481506,0.4447210431098938,9.649667739868164,1.543705940246582,1.217457294464111,0.6216702461242676
3282086369.0,-0.4940397441387176,0.4338465332984924,9.73130989074707,1.6203694343566897,1.5665283203125,0.5160372257232666
3282094702.0,-0.439308762550354,0.2358926087617874,9.908158302307127,1.4495478868484497,1.073530912399292,0.4933941960334778
3282103035.0,-0.4054664671421051,0.2552876472473144,9.852086067199709,1.546754002571106,0.6828370690345764,0.4661406278610229
3282111368.0,-0.4319271147251129,0.4654657542705536,9.663960456848145,1.668728947639465,1.1593899726867676,0.5782797932624817
3282119701.0,-0.530383288860321,0.5058577060699463,9.639002799987791,1.523112177848816,1.804023504257202,0.6247695684432983
3282128034.0,-0.5465230345726013,0.2566889822483063,9.8760986328125,1.490325689315796,1.4541585445404053,0.5561747550964355
3282136367.0,-0.541627824306488,0.1335898637771606,10.006014823913574,1.5081279277801514,0.7504074573516846,0.3866340816020965
3282144700.0,-0.4882021844387054,0.2954623997211456,9.811870574951172,1.6954189538955688,0.816799521446228,0.4107114374637604
3282153033.0,-0.4597406089305877,0.5788769721984863,9.662827491760254,1.6657320261001587,1.520499348640442,0.5225688219070435
3282161366.0,-0.4329483807086944,0.4772063493728637,9.762077331542969,1.5082045793533323,1.3556973934173584,0.4894495904445648
3282169699.0,-0.4029451608657837,0.2155463993549347,9.923837661743164,1.4251377582550049,0.9561923146247864,0.5114010572433472
3282178032.0,-0.4157925248146057,0.2553359866142273,9.828241348266602,1.6003133058547974,0.8513018488883972,0.5865275859832764
3282186365.0,-0.4923794269561767,0.4098688960075378,9.63020133972168,1.5524659156799316,1.6248260736465454,0.6296875476837158
3282194698.0,-0.5419954657554626,0.481129914522171,9.775310516357422,1.6005696058273315,1.8399089574813845,0.5510262250900269
3282203031.0,-0.5370793342590332,0.335600197315216,9.96374797821045,1.4663764238357544,1.1933543682098389,0.547440230846405
3282211364.0,-0.5063274502754211,0.2899632453918457,9.892605781555176,1.6420903205871582,0.8138539791107178,0.610605001449585
3282219697.0,-0.474187433719635,0.4193533062934875,9.7152681350708,1.616860270500183,1.185695767402649,0.5741814374923706
3282228030.0,-0.4861826300621032,0.456560730934143,9.705432891845703,1.7432407140731812,1.6310759782791138,0.4552033543586731
3282236363.0,-0.425395518541336,0.2791285514831543,9.869951248168944,1.465889811515808,1.2532659769058228,0.4191897213459015
3282244696.0,-0.3823333084583282,0.2126125693321228,9.91936206817627,1.5492130517959597,0.6863462924957275,0.4298453032970428
3282253029.0,-0.41100013256073,0.3716537058353424,9.69939422607422,1.6276692152023315,1.107136845588684,0.545134961605072
3282261362.0,-0.5216014385223389,0.5302551984786987,9.580769538879396,1.671444058418274,1.7953144311904907,0.4846597611904144
3282269695.0,-0.567159116268158,0.3560578823089599,9.804293632507324,1.4562331438064575,1.6423972845077517,0.5399864912033081
3282278028.0,-0.5404424667358398,0.1284679472446441,9.994823455810549,1.4751877784729004,0.9069359302520752,0.4476471245288849
3282286361.0,-0.5407890677452087,0.2289256751537323,9.918880462646484,1.699722409248352,0.712831437587738,0.4218024313449859
3282294694.0,-0.4822982847690582,0.487000823020935,9.677626609802246,1.7909857034683228,1.358489155769348,0.4641426801681518
3282303027.0,-0.4635038673877716,0.5749547481536865,9.704459190368652,1.6555376052856443,1.5466259717941284,0.574642539024353
3282311360.0,-0.4207346439361572,0.2762292623519897,9.863777160644531,1.4423246383666992,0.8992004990577698,0.5310471057891846
3282319693.0,-0.3962166607379913,0.2123640477657318,9.887188911437988,1.5801548957824707,0.8337048888206482,0.5128609538078308
3282328026.0,-0.4368164837360382,0.3534750640392303,9.652727127075195,1.643447756767273,1.2808014154434204,0.5797653794288635
3282336359.0,-0.5244834423065186,0.4947896599769592,9.714625358581545,1.736120104789734,1.924973964691162,0.5569431185722351
3282344692.0,-0.5422183871269226,0.3451713025569916,9.91903018951416,1.5275944471359253,1.3608970642089844,0.4651929438114166
3282353025.0,-0.5240405797958374,0.2402883023023605,9.972302436828612,1.552798867225647,0.8038130402565002,0.5321229100227356
3282361358.0,-0.5213564038276672,0.3593444526195526,9.810921669006348,1.6258505582809448,0.9675393104553224,0.4340972006320953
3282369691.0,-0.5235415101051331,0.4924022853374481,9.647819519042969,1.578797459602356,1.6334069967269895,0.5745913982391357
3282378024.0,-0.4858676493167877,0.3949757218360901,9.831538200378418,1.602592945098877,1.4437589645385742,0.6004872918128967
3282386357.0,-0.4241003692150116,0.2175870984792709,9.928261756896973,1.515094757080078,0.8635198473930359,0.5251558423042297
3282394690.0,-0.3841423094272613,0.3391128778457641,9.813530921936035,1.6667566299438477,0.792209804058075,0.4822007417678833
3282403023.0,-0.4562788903713226,0.5298094153404236,9.573171615600586,1.7355306148529053,1.5701907873153689,0.5277684330940247
3282411356.0,-0.5218305587768555,0.4500299394130707,9.757916450500488,1.5788486003875732,1.9008196592330933,0.6481810808181763
3282419689.0,-0.5305963754653931,0.234772577881813,9.96376132965088,1.448292851448059,1.2437632083892822,0.4547167122364044
3282428022.0,-0.5114952325820923,0.1486877202987671,9.979449272155762,1.6538214683532717,0.6336833238601685,0.4185749888420105
3282436355.0,-0.485740602016449,0.4366688728332519,9.748236656188965,1.7246191501617432,0.98641699552536,0.3984678387641907
3282444688.0,-0.4510749578475952,0.6059227585792542,9.646432876586914,1.6986721754074097,1.5436803102493286,0.5609132647514343
3282453021.0,-0.4402644634246826,0.4219282567501068,9.790600776672363,1.4499064683914185,1.2141786813735962,0.3711630702018738
3282461354.0,-0.3943304717540741,0.1830263584852218,9.934354782104492,1.5449352264404297,0.7025087475776672,0.5418562889099121
3282469687.0,-0.3934221565723419,0.2816009223461151,9.790875434875488,1.708507776260376,1.039182186126709,0.502794623374939
3282478020.0,-0.4889692366123199,0.4931008517742157,9.629820823669434,1.7006700038909912,1.7785371541976929,0.6058919429779053
3282486353.0,-0.5200099945068359,0.4859374165534973,9.805088996887209,1.6016452312469482,1.6788721084594729,0.5046132206916809
3282494686.0,-0.5262216925621033,0.2781305015087127,10.019159317016602,1.4629697799682615,0.971996247768402,0.4763607084751129
