SampleTimeFine,Acc_X,Acc_Y,Acc_Z,Gyr_X,Gyr_Y,Gyr_Z
4199063523.0,0.0,0.0,0.0,0.0,0.0,0.0
4199071856.0,-0.5828207731246948,0.2518873512744903,10.171514511108398,-0.1225640922784805,0.4704950749874115,1.2513450384140017
4199080189.0,-0.5706967115402222,0.0714068338274955,10.080080032348633,-0.3542448878288269,-0.2162097543478012,1.2045477628707886
4199088522.0,-0.491893857717514,-0.0889956727623939,10.216326713562012,-0.25578373670578,-0.7248827815055847,1.1907672882080078
4199096855.0,-0.4847123920917511,0.0690106302499771,10.333547592163086,-0.2456917315721511,-0.0793785154819488,1.166792392730713
4199105188.0,-0.5103124380111694,0.2281399220228195,10.188138008117676,-0.1135479062795639,0.2470621168613433,1.2650487422943115
4199113521.0,-0.4548421204090118,0.1021354421973228,10.065465927124023,-0.2480994760990142,-0.075792521238327,1.1520898342132568
4199121854.0,-0.365138441324234,-0.031909130513668,10.156965255737305,-0.3625438511371612,-0.6691718101501465,1.2594903707504272
4199130187.0,-0.3617049753665924,0.0953545495867729,10.344220161437988,-0.1648660153150558,-0.3458305597305298,1.30238139629364
4199138520.0,-0.5181018710136414,0.2654851675033569,10.285395622253418,-0.119541622698307,0.5500016212463379,1.2440961599349976
4199146853.0,-0.6232700943946838,0.1653665751218795,10.06128215789795,-0.2468187808990478,0.3438583314418793,1.3004732131958008
4199155186.0,-0.549431324005127,-0.0449341610074043,10.041518211364746,-0.2877759039402008,-0.6338498592376709,1.2046501636505127
4199163519.0,-0.475342184305191,0.0099639100953936,10.283227920532228,-0.0444535091519355,-0.6094779372215271,1.06585955619812
4199171852.0,-0.4670234322547912,0.3221569061279297,10.359734535217283,-0.0062370658852159,-0.1393542438745498,1.1509500741958618
4199180185.0,-0.4744265973567962,0.3862608671188354,10.152502059936523,-0.050895482301712,0.2763903737068176,1.208159327507019
4199188518.0,-0.4249146282672882,0.073745809495449,10.051976203918455,-0.4096996784210205,-0.3754022121429443,1.1550098657608032
4199196851.0,-0.4033061861991882,-0.0778590887784957,10.133718490600586,-0.4356468915939331,-0.511951744556427,1.087388277053833
4199205184.0,-0.454777717590332,0.1453242301940918,10.31826877593994,-0.0987428799271583,0.126521497964859,1.0785257816314695
4199213517.0,-0.5302831530570984,0.3604603707790375,10.22099781036377,-0.1324512064456939,0.4306648969650268,1.1155638694763184
4199221850.0,-0.5638514757156372,0.2323458045721054,10.119227409362791,-0.3868773579597473,-0.0192362871021032,1.1490930318832395
4199230183.0,-0.4969511032104492,-0.0158294457942247,10.145155906677246,-0.4616196751594543,-0.4963270127773285,1.141331911087036
4199238516.0,-0.4935390055179596,0.0427096262574195,10.287325859069824,-0.2955370247364044,-0.2633911669254303,1.2466063499450684
4199246849.0,-0.5544382929801941,0.2293630689382553,10.191099166870115,-0.1795173585414886,0.2629813253879547,1.1416263580322266
4199255182.0,-0.4938394427299499,0.2020177394151687,10.11050033569336,-0.2337298691272735,0.119042158126831,1.1205843687057495
4199263515.0,-0.4033344984054565,0.0085977176204323,10.126222610473633,-0.2953705787658691,-0.6319160461425781,1.1878602504730225
4199271848.0,-0.394286036491394,0.0437828041613101,10.299400329589844,-0.3603666424751282,-0.6056997776031494,1.1424589157104492
4199280181.0,-0.5075013637542725,0.1990636140108108,10.303949356079102,-0.2688726484775543,0.1841791421175003,1.2016021013259888
4199288514.0,-0.6262099146842957,0.1716753840446472,10.142452239990234,-0.2327821552753448,0.396546721458435,1.1852346658706665
4199296847.0,-0.5778495669364929,-0.042237538844347,10.045388221740724,-0.4448680281639099,-0.0864736512303352,1.127243995666504
4199305180.0,-0.4975373148918152,-0.1047530621290206,10.226655960083008,-0.3864419758319855,-0.7228080630302429,1.205546736717224
4199313513.0,-0.4784751236438751,0.1661247760057449,10.38148593902588,-0.1863435506820678,-0.1425944417715072,1.1159993410110474
4199321846.0,-0.5028377175331116,0.3308404386043548,10.222935676574709,-0.2264554351568222,0.2531070411205292,1.1235811710357666
4199330179.0,-0.4779815673828125,0.0955548286437988,10.045974731445312,-0.4645397365093231,-0.1295055598020553,1.2819795608520508
4199338512.0,-0.4082342088222503,-0.1662535220384597,10.086016654968262,-0.4867728650569916,-0.6030102968215942,1.242098093032837
4199346845.0,-0.4618590772151947,-0.0468582734465599,10.238794326782228,-0.1940022110939026,-0.2941282391548157,1.2629737854003906
4199355178.0,-0.5597385764122009,0.2417948096990585,10.297669410705566,-0.0737689957022667,0.2924249172210693,1.2752175331115725
4199363511.0,-0.6048442125320435,0.2348705381155014,10.177508354187012,-0.2918998003005981,0.2909392714500427,1.1565722227096558
4199371844.0,-0.5330868363380432,-0.0059650596231222,10.131966590881348,-0.3866212368011474,-0.5234268307685852,1.09458589553833
4199380177.0,-0.4835107326507568,-0.0695327892899513,10.225940704345703,-0.3082416653633117,-0.5164085626602173,1.224193811416626
4199388510.0,-0.5175368189811707,0.113880418241024,10.26289176940918,-0.0891887620091438,0.0110269282013177,1.2164071798324585
4199396843.0,-0.4835107326507568,0.1841427385807037,10.119148254394531,-0.0878824368119239,-0.0369613394141197,1.1205843687057495
4199405176.0,-0.3904379308223724,0.008461813442409,10.072239875793455,-0.2648383975028991,-0.451771080493927,1.1599150896072388
4199413509.0,-0.3735357522964477,-0.0450772158801555,10.228150367736816,-0.3388506770133972,-0.7004468441009521,1.0773475170135498
4199421842.0,-0.4411158263683319,0.1283148527145385,10.2637357711792,-0.2045040428638458,-0.0874213799834251,1.245095133781433
4199430175.0,-0.5894872546195984,0.22650907933712,10.169175148010254,-0.1861258596181869,0.3910269439220428,1.1670101881027222
4199438508.0,-0.5883857011795044,0.0063660303130745,10.039508819580078,-0.2788878083229065,-0.0286879427731037,1.1724786758422852
4199446841.0,-0.5239458680152893,-0.1322349309921264,10.109414100646973,-0.3799103498458862,-0.7465525269508362,1.1750402450561523
4199455174.0,-0.4736541211605072,0.0602837949991226,10.316874504089355,-0.0616022311151027,-0.4365946054458618,1.1351332664489746
4199463507.0,-0.4904203712940216,0.3389303088188171,10.300415992736816,0.0653162971138954,0.0975133925676345,1.186937928199768
4199471840.0,-0.4443775117397308,0.2552134394645691,10.128275871276855,-0.2700636684894562,-0.0293154921382665,1.1369900703430176
4199480173.0,-0.3833137154579162,-0.0355281718075275,10.1079683303833,-0.4141309261322021,-0.5206605195999146,1.1068295240402222
4199488506.0,-0.3925980925559997,-0.0794752389192581,10.24635410308838,-0.2974581122398376,-0.5191236734390259,1.147120714187622
4199496839.0,-0.4669161438941955,0.2193061709403991,10.33851146697998,-0.1174412593245506,0.122346393764019,1.2039073705673218
4199505172.0,-0.5461410284042358,0.3351464569568634,10.186091423034668,-0.1301971673965454,0.3973920941352844,1.2038050889968872
4199513505.0,-0.5274649262428284,0.1390512734651565,10.153525352478027,-0.3798846900463104,-0.2202055752277374,1.1514238119125366
4199521838.0,-0.4848769307136535,-0.0074031925760209,10.223093032836914,-0.32542884349823,-0.5566229224205017,1.156444072723389
4199530171.0,-0.5186097025871277,0.1327281594276428,10.292984008789062,-0.3092022538185119,-0.3095352351665497,1.269928216934204
4199538504.0,-0.5638514757156372,0.2599772214889526,10.10383415222168,-0.0968730375170707,-0.0219257846474647,1.1264499425888062
4199546837.0,-0.4705139994621277,0.1437578350305557,10.069293022155762,-0.3626207113265991,-0.2906447350978851,1.2025244235992432
4199555170.0,-0.3758604526519775,-0.0058009554632008,10.149676322937012,-0.4151555299758911,-0.5329809784889221,1.218738079071045
4199563503.0,-0.409185528755188,0.0868498161435127,10.27151870727539,-0.2142374515533447,-0.2704862952232361,1.1750913858413696
4199571836.0,-0.5520493388175964,0.2718726396560669,10.279808044433594,-0.1530450582504272,0.30738365650177,1.2510889768600464
4199580169.0,-0.5929494500160217,0.1650733649730682,10.086746215820312,-0.3533227443695068,0.0961686447262764,1.202857255935669
4199588502.0,-0.5517274141311646,-0.0832233279943466,10.059944152832031,-0.4457645118236542,-0.46387380361557,1.106906175613403
4199596835.0,-0.4936462938785553,-0.0383249334990978,10.229738235473633,-0.1191702187061309,-0.6190063953399658,1.2385762929916382
4199605168.0,-0.4994830191135406,0.2997899651527405,10.349634170532228,-0.0343230739235878,-0.0286367125809192,1.1873350143432615
4199613501.0,-0.5113782286643982,0.3665116727352142,10.206270217895508,-0.1891995519399643,0.1666205823421478,1.1570461988449097
4199621834.0,-0.4457007944583893,0.0533101372420787,10.100157737731934,-0.4438306987285614,-0.1790563315153122,1.1385529041290283
4199630167.0,-0.4083985984325409,-0.0968492478132247,10.193788528442385,-0.3943823277950287,-0.5971702337265015,1.2241426706314087
4199638500.0,-0.4601423740386963,0.1120707467198371,10.336966514587402,-0.1702321916818618,-0.0289953146129846,1.1480939388275146
4199646833.0,-0.5577643513679504,0.3011272847652435,10.245610237121582,-0.153890311717987,0.374492883682251,1.1193548440933228
4199655166.0,-0.5225867033004761,0.1663536727428436,10.101609230041504,-0.3584839701652527,0.0766890197992324,1.199386477470398
4199663499.0,-0.4757856428623199,-0.0393048711121082,10.161750793457031,-0.4413332939147949,-0.4746830463409424,1.1726324558258057
4199671832.0,-0.5131878852844238,0.0029398184269666,10.278428077697754,-0.2474847286939621,-0.2690263092517853,1.2157156467437744
4199680165.0,-0.5352330207824707,0.1933771818876266,10.225640296936035,-0.2027622908353805,0.1209119856357574,1.174143671989441
4199688498.0,-0.4734106659889221,0.0970568731427192,10.055509567260742,-0.3482255041599273,0.0807488709688186,1.1640260219573977
4199696831.0,-0.4023259580135345,-0.0797184333205223,10.106294631958008,-0.3590859174728393,-0.4659741222858429,1.1592105627059937
4199705164.0,-0.3681566715240478,-0.0064157792367041,10.288212776184082,-0.2560014724731445,-0.3700616657733917,1.2035616636276243
4199713497.0,-0.4931742250919342,0.1696725934743881,10.250267028808594,-0.1878419816493988,0.3078062534332275,1.1669844388961792
4199721830.0,-0.5859465599060059,0.1242949515581131,10.115729331970217,-0.2011997997760772,0.3922435641288757,1.1594411134719849
4199730163.0,-0.5566914677619934,-0.1170205101370811,10.013558387756348,-0.3749923706054687,-0.1614465117454528,1.0760154724121094
4199738496.0,-0.4967077076435089,-0.0772363990545272,10.20291519165039,-0.2691031396389007,-0.5059067010879517,1.1277563571929932
4199746829.0,-0.4987033605575561,0.1939350366592407,10.319721221923828,0.0038549422752112,-0.0509467124938964,1.1227871179580688
4199755162.0,-0.4973514676094055,0.29142826795578,10.259930610656738,-0.0903285965323448,0.1007151827216148,1.1716976165771484
4199763495.0,-0.421760231256485,0.0693038925528526,10.115629196166992,-0.3133261203765869,-0.1760850697755813,1.2629354000091553
4199771828.0,-0.3869330286979675,-0.1264336556196212,10.102953910827637,-0.30511674284935,-0.4628748297691345,1.2593110799789429
4199780161.0,-0.4525031447410583,0.0379243716597557,10.270624160766602,-0.1083225905895233,-0.0982305854558944,1.1859006881713867
4199788494.0,-0.5451896786689758,0.246451199054718,10.254494667053224,-0.0605520568788051,0.3164510726928711,1.207442283630371
4199796827.0,-0.5374073386192322,0.2190414667129516,10.17226505279541,-0.1523534655570984,0.0897138640284538,1.1652299165725708
4199805160.0,-0.5276866555213928,0.0052072694525122,10.160913467407228,-0.2961773574352264,-0.3373394310474396,1.2149982452392578
4199813493.0,-0.5355403423309326,0.0259221605956554,10.245660781860352,-0.2630709707736969,-0.3025937676429748,1.1639620065689087
4199821826.0,-0.5712332129478455,0.2110160142183303,10.222334861755373,-0.1404044330120086,-0.000294563738862,1.129664659500122
4199830159.0,-0.5250258445739746,0.189178392291069,10.12773895263672,-0.0666738525032997,0.0367948450148105,1.2306742668151855
4199838492.0,-0.4375465512275696,0.0127463657408952,10.122624397277832,-0.2994560301303863,-0.4859020709991455,1.2269604206085205
4199846825.0,-0.3971972167491913,0.0149998646229505,10.253199577331545,-0.256398469209671,-0.4168972671031952,1.170173406600952
4199855158.0,-0.4637402594089508,0.2346490174531936,10.277941703796388,-0.0597067847847938,0.0405857600271701,1.2656378746032717
4199863491.0,-0.5803316235542297,0.2067386209964752,10.162043571472168,-0.2146985083818435,0.3727255761623382,1.246760010719299
4199871824.0,-0.5709613561630249,-0.0152212502434849,10.059629440307615,-0.3110336363315582,-0.1681318283081054,1.1595691442489624
4199880157.0,-0.5175225138664246,-0.0616074353456497,10.194696426391602,-0.1899039447307586,-0.5199946165084839,1.1860285997390747
4199888490.0,-0.5359696745872498,0.183677852153778,10.324606895446776,-0.0263058189302682,-0.1837821304798126,1.135901689529419
4199896823.0,-0.5510836243629456,0.3611971139907837,10.246461868286133,-0.1166216135025024,0.0983714759349823,1.1520642042160034
4199905156.0,-0.4700490832328796,0.1647657305002212,10.074700355529783,-0.3647851347923279,-0.1837693303823471,1.2165480852127075
4199913489.0,-0.4223467707633972,-0.0828299224376678,10.082590103149414,-0.3920387029647827,-0.5476451516151428,1.2368600368499756
4199921822.0,-0.4441271722316742,0.0002932665520347,10.200955390930176,-0.2059384435415268,-0.220384880900383,1.1528582572937012
4199930155.0,-0.5351541638374329,0.2678813338279724,10.249022483825684,-0.0136908087879419,0.2706143856048584,1.2309175729751587
4199938488.0,-0.5448392033576965,0.2794973254203796,10.200190544128418,-0.2606888711452484,0.1028667688369751,1.15771222114563
4199946821.0,-0.5033813118934631,0.0225958302617073,10.149046897888184,-0.4107498526573181,-0.2667722404003143,1.1628990173339844
4199955154.0,-0.4877380430698395,-0.0056149815209209,10.241426467895508,-0.3633891940116882,-0.5051895976066589,1.2456587553024292
4199963487.0,-0.5289957523345947,0.1982696205377578,10.262784957885742,-0.1926702708005905,-0.0096821812912821,1.2099908590316772
4199971820.0,-0.4884175658226013,0.1915173679590225,10.143704414367676,-0.1766869723796844,0.1649172455072403,1.1176387071609497
4199980153.0,-0.4110595881938934,0.0168020278215408,10.11520004272461,-0.425734132528305,-0.4214566051959991,1.221581220626831
4199988486.0,-0.3712683022022247,-0.0185330156236886,10.246118545532228,-0.3533099591732025,-0.5431882739067078,1.2115020751953125
4199996819.0,-0.4395493268966675,0.1852157413959503,10.30648136138916,-0.0924801975488662,0.0070951427333056,1.1700838804244995
4200005152.0,-0.546462893486023,0.2201287448406219,10.188309669494627,-0.1741767823696136,0.4874772727489471,1.2259355783462524
4200013485.0,-0.5470136404037476,-0.0208362322300672,10.055330276489258,-0.3025041222572326,0.0592329204082489,1.1959927082061768
4200021818.0,-0.5033312439918518,-0.1398881524801254,10.119284629821776,-0.2591264247894287,-0.4800492227077484,1.229150414466858
4200030151.0,-0.5145182609558105,0.0923787206411361,10.297246932983398,-0.0249482635408639,-0.2814491987228393,1.1284735202789309
4200038484.0,-0.4793835282325744,0.3204402029514313,10.25896453857422,-0.1170058250427246,0.1080280467867851,1.1385912895202637
4200046817.0,-0.4772519767284393,0.1795935779809951,10.128954887390137,-0.2116376012563705,0.0836817026138305,1.155765414237976
4200055150.0,-0.409900814294815,-0.1024787798523902,10.07861328125,-0.31642547249794,-0.4341228604316711,1.1181381940841677
4200063483.0,-0.4543628990650177,-0.0565074607729911,10.17548370361328,-0.2386478334665298,-0.3399521112442016,1.1659215688705444
4200071816.0,-0.5216782689094543,0.2220600098371505,10.258228302001951,-0.0839378535747528,0.1552094519138336,1.1069319248199463
4200080149.0,-0.56784987449646,0.2708209455013275,10.244909286499023,-0.2013278901576995,0.3760041296482086,1.1575968265533447
4200088482.0,-0.5325577855110168,0.0279676150530576,10.135342597961426,-0.3743008375167846,-0.0555572733283042,1.1785494089126587
4200096815.0,-0.538666307926178,-0.022767499089241,10.164855003356934,-0.2803989946842193,-0.307883083820343,1.181597352027893
4200105148.0,-0.5469422340393066,0.1335935741662979,10.223987579345703,-0.1838333755731582,-0.0646503269672393,1.2353616952896118
4200113481.0,-0.5165139436721802,0.2304932177066803,10.20172119140625,-0.1299154013395309,0.1675811260938644,1.1544207334518433
4200121814.0,-0.460349828004837,0.0494476035237312,10.155620574951172,-0.2780937552452087,-0.248867928981781,1.1254767179489136
4200130147.0,-0.3382294178009033,-0.0385111011564731,10.176872253417969,-0.2856884002685547,-0.4566890299320221,1.2033568620681765
4200138480.0,-0.4331618547439575,0.1263621300458908,10.31484317779541,-0.171986773610115,-0.2713956236839294,1.1536650657653809
4200146813.0,-0.5640946626663208,0.2750053405761719,10.191577911376951,-0.2123676240444183,0.3687041103839874,1.209055781364441
4200155146.0,-0.5941507816314697,0.0923215672373771,10.11856174468994,-0.2502767145633697,0.2357150018215179,1.1333147287368774
4200163479.0,-0.5503254532814026,-0.1449952721595764,10.10947036743164,-0.1930800974369049,-0.2907215654850006,1.1976319551467896
4200171812.0,-0.5431869029998779,0.0568722561001777,10.254487037658691,-0.1146237179636955,-0.4515533149242401,1.1933032274246216
4200180145.0,-0.5270000100135803,0.3366127908229828,10.314385414123535,0.0159704741090536,0.0396892577409744,1.2182769775390625
4200188478.0,-0.5022869110107422,0.2978658378124237,10.189632415771484,-0.2065019905567169,0.1480374932289123,1.1515775918960571
4200196811.0,-0.416932076215744,-0.0235471595078706,10.047842025756836,-0.44368976354599,-0.3453823328018188,1.215664267539978
4200205144.0,-0.3949728310108185,-0.0883519127964973,10.178016662597656,-0.3530025780200958,-0.4699059128761291,1.2141146659851074
4200213477.0,-0.500734806060791,0.1869108378887176,10.29734706878662,-0.126162901520729,-0.1028283387422561,1.0445483922958374
4200221810.0,-0.5508332848548889,0.3623701632022857,10.224438667297363,-0.0615253970026969,0.2865848839282989,1.1626431941986084
4200230143.0,-0.5358697175979614,0.1403815597295761,10.141572952270508,-0.2943587899208069,-0.1386498659849167,1.2118735313415527
4200238476.0,-0.5086315274238586,-0.0526663810014724,10.175670623779297,-0.4263233244419098,-0.515691339969635,1.1146162748336792
4200246809.0,-0.5316064357757568,0.0853191092610359,10.271733283996582,-0.151328906416893,-0.3107262849807739,1.218891739845276
4200255142.0,-0.558343768119812,0.2435900717973709,10.175813674926758,-0.1615233719348907,0.0402271524071693,1.2683273553848269
4200263475.0,-0.497523158788681,0.183670699596405,10.109384536743164,-0.3127114176750183,-0.1150719448924064,1.2132439613342283
4200271808.0,-0.3839003443717956,-0.003018696559593,10.134004592895508,-0.3649900257587433,-0.45453742146492,1.2132182121276855
4200280141.0,-0.3738576471805572,0.0022245340514928,10.255145072937012,-0.2574358880519867,-0.4498499631881714,1.2425978183746338
4200288474.0,-0.4800630211830139,0.2398919314146042,10.255453109741213,-0.1053385436534881,0.1848323196172714,1.099977731704712
4200296807.0,-0.5724849104881287,0.2132906168699264,10.160927772521973,-0.1752013713121414,0.4318688511848449,1.233952879905701
4200305140.0,-0.5328009724617004,-0.0522014461457729,10.097160339355469,-0.4220841526985168,-0.1626119613647461,1.1310220956802368
4200313473.0,-0.4790402054786682,-0.1134083271026611,10.193988800048828,-0.3666805624961853,-0.5636028051376343,1.146826148033142
4200321806.0,-0.4883889555931091,0.1744006127119064,10.293456077575684,-0.0052765319123864,-0.1949499249458313,1.1866178512573242
4200330139.0,-0.5107201337814331,0.3672627210617065,10.194238662719728,-0.1060685589909553,0.2885315418243408,1.1826220750808716
4200338472.0,-0.4799915254116058,0.1625054329633712,10.10724639892578,-0.3831121027469635,0.0027279157657176,1.243250846862793
4200346805.0,-0.4132340550422668,-0.1516116559505462,10.114527702331545,-0.5283704400062561,-0.493509441614151,1.101117491722107
4200355138.0,-0.367491602897644,-0.0916279181838035,10.237127304077148,-0.2547591626644134,-0.3530409634113312,1.247169852256775
4200363471.0,-0.561762809753418,0.2528530061244964,10.151200294494627,-0.0618327632546424,0.0880233123898506,1.1997323036193848
4200371804.0,-0.5802100300788879,0.352742463350296,10.28466510772705,-0.1061966270208358,0.2961902320384979,1.2146397829055786
4200380137.0,-0.525090217590332,0.0541112571954727,10.100143432617188,-0.4653850197792053,-0.1709493994712829,1.1092628240585327
4200388470.0,-0.5081449747085571,-0.1227712705731391,10.215547561645508,-0.3903096914291382,-0.3146965205669403,1.2538552284240725
4200396803.0,-0.5305978059768677,0.0654915496706962,10.15414047241211,-0.170040100812912,-0.1243699267506599,1.2825303077697754
4200405136.0,-0.5650173425674438,0.2840680181980133,10.13448429107666,-0.0629982128739357,0.15760438144207,1.203945875167847
4200413469.0,-0.4740546643733978,0.1358539462089538,10.147552490234377,-0.3128394186496734,-0.21509550511837,1.1704680919647217
4200421802.0,-0.3865108489990234,-0.0808698385953903,10.189160346984863,-0.4016439914703369,-0.4774621427059173,1.1660112142562866
4200430135.0,-0.4475677013397217,0.0240478571504354,10.249494552612305,-0.2450898140668869,-0.3690115213394165,1.1896787881851196
4200438468.0,-0.5554611682891846,0.2383255809545517,10.20127010345459,-0.1123824566602706,0.2244831323623657,1.1563032865524292
4200446801.0,-0.6116394996643066,0.1992564499378204,10.121923446655272,-0.2078979462385177,0.3945104777812958,1.1903191804885864
4200455134.0,-0.5479506850242615,-0.0469584129750728,10.13396167755127,-0.3696774542331695,-0.2992639243602752,1.0990811586380005
4200463467.0,-0.4924589395523071,-0.12067561596632,10.281217575073242,-0.2024037092924118,-0.5226072669029236,1.2780863046646118
4200471800.0,-0.467660129070282,0.2249355614185333,10.307024955749512,0.0278810951858758,-0.0866529569029808,1.1793944835662842
4200480133.0,-0.4990037977695465,0.389586865901947,10.203022956848145,-0.1067345142364502,0.2183229178190231,1.1533448696136477
4200488466.0,-0.4612296223640442,0.1558962166309356,10.156987190246582,-0.3536941409111023,-0.0870243608951568,1.217393398284912
4200496799.0,-0.4047293066978454,-0.1761959791183471,10.151243209838867,-0.4350577592849731,-0.4999386370182037,1.2256795167922974
4200505132.0,-0.4368598759174347,-0.033825796097517,10.222749710083008,-0.1965380162000656,-0.3184361755847931,1.0928183794021606
4200513465.0,-0.5527788400650024,0.2992177307605743,10.26951503753662,-0.026613188907504,0.2151723653078079,1.2282153367996216
4200521798.0,-0.5893656611442566,0.3361478447914123,10.162623405456545,-0.1248949989676475,0.3558969497680664,1.1609266996383667
4200530131.0,-0.5067574381828308,0.0639034956693649,10.16783046722412,-0.4475575089454651,-0.2097037583589553,1.1675353050231934
4200538464.0,-0.4776740074157715,-0.1091881468892097,10.204374313354492,-0.4116207659244537,-0.4536537528038025,1.2428923845291138
4200546797.0,-0.4747556447982788,0.1025216951966285,10.183838844299316,-0.0727956444025039,-0.1580142080783844,1.140486478805542
4200555130.0,-0.5396104454994202,0.3069857060909271,10.127166748046877,-0.1159812584519386,0.0640483945608139,1.1937897205352783
4200563463.0,-0.4593126475811004,0.1754520833492279,10.106037139892578,-0.3251982927322387,-0.0029200226999819,1.1979392766952517
4200571796.0,-0.4014175534248352,-0.0223955512046813,10.21625518798828,-0.3532715141773224,-0.4050378799438476,1.2333636283874512
4200580129.0,-0.4275611937046051,-0.0174028668552637,10.26503086090088,-0.2336786538362503,-0.2320137321949005,1.22790789604187
4200588462.0,-0.5308911800384521,0.2633891403675079,10.229145050048828,-0.1647251397371292,0.1239344775676727,1.253778338432312
4200596795.0,-0.6055811643600464,0.2203790843486786,10.024530410766602,-0.1742536425590515,0.1016757115721702,1.2347469329833984
4200605128.0,-0.5095542073249817,-0.0045992778614163,10.224810600280762,-0.3805250525474548,-0.2839337587356567,1.1864640712738037
4200613461.0,-0.4933316707611084,-0.1290303915739059,10.204081535339355,-0.1859849542379379,-0.3114690780639648,1.2296499013900757
4200621794.0,-0.4864648580551147,0.1611106395721435,10.28139591217041,-0.0535209439694881,0.0179299619048833,1.298974633216858
4200630127.0,-0.5476502180099487,0.3838714957237243,10.176077842712402,-0.1046085283160209,0.2003417313098907,1.2414066791534424
4200638460.0,-0.4934031069278717,0.2458003014326095,10.115571975708008,-0.3964058756828308,-0.1405453085899353,1.1698660850524902
4200646793.0,-0.4225184321403503,-0.1189660876989364,10.184274673461914,-0.4928435087203979,-0.4621063768863678,1.1886156797409058
4200655126.0,-0.4424820244312286,-0.0692752823233604,10.187049865722656,-0.2153388708829879,-0.2123932540416717,1.2526257038116455
4200663459.0,-0.5505257248878479,0.2593763768672943,10.245617866516112,-0.0559671036899089,0.0897650867700576,1.1300359964370728
4200671792.0,-0.6021119952201843,0.3621555864810943,10.170648574829102,-0.1622405499219894,0.2414525598287582,1.2635629177093506
4200680125.0,-0.565368115901947,0.0893317535519599,10.19956111907959,-0.498529851436615,-0.2297852784395218,1.1954548358917236
4200688458.0,-0.5012211799621582,-0.1183366328477859,10.216520309448242,-0.5027306079864502,-0.4307289719581604,1.218251347541809
4200696791.0,-0.5174939036369324,0.0546620264649391,10.21897315979004,-0.1334757804870605,-0.1421590149402618,1.2509353160858154
4200705124.0,-0.5726709365844727,0.2651630342006683,10.121994972229004,-0.133552610874176,0.038203626871109,1.2060078382492063
4200713457.0,-0.5083881616592407,0.195709079504013,10.082275390625,-0.2758396863937378,-0.1523278504610061,1.1149492263793943
4200721790.0,-0.4366669058799743,-0.0455852784216403,10.24065399169922,-0.3722644746303558,-0.493804007768631,1.1613237857818604
4200730123.0,-0.4222180247306824,-0.0365867912769317,10.222084999084473,-0.2686805129051208,-0.2232152372598648,1.1955955028533936
4200738456.0,-0.5365919470787048,0.2245062887668609,10.191771507263184,-0.0835408270359039,0.0489231869578361,1.2538423538208008
4200746789.0,-0.6028488874435425,0.2573736906051636,10.139254570007324,-0.2192450314760208,0.1223592013120651,1.207326889038086
4200755122.0,-0.5606541633605957,0.0261221826076507,10.154447555541992,-0.4436257779598236,-0.2698587775230407,1.1224671602249146
4200763455.0,-0.5025301575660706,-0.1264408081769943,10.306316375732422,-0.4815348088741302,-0.5865787863731384,1.3499726057052612
4200771788.0,-0.4487908184528351,0.0844464674592018,10.192936897277832,-0.0896754339337349,-0.3769134879112243,1.34540057182312
4200780121.0,-0.5285807847976685,0.3677133619785309,10.191413879394531,0.0221691224724054,0.0924801900982856,1.269812822341919
4200788454.0,-0.4769012928009033,0.2455929070711136,10.17924690246582,-0.340720534324646,-0.0168285518884658,1.1513469219207764
4200796787.0,-0.4312806725502014,-0.0694970190525055,10.163896560668944,-0.6189935803413391,-0.3366991281509399,1.157673716545105
4200805120.0,-0.4370029270648956,-0.1448236107826233,10.229609489440918,-0.3154649436473846,-0.4518351554870605,1.3303905725479126
4200813453.0,-0.5069363117218018,0.1748512387275695,10.206119537353516,0.0314926989376544,-0.0755619928240776,1.0554986000061035
4200821786.0,-0.5876632928848267,0.360696405172348,10.180706024169922,-0.2352411597967147,0.0550065711140632,1.2244757413864136
4200830119.0,-0.5424289107322693,0.1432927846908569,10.16184425354004,-0.3920899331569671,-0.244423821568489,1.235195279121399
4200838452.0,-0.4748130738735199,-0.0830375030636787,10.237850189208984,-0.4803053736686706,-0.3549492359161377,1.1664210557937622
4200846785.0,-0.4530465602874756,-0.0100066196173429,10.23243522644043,-0.3008776307106018,-0.2333329021930694,1.2437760829925537
4200855118.0,-0.5214994549751282,0.2461364716291427,10.159339904785156,-0.1163014322519302,-0.0631262734532356,1.261910915374756
4200863451.0,-0.5201547145843506,0.2290626466274261,10.111902236938477,-0.2780297100543976,-0.0689663216471672,1.243980884552002
4200871784.0,-0.413563072681427,-0.0026823161169886,10.201349258422852,-0.4338026642799377,-0.4277064800262451,1.133955001831055
4200880117.0,-0.4418454170227051,-0.0604343712329864,10.237313270568848,-0.2710241973400116,-0.4393353164196014,1.1541132926940918
4200888450.0,-0.4871372580528259,0.1805735677480697,10.183244705200195,-0.0483084432780742,-0.0376529209315776,1.290022373199463
4200896783.0,-0.5953239798545837,0.276428759098053,10.165069580078123,-0.2147753536701202,0.1632523089647293,1.2730146646499634
4200905116.0,-0.5450105667114258,0.0805268287658691,10.113032341003418,-0.4273222982883453,-0.1322207003831863,1.1895636320114136
4200913449.0,-0.486586183309555,-0.1349022984504699,10.219009399414062,-0.4109291434288025,-0.4065491259098053,1.164282202720642
4200921782.0,-0.4759287238121032,-0.0403132736682891,10.229537963867188,-0.0719247758388519,-0.1853189915418625,1.1507580280303955
4200930115.0,-0.5298611521720886,0.3224072456359863,10.206527709960938,-0.0028944083023816,0.0602830983698368,1.182084083557129
4200938448.0,-0.5306550860404968,0.3456110656261444,10.14573574066162,-0.2886980772018432,0.0760358646512031,1.2539066076278689
4200946781.0,-0.4665654897689819,0.0182184148579835,10.165813446044922,-0.4494785964488983,-0.2633399069309234,1.2798280715942385
4200955114.0,-0.4502929151058197,-0.1708528101444244,10.199481964111328,-0.3134157657623291,-0.2824993729591369,1.286077857017517
4200963447.0,-0.464019238948822,0.0630093961954116,10.182229042053224,-0.1009585037827491,-0.0347713232040405,1.2069170475006104
4200971780.0,-0.5653106570243835,0.3481574654579162,10.18363094329834,-0.1119982451200485,0.1423639208078384,1.2673155069351196
4200980113.0,-0.5318567752838135,0.2169314175844192,10.16700839996338,-0.2927322685718536,0.1276357322931289,1.1167293787002563
4200988446.0,-0.5082093477249146,-0.0444118678569793,10.23694133758545,-0.477282851934433,-0.2981881201267242,1.267597198486328
4200996779.0,-0.4918010830879211,-0.0831590890884399,10.207242965698242,-0.3197681307792663,-0.1744585633277893,1.183774709701538
4201005112.0,-0.5391669869422913,0.2128614485263824,10.14284610748291,-0.1391109079122543,-0.0343230739235878,1.2072629928588867
4201013445.0,-0.5808823704719543,0.2924153804779053,10.130099296569824,-0.2129951566457748,-0.0737049654126167,1.199796438217163
4201021778.0,-0.4831959903240204,0.1021139845252037,10.178317070007324,-0.4220201373100281,-0.3613143861293793,1.148990511894226
4201030111.0,-0.4355650842189789,-0.1101750656962394,10.21446704864502,-0.3871079087257385,-0.4027326107025146,1.1855932474136353
4201038444.0,-0.4455863535404205,0.0634528696537017,10.216083526611328,-0.072846882045269,-0.0780209600925445,1.2487066984176636
4201046777.0,-0.5302760004997253,0.2904268801212311,10.129191398620604,-0.0761895552277565,0.0177762787789106,1.201512575149536
4201055110.0,-0.5593237280845642,0.2121104001998901,10.16468334197998,-0.2968946099281311,-0.0305065531283617,1.201960802078247
4201063443.0,-0.4961855709552765,-0.0496478825807571,10.250925064086914,-0.3869542181491852,-0.2462040185928344,1.112234115600586
4201071776.0,-0.4913928806781769,-0.0943672209978103,10.23922348022461,-0.3882349729537964,-0.2870331406593323,1.1530888080596924
4201080109.0,-0.4931670725345611,0.1867534071207046,10.157437324523926,-0.0693633407354354,-0.184422492980957,1.173426389694214
4201088442.0,-0.5524569749832153,0.3966394364833832,10.15263843536377,-0.1309399753808975,-0.2039149105548858,1.2007312774658203
4201096775.0,-0.5064710974693298,0.1793791353702545,10.211297988891602,-0.3991721868515014,-0.1438495367765426,1.1375665664672852
4201105108.0,-0.4141853749752044,-0.1145170181989669,10.28151035308838,-0.3784247040748596,-0.3057315051555633,1.1599023342132568
4201113441.0,-0.4390630424022674,-0.0416368469595909,10.215461730957031,-0.1570408791303634,-0.1776603460311889,1.2087998390197754
4201121774.0,-0.4851987957954407,0.2664219439029693,10.12179470062256,-0.0585541389882564,-0.1073492541909217,1.2016534805297852
4201130107.0,-0.5578572154045105,0.342056393623352,10.205097198486328,-0.2743540704250335,-0.2671820819377899,1.2341578006744385
4201138440.0,-0.5054628252983093,0.087879829108715,10.246018409729004,-0.4744524657726288,-0.1009456887841224,1.1512188911437988
4201146773.0,-0.5249972343444824,-0.0953402444720268,10.221355438232422,-0.3988392651081085,-0.3249422013759613,1.148119568824768
4201155106.0,-0.5319640636444092,0.0338687114417552,10.133511543273926,-0.1961538046598434,-0.2409787327051162,1.2555201053619385
4201163439.0,-0.5285235047340393,0.2786462903022766,10.114971160888672,-0.1300434619188308,-0.1325792670249939,1.2148703336715698
4201171772.0,-0.533501923084259,0.2157798111438751,10.20838737487793,-0.2772356867790222,-0.2237531691789627,1.136042594909668
4201180105.0,-0.4541985690593719,-0.0227962359786033,10.274286270141602,-0.5273970365524292,-0.2839337885379791,1.2439424991607666
4201188438.0,-0.4279117584228515,-0.0832950547337532,10.194360733032228,-0.3410278856754303,-0.4399244487285614,1.331312656402588
4201196771.0,-0.4637975394725799,0.1637640744447708,10.088984489440918,-0.1319901496171951,-0.2750712633132934,1.2576205730438232
4201205104.0,-0.5388666987419128,0.303766667842865,10.132095336914062,-0.2284917831420898,-0.2896842062473297,1.178459882736206
4201213437.0,-0.5369925498962402,0.1172493994235992,10.25361442565918,-0.4329958260059356,-0.099191129207611,1.0924471616744995
4201221770.0,-0.5279587507247925,-0.1317411512136459,10.231090545654297,-0.3380694687366485,-0.1213730499148368,1.190549612045288
4201230103.0,-0.5226868391036987,-0.0587677583098411,10.146014213562012,-0.1776731312274933,-0.2046449184417724,1.2303797006607056
4201238436.0,-0.533494770526886,0.2687680721282959,10.128740310668944,-0.0757412984967231,-0.3354440331459045,1.213589787483215
4201246769.0,-0.5328581929206848,0.3037955462932586,10.20406723022461,-0.3358282148838043,-0.1603194922208786,1.248885989189148
4201255102.0,-0.460278570652008,0.043353259563446,10.259344100952148,-0.4115695357322693,-0.1410575956106186,1.1224799156188965
4201263435.0,-0.4468166530132293,-0.1237727925181388,10.186949729919434,-0.3844440281391144,-0.0681850910186767,1.2257051467895508
4201271768.0,-0.4621523320674896,0.0123673798516392,10.058764457702637,-0.1020214930176734,-0.2411836087703704,1.331261396408081
4201280101.0,-0.5083096027374268,0.2975082099437713,10.182872772216797,-0.1933106184005737,-0.3708940744400024,1.3378698825836182
4201288434.0,-0.5530291795730591,0.2552134394645691,10.28191089630127,-0.3723925352096557,-0.1280583590269088,1.22466778755188
4201296767.0,-0.5022869110107422,0.0080397957935929,10.310358047485352,-0.4770138561725616,-0.1137784272432327,1.2915080785751345
4201305100.0,-0.5390525460243225,-0.094667874276638,10.15317440032959,-0.2718951106071472,-0.1001260355114936,1.2796486616134644
4201313433.0,-0.57626873254776,0.1165416091680526,10.019673347473145,-0.1395335495471954,-0.3702665567398071,1.2269731760025024
4201321766.0,-0.5522137880325317,0.2992177307605743,10.193294525146484,-0.1649684756994247,-0.4761302471160888,1.1661136150360107
4201330099.0,-0.4766082465648651,0.1513899266719818,10.293627738952637,-0.3826766610145569,-0.2751480937004089,1.1848504543304443
4201338432.0,-0.4193211197853088,-0.0647332295775413,10.254158020019531,-0.4061649441719055,-0.1525583863258361,1.2475796937942505
4201346765.0,-0.4454647600650787,-0.0002646551874931,10.121172904968262,-0.1523790806531906,-0.1842687875032425,1.218097686767578
4201355098.0,-0.4833533763885498,0.2439691722393036,10.09247589111328,-0.0368588827550411,-0.5049333572387695,1.183518409729004
4201363431.0,-0.5164424180984497,0.262001484632492,10.253192901611328,-0.3375443816184997,-0.2228438407182693,1.1898964643478394
4201371764.0,-0.4922085702419281,0.0004077120393048,10.308377265930176,-0.3657200038433075,0.0304425172507762,1.158185958862305
4201380097.0,-0.5356549620628357,-0.1331430226564407,10.20284366607666,-0.2987644374370575,-0.1472306102514267,1.1885132789611816
4201388430.0,-0.5546386241912842,0.0983229801058769,10.083491325378418,-0.0808001011610031,-0.318423330783844,1.2316604852676392
4201396763.0,-0.5443671345710754,0.39766925573349,10.15747356414795,-0.0726419687271118,-0.5267823338508606,1.2176622152328491
4201405096.0,-0.4809857606887817,0.2850908637046814,10.284507751464844,-0.3814983665943146,-0.2375463992357254,1.0896679162979126
4201413429.0,-0.3989641070365906,-0.0587677583098411,10.29090976715088,-0.5001179575920105,-0.0991270840167999,1.177473545074463
4201421762.0,-0.442546397447586,-0.1426920592784881,10.127989768981934,-0.2950119376182556,-0.2934238612651825,1.264779567718506
4201430095.0,-0.5180661082267761,0.1562180966138839,10.052040100097656,-0.0376145057380199,-0.3353543579578399,1.2575308084487915
4201438428.0,-0.5270429253578186,0.3738433420658111,10.2634859085083,-0.2197445482015609,-0.2329358607530594,1.198041915893555
4201446761.0,-0.4949697256088257,0.1827837228775024,10.338733673095703,-0.4718014001846313,0.0044824914075434,1.3011775016784668
4201455094.0,-0.4925376176834106,-0.111069343984127,10.228057861328123,-0.3848922848701477,-0.1736773252487182,1.2345036268234253
4201463427.0,-0.535897970199585,-0.0273666512221097,10.111824035644531,-0.2487270534038543,-0.1484473049640655,1.212398648262024
4201471760.0,-0.5782788991928101,0.2663143873214721,10.109785079956056,-0.2465113997459411,-0.2847278714179992,1.212206482887268
4201480093.0,-0.54380202293396,0.2818720936775207,10.234516143798828,-0.2612395882606506,-0.3318836092948913,1.1229664087295532
4201488426.0,-0.4197571575641632,0.0148065239191055,10.296052932739258,-0.41361865401268,-0.1647251546382904,1.1392828226089478
4201496759.0,-0.396868348121643,-0.1304821670055389,10.198601722717283,-0.193592369556427,-0.3028114736080169,1.2304435968399048
4201505092.0,-0.5101836919784546,0.1589862406253814,10.086345672607422,-0.0572221986949443,-0.1853702068328857,1.2386658191680908
4201513425.0,-0.5853099822998047,0.3301966786384582,10.116501808166504,-0.09870445728302,-0.0714765265583992,1.2036128044128418
4201521758.0,-0.5607328414916992,0.119760051369667,10.2027006149292,-0.435429185628891,-0.0856155753135681,1.1763592958450315
4201530091.0,-0.4978879392147064,-0.1905159652233123,10.23781394958496,-0.3741215169429779,-0.1761747300624847,1.2157412767410278
4201538424.0,-0.5465415716171265,-0.0583385862410068,10.192736625671388,-0.0913787856698036,-0.1606653034687042,1.175283432006836
4201546757.0,-0.5908104181289673,0.3488583564758301,10.1285400390625,0.0230015832930803,-0.0540076121687889,1.1734392642974854
4201555090.0,-0.5428364276885986,0.3592586815357208,10.171993255615234,-0.305603414773941,-0.1483064144849777,1.161259651184082
4201563423.0,-0.3801878988742828,-0.0169093199074268,10.196020126342772,-0.5376940369606018,-0.2610090672969818,1.1499894857406616
4201571756.0,-0.381167858839035,-0.1903514564037323,10.185526847839355,-0.3260179758071899,-0.4421016871929168,1.1764233112335205
4201580089.0,-0.5197756290435791,0.1186656653881073,10.180984497070312,-0.0236931666731834,-0.0088112968951463,1.2175341844558716
4201588422.0,-0.60487300157547,0.3805954754352569,10.132574081420898,-0.045862291008234,0.2473310530185699,1.24249529838562
4201596755.0,-0.5667771100997925,0.2367160022258758,10.187766075134276,-0.308638721704483,-0.170296236872673,1.2208768129348757
4201605088.0,-0.4763580560684204,-0.0602414608001709,10.302153587341309,-0.503434956073761,-0.4903973340988159,1.2469009160995483
4201613421.0,-0.4893903732299804,-0.0257001649588346,10.274200439453123,-0.3098041713237762,-0.2257382422685623,1.1933799982070925
4201621754.0,-0.5709184408187866,0.2286978513002395,10.161622047424316,-0.0663920938968658,0.0491409078240394,1.130702018737793
4201630087.0,-0.4991756677627563,0.2520589828491211,10.062247276306152,-0.3287587165832519,-0.049691617488861,1.2092864513397217
4201638420.0,-0.364058256149292,-0.0085190357640385,10.17358112335205,-0.5153327584266663,-0.5414080619812012,1.120328068733215
4201646753.0,-0.3291093111038208,-0.052902203053236,10.28902816772461,-0.4021819233894348,-0.5219540596008301,1.177435040473938
4201655086.0,-0.4905920326709747,0.17757648229599,10.266404151916504,-0.0050844261422753,0.2972019612789154,1.22894549369812
4201663419.0,-0.6194791197776794,0.2953766584396362,10.100178718566896,-0.2293242514133453,0.2687061429023742,1.3201960325241089
4201671752.0,-0.5560190677642822,0.0310647971928119,9.986091613769531,-0.4801900386810303,-0.2822176218032837,1.1455069780349731
4201680085.0,-0.47830331325531,-0.1772328168153762,10.255431175231934,-0.4531158208847046,-0.8252906203269958,1.1223517656326294
4201688418.0,-0.5056487917900085,0.0670435950160026,10.41396713256836,-0.0246408935636281,-0.1423126757144928,1.204393982887268
4201696751.0,-0.5760326981544495,0.3566623032093048,10.211992263793944,-0.0016008898383006,0.173920676112175,1.166293025016785
4201705084.0,-0.5261201858520508,0.2847045958042145,10.005167961120604,-0.2721128165721893,-0.169246032834053,1.1704168319702148
4201713417.0,-0.3910886645317077,-0.0522154383361339,10.091924667358398,-0.5654214024543762,-0.8041205406188965,1.0901418924331665
4201721750.0,-0.3995722234249115,-0.0846469700336456,10.374348640441896,-0.3719186782836914,-0.530342698097229,1.161157250404358
4201730083.0,-0.5399967432022095,0.1971180438995361,10.303634643554688,-0.0111421914771199,0.3876329958438873,1.3226807117462158
4201738416.0,-0.6098084449768066,0.3102045059204101,10.033650398254396,-0.0391129404306411,0.3571008443832397,1.2416115999221802
4201746749.0,-0.5751743912696838,0.0782306417822837,10.02515983581543,-0.445354700088501,-0.5145387649536133,1.1212759017944336
4201755082.0,-0.519045889377594,-0.0033328405115753,10.306402206420898,-0.5927132964134216,-0.8322576284408569,1.2566213607788086
4201763415.0,-0.5489592552185059,0.1284078359603881,10.424031257629396,-0.2042735069990158,-0.117492489516735,1.2219654321670532
4201771748.0,-0.5760971307754517,0.2521591782569885,10.113032341003418,-0.1485113203525543,0.2881473302841186,1.2219654321670532
4201780081.0,-0.4984169900417328,0.0565578825771808,9.940978050231934,-0.3913598954677582,-0.4230190813541412,1.1581348180770874
4201788414.0,-0.3867756724357605,-0.0610280558466911,10.160048484802246,-0.4145919680595398,-1.1013095378875732,1.1602351665496826
4201796747.0,-0.428169310092926,0.0690032318234443,10.405433654785156,-0.1919402778148651,-0.2776966989040375,1.17848539352417
4201805080.0,-0.521163284778595,0.2883525490760803,10.294071197509766,-0.0840915367007255,0.5186754465103149,1.2620261907577517
4201813413.0,-0.578507661819458,0.1047176197171211,10.007528305053713,-0.2568467259407043,0.2770179212093353,1.2674179077148438
4201821746.0,-0.5514842867851257,-0.0772295668721199,10.013894081115724,-0.4482875168323517,-0.7504841685295105,1.215984582901001
4201830079.0,-0.530676543712616,0.0094632115215063,10.325214385986328,-0.286162257194519,-0.6577223539352417,1.189307451248169
4201838412.0,-0.5167499780654907,0.2891751527786255,10.402250289916992,-0.0426348894834518,0.0790711343288421,1.283913493156433
4201846745.0,-0.5114640593528748,0.2486900389194488,10.171435356140137,-0.2344982922077179,0.1675555109977722,1.2677124738693235
4201855078.0,-0.4655427932739258,0.0098780756816267,10.002313613891602,-0.4092642664909363,-0.6140756607055664,1.1126952171325684
4201863411.0,-0.4307226240634918,-0.0411356762051582,10.202922821044922,-0.3625182211399078,-0.7792874574661255,1.1506810188293457
4201871744.0,-0.4293350875377655,0.1962167918682098,10.382272720336914,-0.0855515375733375,-0.1777627766132354,1.2287018299102783
4201880077.0,-0.506600022315979,0.2420305758714676,10.28066635131836,-0.1546075195074081,0.2637625932693481,1.1101082563400269
4201888410.0,-0.5125439167022705,0.0483317822217941,10.065301895141602,-0.317488431930542,-0.0195180438458919,1.1635137796401978
4201896743.0,-0.5349969863891602,-0.0073461909778416,10.116973876953123,-0.339491069316864,-0.4946364760398865,1.2532660961151123
4201905076.0,-0.5555112361907959,0.1558103710412979,10.31812572479248,-0.168541669845581,-0.2315782904624939,1.2039843797683716
4201913409.0,-0.5708969831466675,0.2100217789411544,10.2560396194458,-0.3057058751583099,0.2884290814399719,1.254111409187317
4201921742.0,-0.4779529571533203,0.0106076663359999,10.106273651123049,-0.2667466402053833,-0.1277125775814056,1.215690016746521
4201930075.0,-0.4079123139381408,-0.0294983237981796,10.117560386657717,-0.3021711409091949,-0.687793493270874,1.1587495803833008
4201938408.0,-0.4399498403072357,0.1648732423782348,10.291253089904783,-0.1937204599380493,-0.4944828152656555,1.2041635513305664
4201946741.0,-0.4948408603668213,0.2188985347747802,10.31040096282959,-0.2158767879009246,0.2138916850090026,1.2762677669525146
4201955074.0,-0.5298897624015808,0.0204785894602537,10.113097190856934,-0.363312304019928,0.1590771973133087,1.2651766538619995
4201963407.0,-0.530676543712616,-0.1100965589284896,10.075286865234377,-0.2567955255508423,-0.3377365171909332,1.3090922832489014
4201971740.0,-0.5657112002372742,0.1180362179875373,10.2799654006958,-0.0690175518393516,-0.4675237834453583,1.233914494514465
4201980073.0,-0.574745237827301,0.3154904544353485,10.282004356384276,-0.2035307139158249,-0.003867749357596,1.2085949182510376
4201988406.0,-0.4891185462474823,0.1369268745183944,10.127567291259766,-0.3456896841526031,0.0795706138014793,1.1772172451019287
4201996739.0,-0.417790412902832,-0.0714068338274955,10.061711311340332,-0.3420524895191192,-0.335085391998291,1.1477097272872925
4202005072.0,-0.4845121204853058,0.023897647857666,10.19049835205078,-0.1578221023082733,-0.4673444926738739,1.2603739500045776
4202013405.0,-0.5708826780319214,0.2446630001068115,10.254515647888184,-0.1086683869361877,0.1519436240196228,1.1780496835708618
4202021738.0,-0.5730071067810059,0.1876619905233383,10.140420913696287,-0.1936948448419571,0.3030548095703125,1.1528069972991943
4202030071.0,-0.4876092970371246,0.0309789627790451,10.102961540222168,-0.2865976691246032,-0.162061259150505,1.1141806840896606
4202038404.0,-0.5375790596008301,0.0530955530703067,10.254587173461914,-0.2988925278186798,-0.4931765496730804,1.1658960580825806
4202046737.0,-0.5632076859474182,0.1677270084619522,10.304170608520508,-0.1769943684339523,0.2744949460029602,1.30915629863739
4202055070.0,-0.5279442071914673,0.1563325375318527,10.050724029541016,-0.1946938037872314,0.0733975991606712,1.1905624866485596
4202063403.0,-0.4003658890724182,0.0353139340877532,10.082354545593262,-0.2744821310043335,-0.417716920375824,1.160158395767212
4202071736.0,-0.4005735218524933,0.0523802675306797,10.26264190673828,-0.288595587015152,-0.4625418484210968,1.156802773475647
4202080069.0,-0.4645914435386657,0.212646871805191,10.345943450927734,-0.0912763252854347,0.1848579347133636,1.2740007638931274
4202088402.0,-0.5563696026802063,0.1939421892166137,10.145392417907717,-0.1692716628313064,0.4836991727352142,1.2383970022201538
4202096735.0,-0.5388522744178772,-0.0145488828420639,10.034723281860352,-0.4740298092365265,-0.0348225533962249,1.1954163312911987
4202105068.0,-0.5082809925079346,-0.0617147274315357,10.163853645324709,-0.3058083355426788,-0.6930186748504639,1.0562927722930908
4202113401.0,-0.503517210483551,0.1850082874298095,10.395784378051758,0.0205810386687517,-0.1174668744206428,1.2068274021148682
4202121734.0,-0.5164424180984497,0.3457684218883514,10.274085998535156,-0.1220774427056312,0.1635853201150894,1.2491166591644287
4202130067.0,-0.4360659122467041,0.158650055527687,10.069221496582031,-0.4338794946670532,-0.1328610330820083,1.1860798597335815
4202138400.0,-0.3933133780956268,-0.0305068753659725,10.104649543762209,-0.4864655435085296,-0.6097723841667175,1.1782675981521606
4202146733.0,-0.4475390911102295,0.0903904736042022,10.313469886779783,-0.2626996040344238,-0.2643901407718658,1.3688119649887085
4202155066.0,-0.538029670715332,0.2624521255493164,10.33609390258789,-0.2000984251499176,0.2475744038820266,1.1627967357635498
4202163399.0,-0.5536730885505676,0.1966676861047744,10.11612319946289,-0.2305793464183807,0.3931657075881958,1.0542690753936768
4202171732.0,-0.5266924500465393,0.0601053386926651,10.12076473236084,-0.4468915462493896,-0.3397215902805328,1.1763978004455566
4202180065.0,-0.537257194519043,0.0966849774122238,10.24269199371338,-0.4257726073265075,-0.425849437713623,1.2361940145492554
4202188398.0,-0.5669772624969482,0.1593295782804489,10.227771759033203,-0.3637605607509613,0.0996906086802482,1.1830447912216189
4202196731.0,-0.5078160762786865,0.0915134698152542,10.01988124847412,-0.2616365849971771,0.0098870936781167,1.2499489784240725
4202205064.0,-0.3888930380344391,-0.0651340782642364,10.007556915283203,-0.4324962794780731,-0.6724247932434082,1.2316477298736572
4202213397.0,-0.4016679525375366,0.0292691849172115,10.193387985229492,-0.2154669314622879,-0.6091064810752869,1.147940158843994
4202221730.0,-0.5066429972648621,0.1902225464582443,10.211219787597656,-0.0910458043217659,0.2063482701778412,1.1905752420425415
4202230063.0,-0.5471925139427185,0.0852259919047355,10.05470085144043,-0.1588722765445709,0.3205365240573883,1.258683443069458
4202238396.0,-0.5419780611991882,-0.0986806228756904,10.024673461914062,-0.2700764834880829,-0.1867533773183822,1.2189173698425293
4202246729.0,-0.578314483165741,0.0310504920780658,10.175642013549805,-0.1534804850816726,-0.4651032984256744,1.1548819541931152
4202255062.0,-0.5808036923408508,0.2525311112403869,10.29922866821289,-0.050229512155056,-0.0418792702257633,1.2709654569625854
4202263395.0,-0.4564586877822876,0.2468517571687698,10.2194242477417,-0.2191425859928131,0.0630366280674934,1.2375261783599854
4202271728.0,-0.4113886952400207,0.0700691416859626,10.148846626281738,-0.3481614887714386,-0.2108179479837417,1.2855528593063354
4202280061.0,-0.4533972442150116,-0.0052072694525122,10.12912654876709,-0.3495317995548248,-0.2743028104305267,1.2584145069122314
4202288394.0,-0.5238956809043884,0.1462255716323852,10.261797904968262,-0.2895561158657074,-0.0853338241577148,1.356478571891785
4202296727.0,-0.5875416994094849,0.233297124505043,10.192293167114258,-0.2495595067739486,0.0997546464204788,1.17524516582489
4202305060.0,-0.5461267232894897,0.0484247468411922,10.238350868225098,-0.4847749769687652,-0.1245364025235176,1.1962743997573853
4202313393.0,-0.539424479007721,0.0267945490777492,10.26843547821045,-0.4063698053359985,-0.5048308968544006,1.2687369585037231
4202321726.0,-0.5915257930755615,0.1623695343732834,10.31968593597412,-0.2736625075340271,-0.2427717447280883,1.2704789638519287
4202330059.0,-0.5625997185707092,0.1615898758172989,10.229574203491213,-0.3163357973098755,-0.1076053977012634,1.2897919416427612
4202338392.0,-0.455864816904068,0.0266445092856884,10.123089790344238,-0.4286157786846161,-0.4009267687797546,1.1894737482070925
4202346725.0,-0.3944505453109741,-0.0362287871539592,10.213823318481444,-0.3900791704654693,-0.8293377161026001,1.2322367429733276
4202355058.0,-0.4198718667030334,0.1276281774044037,10.34948444366455,-0.1923116594552993,-0.2843179702758789,1.203702449798584
4202363391.0,-0.5564338564872742,0.2339550703763961,10.294478416442873,-0.2248929738998413,0.170757308602333,1.2136664390563965
4202371724.0,-0.5477859377861023,0.0022675613872706,10.08042335510254,-0.370983749628067,-0.1290829330682754,1.1896531581878662
4202380057.0,-0.5004414916038513,-0.1189303174614906,10.083276748657228,-0.3729688823223114,-0.6740642786026001,1.0542179346084597
4202388390.0,-0.5672132968902588,0.0701693892478942,10.339512825012209,-0.0526756718754768,-0.5506676435470581,1.1742076873779297
4202396723.0,-0.5525714159011841,0.3057983517646789,10.31680965423584,-0.0697859749197959,-0.0173024144023656,1.260271668434143
4202405056.0,-0.4435047209262848,0.1800158321857452,10.13670825958252,-0.242643654346466,-0.2617774605751037,1.1627453565597534
4202413389.0,-0.3753525912761688,-0.0351562239229679,10.08462905883789,-0.4641554951667785,-0.8099220395088196,1.200910568237305
4202421722.0,-0.4652137458324432,0.0157434064894914,10.241884231567385,-0.2457942068576812,-0.4889501333236694,1.2178415060043335
4202430055.0,-0.5431511998176575,0.2440835982561111,10.208301544189451,-0.1425944417715072,0.0184038262814283,1.1748608350753784
4202438388.0,-0.5163995027542114,0.1376850754022598,10.096796035766602,-0.1548636555671692,0.0164187252521514,1.2441089153289795
4202446721.0,-0.5137887001037598,0.0076606948859989,10.066882133483888,-0.3427952826023102,-0.4750415384769439,1.198067307472229
4202455054.0,-0.5235523581504822,0.0388113260269165,10.22949504852295,-0.2812955379486084,-0.5325455069541931,1.251473069190979
4202463387.0,-0.5541021227836609,0.1580849885940551,10.178689002990724,-0.1553375124931335,-0.0665073543787002,1.3501262664794922
4202471720.0,-0.518345057964325,0.1345092058181762,10.080859184265137,-0.2189761102199554,-0.1659546494483947,1.293019413948059
4202480053.0,-0.4306226074695587,-0.0192626062780618,9.970876693725586,-0.4134649634361267,-0.6537777185440063,1.149579644203186
4202488386.0,-0.3784640729427337,0.0164586920291185,10.11317539215088,-0.2672077119350433,-0.779364287853241,1.2433277368545532
4202496719.0,-0.4150937795639038,0.2085339874029159,10.260753631591797,-0.1098722591996193,-0.352208524942398,1.293877363204956
4202505052.0,-0.5385233163833618,0.210572600364685,10.121344566345217,-0.2279923111200332,0.1727295964956283,1.3508564233779907
4202513385.0,-0.5211060643196106,0.0200065020471811,10.031325340270996,-0.3668214380741119,-0.2231512069702148,1.2166377305984497
4202521718.0,-0.5397107005119324,-0.070241242647171,10.065967559814451,-0.2905935049057007,-0.7231667041778564,1.221632480621338
4202530051.0,-0.6026341915130615,0.1489722579717636,10.288606643676758,-0.1043267697095871,-0.4771675765514374,1.3240381479263306
4202538384.0,-0.5313990116119385,0.2493981719017028,10.219867706298828,-0.1642128676176071,-0.2275312691926956,1.293352484703064
4202546717.0,-0.4278473854064941,0.0677085369825363,10.099321365356444,-0.3071402907371521,-0.6577479839324951,1.2041635513305664
4202555050.0,-0.3782137334346771,-0.1168059259653091,10.06501579284668,-0.3773617148399353,-0.9586254954338074,1.3174169063568115
4202563383.0,-0.5090749859809875,0.0588321350514888,10.202385902404783,-0.1714232712984085,-0.6935438513755798,1.289599895477295
4202571716.0,-0.5414130091667175,0.1649874746799469,10.260424613952637,-0.055352360010147,-0.1211040988564491,1.236732006072998
4202580049.0,-0.463661640882492,0.0438681952655315,10.126309394836426,-0.180682823061943,-0.4484540522098541,1.2232718467712402
4202588382.0,-0.5160704851150513,-0.0412003770470619,10.18722152709961,-0.2755323052406311,-0.889684796333313,1.2489372491836548
4202596715.0,-0.5813258290290833,0.069640077650547,10.292089462280272,-0.0787637755274772,-0.7360507249832153,1.2617188692092896
4202605048.0,-0.5356764197349548,0.1489651054143905,10.216383934020996,-0.092569850385189,-0.2406457364559173,1.2425336837768557
4202613381.0,-0.4410514533519745,0.0323880724608898,10.121308326721191,-0.2427973300218582,-0.5825188755989075,1.2699408531188965
4202621714.0,-0.3906382024288177,-0.0773150771856308,10.156243324279783,-0.1985359489917755,-0.9868653416633606,1.2947356700897217
4202630047.0,-0.4323249459266662,0.1122634038329124,10.357566833496094,-0.0613973177969455,-0.9592275023460388,1.3208109140396118
4202638380.0,-0.5149045586585999,0.2678527534008026,10.353632926940918,-0.056633073836565,-0.2416702955961227,1.2525488138198853
4202646713.0,-0.5664264559745789,0.0573085770010948,10.209738731384276,-0.1905954927206039,-0.0950288027524948,1.2653558254241943
4202655046.0,-0.5291816592216492,-0.0447986461222171,10.140807151794434,-0.2773253321647644,-0.8517245054244995,1.3024710416793823
4202663379.0,-0.5754891037940979,0.1502096951007843,10.277233123779297,-0.1797094494104385,-1.0015677213668823,1.270837426185608
4202671712.0,-0.5664264559745789,0.3391162753105163,10.374848365783691,0.0049051255919039,-0.5197896361351013,1.322450041770935
4202680045.0,-0.4352934658527374,0.3029370307922363,10.32862663269043,-0.2488550841808319,-0.3457537293434143,1.2540472745895386
4202688378.0,-0.380216509103775,0.1087446734309196,10.171435356140137,-0.4878103137016296,-0.8552720546722412,1.3231290578842163
4202696711.0,-0.4555246829986572,0.1022478565573692,10.230347633361816,-0.5213393568992615,-0.9811918139457704,1.375177025794983
4202705044.0,-0.5182591676712036,0.2614510953426361,10.288363456726074,-0.1280839741230011,-0.4004401266574859,1.2246421575546265
4202713377.0,-0.5531579852104187,0.2858633697032928,10.225232124328612,-0.2326797097921371,-0.0509467124938964,1.2978860139846802
4202721710.0,-0.5153480172157288,0.1159332767128944,10.166178703308104,-0.4088159799575805,-0.3285153806209564,1.2205438613891602
4202730043.0,-0.6251227259635925,0.1093812733888626,10.177301406860352,-0.5262700915336609,-0.6518566608428955,1.2861804962158203
4202738376.0,-0.5645953416824341,0.2110517770051956,10.214738845825195,-0.2018785774707794,-0.3673209249973297,1.1367852687835691
4202746709.0,-0.541792094707489,0.2309295386075973,10.170419692993164,-0.3143891096115112,-0.2306049317121505,1.2109256982803345
4202755042.0,-0.4504645764827728,0.0773723050951957,10.131895065307615,-0.2825762331485748,-0.4242998361587524,1.2265762090682983
4202763375.0,-0.3882063627243042,0.0837237536907196,10.077655792236328,-0.3655151128768921,-0.6744227409362793,1.1613109111785889
4202771708.0,-0.4180908203125,0.2324888557195663,10.230496406555176,-0.1039809808135032,-0.2796690464019775,1.2430589199066162
4202780041.0,-0.5495601892471313,0.2502708435058594,10.215167999267578,-0.1892123371362686,0.057337462902069,1.182365894317627
4202788374.0,-0.5612978935241699,0.1068205535411834,10.05769157409668,-0.3631842732429504,-0.0815813392400741,1.174169421195984
4202796707.0,-0.5408121347427368,0.059175468981266,10.10366916656494,-0.3017100691795349,-0.5149486064910889,1.208492398262024
4202805040.0,-0.5624781250953674,0.1807880997657776,10.265388488769531,-0.1862411051988601,-0.5465565323829651,1.1214295625686646
4202813373.0,-0.5016717910766602,0.3010559976100921,10.26667594909668,-0.108220137655735,-0.1060173138976097,1.1655629873275757
4202821706.0,-0.4087492227554321,0.2515940964221954,10.200591087341309,-0.4250425398349762,-0.2897994220256805,1.1832109689712524
4202830039.0,-0.3761966228485107,0.0503774732351303,10.148818016052246,-0.5325967669487,-0.6899194717407227,1.2514219284057615
4202838372.0,-0.4235986471176147,0.0509709604084491,10.192408561706545,-0.3494293689727783,-0.4643860757350921,1.200859308242798
4202846705.0,-0.4643267691135406,0.2029618620872497,10.287962913513184,-0.2125725299119949,0.1923757046461105,1.2979629039764404
4202855038.0,-0.500541627407074,0.1333218365907669,10.215024948120115,-0.3496855497360229,0.046861246228218,1.185234785079956
4202863371.0,-0.4771589934825897,0.0181896798312664,10.08220386505127,-0.599834144115448,-0.4135930240154266,1.1897428035736084
4202871704.0,-0.4972583651542663,0.0824582129716873,10.213702201843262,-0.4007603526115417,-0.527883768081665,1.2158180475234983
4202880037.0,-0.5247467756271362,0.1580778807401657,10.24028205871582,-0.3431794941425323,-0.0796090438961982,1.279571771621704
4202888370.0,-0.470185250043869,0.016887791454792,10.0487642288208,-0.3788089156150818,-0.0777135863900184,1.235438585281372
4202896703.0,-0.3427572250366211,-0.0430245846509933,10.044373512268066,-0.414553552865982,-0.5460826754570007,1.1846840381622314
4202905036.0,-0.3306401669979095,0.0231609046459198,10.227535247802734,-0.3576259613037109,-0.7419931888580322,1.1141294240951538
4202913369.0,-0.4481256008148193,0.11678446829319,10.308255195617676,-0.2077058106660843,0.1551582217216491,1.226627230644226
4202921702.0,-0.5039822459220886,0.0888814628124237,10.094779014587402,-0.2402102649211883,0.5317898988723755,1.231289029121399
4202930035.0,-0.5399609804153442,-0.0699619576334953,10.081459999084473,-0.4199197292327881,-0.2432327717542648,1.2318013906478882
4202938368.0,-0.5424858927726746,-0.1411828100681305,10.19037628173828,-0.2734575569629669,-0.5620275139808655,1.099939227104187
4202946701.0,-0.5079877376556396,0.0843606293201446,10.251705169677734,-0.0211573578417301,-0.0353988744318485,1.1374385356903076
4202955034.0,-0.4927664995193481,0.201631411910057,10.195998191833496,-0.0700293257832527,0.1206814795732498,1.1627198457717896
4202963367.0,-0.4529752433300018,0.0015020970022305,10.100593566894531,-0.4310747385025024,-0.3251855373382568,1.1597100496292114
4202971700.0,-0.3719049096107483,-0.1481067687273025,10.129298210144045,-0.2572309672832489,-0.6662902235984802,1.16242516040802
4202980033.0,-0.4086132943630218,0.0283181052654981,10.248021125793455,-0.0881641879677772,-0.129582405090332,1.2703505754470823
4202988366.0,-0.5629644989967346,0.1902012526988983,10.189088821411133,0.0045465263538062,0.2428101301193237,1.1799579858779907
4202996699.0,-0.5841369032859802,0.0932373106479644,10.075644493103027,-0.3201779425144195,0.0731926783919334,1.1930214166641235
4203005032.0,-0.5262203216552734,-0.0243196655064821,10.13185214996338,-0.2697179019451141,-0.5151535272598267,1.1395390033721924
4203013365.0,-0.5131019949913025,0.0252999905496835,10.287962913513184,-0.1255865842103958,-0.4361079633235931,1.2173291444778442
4203021698.0,-0.5554611682891846,0.1438579708337783,10.239044189453123,-0.0104762222617864,0.169707104563713,1.2132567167282104
4203030031.0,-0.502415657043457,0.1395376622676849,10.045381546020508,-0.10804083943367,0.0249098427593708,1.1847224235534668
4203038364.0,-0.4050368964672088,-0.0177533570677042,10.083090782165527,-0.2344982922077179,-0.6767536401748657,1.2782143354415894
4203046697.0,-0.3667620718479156,-0.0187622588127851,10.316251754760742,-0.174612209200859,-0.7783909440040588,1.2587475776672363
4203055030.0,-0.4479753971099853,0.182962566614151,10.302790641784668,-0.0592457205057144,0.281462013721466,1.178805589675903
4203063363.0,-0.5695523023605347,0.2190558165311813,10.119284629821776,-0.0321074426174163,0.4643091559410095,1.1925987005233765
4203071696.0,-0.5674850940704346,-0.0262652393430471,10.128296852111816,-0.2384556978940963,-0.269653856754303,1.191164255142212
4203080029.0,-0.5264993906021118,-0.0449703820049762,10.197099685668944,-0.1215779706835746,-0.6086838841438293,1.0659875869750977
4203088362.0,-0.5083525776863098,0.2382683455944061,10.408480644226074,0.0883306935429573,-0.1782494336366653,1.2382817268371582
4203096695.0,-0.5129159688949585,0.3223500847816467,10.216269493103027,0.0326197259128093,0.1318492591381073,1.1148979663848877
4203105028.0,-0.4022043645381927,0.0875507965683937,10.075544357299805,-0.2558349967002868,-0.4082140922546386,1.1817512512207031
4203113361.0,-0.3610826730728149,0.0113086448982357,10.1880521774292,-0.2598307728767395,-0.7137405872344971,1.2304693460464478
4203121694.0,-0.4617446064949035,0.1475704908370971,10.36110019683838,-0.0991526991128921,-0.1786336749792099,1.2325953245162964
4203130027.0,-0.5640302300453186,0.2719084620475769,10.199554443359377,-0.0288544353097677,0.6262423992156982,1.2241299152374268
4203138360.0,-0.5410338640213013,0.2186409533023834,10.06789779663086,-0.280091643333435,0.032875869423151,1.0991451740264893
4203146693.0,-0.5052124261856079,0.0846467465162277,10.238944053649902,-0.3779636323451996,-0.585976779460907,1.215561866760254
4203155026.0,-0.5095899701118469,0.1327925324440002,10.358553886413574,-0.2838697433471679,-0.3838677108287811,1.1856316328048706
4203163359.0,-0.5333588719367981,0.291270911693573,10.256346702575684,-0.2102160155773162,0.3863266706466675,1.23917818069458
4203171692.0,-0.4840614795684814,0.188899427652359,10.09932804107666,-0.3636965453624725,-0.2414910197257995,1.190434455871582
4203180025.0,-0.3740294575691223,0.062050599604845,10.120986938476562,-0.5062397718429565,-0.819348156452179,1.0813946723937988
4203188358.0,-0.3411192297935486,0.2049786299467086,10.37498378753662,-0.2178874760866165,-0.4268484711647033,1.161861777305603
4203196691.0,-0.4773736000061035,0.3091744780540466,10.370513916015623,-0.2321290224790573,0.4220969676971435,1.17907452583313
4203205024.0,-0.5791158080101013,0.1583426594734192,10.10899829864502,-0.4698675572872162,0.417883425951004,1.1709932088851929
4203213357.0,-0.5690730214118958,-0.0379458330571651,10.018479347229004,-0.5355936288833618,-0.5549580454826355,1.179343342781067
4203221690.0,-0.5071508884429932,0.0433533824980258,10.260087966918944,-0.252428263425827,-0.6640234589576721,1.1707370281219482
4203230023.0,-0.5350397229194641,0.2614435255527496,10.365792274475098,-0.2112149745225906,0.0550834089517593,1.1711212396621704
4203238356.0,-0.5240746736526489,0.3089028596878052,10.134512901306152,-0.3020174503326416,0.2431431263685226,1.1313680410385132
4203246689.0,-0.4349357783794403,0.0501557365059852,10.055967330932615,-0.5780107975006104,-0.405678242444992,1.0366463661193848
4203255022.0,-0.3776558041572571,-0.1034587174654007,10.155892372131348,-0.5197640657424927,-0.8629178404808044,1.1460704803466797
4203263355.0,-0.4419454336166382,0.0803622454404831,10.282462120056152,-0.2205129414796829,-0.0519456677138805,1.1958903074264526
4203271688.0,-0.5632792115211487,0.2283684313297271,10.17245864868164,-0.1792996376752853,0.5052536129951477,1.160158395767212
4203280021.0,-0.5857033729553223,0.1018994003534317,10.043506622314451,-0.4714300036430359,-0.1080152317881584,1.1895123720169067
4203288354.0,-0.5005845427513123,-0.0331820398569107,10.169804573059082,-0.449837177991867,-0.7938876152038574,1.1407427787780762
4203296687.0,-0.511356770992279,0.0807269886136055,10.346601486206056,-0.2253796756267547,-0.325915515422821,1.1053439378738403
4203305020.0,-0.5625496506690979,0.1739642918109893,10.164812088012695,-0.2830757200717926,0.1226921826601028,1.1838899850845337
4203313353.0,-0.4908924698829651,0.0836167335510253,10.007863998413086,-0.3696902394294739,-0.2431302964687347,1.1835952997207642
4203321686.0,-0.3484006822109222,-0.0489111393690109,10.117610931396484,-0.3844696879386902,-0.7980627417564392,1.1724787950515747
4203330019.0,-0.3669837713241577,0.0747829750180244,10.369261741638184,-0.3046557009220123,-0.5346202850341797,1.217431664466858
4203338352.0,-0.5062138438224792,0.2244776636362075,10.26457977294922,-0.1985871642827987,0.4612739384174347,1.2686859369277954
4203346685.0,-0.5824846029281616,0.1147745177149772,10.027713775634766,-0.3048606216907501,0.3019534051418304,1.229265570640564
4203355018.0,-0.5454899668693542,-0.1206109523773193,10.032556533813477,-0.5324174761772156,-0.7153286933898926,1.1089811325073242
4203363351.0,-0.4719732701778412,-0.0572873689234256,10.256948471069336,-0.3197553157806396,-0.5971062183380127,1.1350692510604858
4203371684.0,-0.5119075179100037,0.2211301326751709,10.315364837646484,-0.0899700000882148,0.1107303351163864,1.2241300344467163
4203380017.0,-0.4758929014205932,0.2468874454498291,10.126494407653809,-0.1306454092264175,0.1518924087285995,1.1428302526474
4203388350.0,-0.4205369055271148,0.0201784074306488,10.057168960571287,-0.4906021952629089,-0.6231046319007874,1.0668327808380127
4203396683.0,-0.3748663067817688,-0.1013775393366813,10.19589900970459,-0.3688706159591675,-0.7017276287078857,1.1583653688430786
4203405016.0,-0.4349715709686279,0.1093098893761634,10.318791389465332,-0.0882922634482383,0.1793380677700042,1.1965049505233765
4203413349.0,-0.5650673508644104,0.2039487361907959,10.194632530212402,-0.1918634176254272,0.3734555244445801,1.1259504556655884
4203421682.0,-0.5614268183708191,0.112370915710926,10.02810001373291,-0.3543857634067535,-0.2990846335887909,1.055203914642334
4203430015.0,-0.4742549359798431,-0.0036694083828479,10.249852180480955,-0.3666165173053741,-0.8727280497550964,1.114974856376648
4203438348.0,-0.4771588444709778,0.0874652415513992,10.393431663513184,-0.2351642698049545,-0.2989949584007263,1.230699896812439
4203446681.0,-0.5059062838554382,0.2300139665603637,10.215167999267578,-0.1711031049489975,0.2547207772731781,1.255776286125183
4203455014.0,-0.4769801795482635,0.1167558580636978,10.051796913146973,-0.3160284459590912,-0.2418752312660217,1.2364630699157717
4203463347.0,-0.3633216321468353,-0.0517440550029277,10.17251682281494,-0.419548362493515,-0.9889271855354308,1.09429132938385
4203471680.0,-0.3621126711368561,0.1183723956346511,10.345542907714844,-0.1950139701366424,-0.3939597308635711,1.13576078414917
4203480013.0,-0.4955275058746338,0.2699339985847473,10.344162940979004,-0.1129587888717651,0.4385029375553131,1.337357759475708
4203488346.0,-0.598635733127594,0.1376421600580215,10.03810691833496,-0.3617242276668548,0.330001026391983,1.199937343597412
4203496679.0,-0.5835791230201721,-0.0613716207444667,10.046419143676758,-0.4475831389427185,-0.5355936288833618,1.1772942543029783
4203505012.0,-0.4708215296268463,-0.0085616176947951,10.317596435546877,-0.2349081635475158,-0.8012902140617371,1.1548820734024048
4203513345.0,-0.4821159839630127,0.2524595260620117,10.389625549316406,-0.1505092531442642,-0.0462593138217926,1.1852346658706665
4203521678.0,-0.5065214037895203,0.2856702506542206,10.181313514709473,-0.2400822192430496,0.2703966498374939,1.2007569074630735
4203530011.0,-0.3902235031127929,0.0027106879279017,10.007800102233888,-0.4594937264919281,-0.5518587231636047,1.2236816883087158
4203538344.0,-0.3905809819698334,-0.0706915482878685,10.19970417022705,-0.409187376499176,-0.7788264751434326,1.180854558944702
4203546677.0,-0.4520454704761505,0.1421341896057129,10.319463729858398,-0.1802217811346054,0.0658926218748092,1.1850299835205078
4203555010.0,-0.5435516834259033,0.29463991522789,10.221362113952637,-0.1863435506820678,0.4287438690662384,1.1280124187469482
4203563343.0,-0.5550105571746826,0.1021926701068878,10.079886436462402,-0.3305388987064361,-0.1740359216928482,1.114372968673706
4203571676.0,-0.522579550743103,0.0043489285744726,10.15160083770752,-0.4620295464992523,-0.7494724988937378,1.1387704610824585
4203580009.0,-0.5316849946975708,0.1511826962232589,10.295537948608398,-0.2109075933694839,-0.2351642698049545,1.1160506010055542
4203588342.0,-0.5412341952323914,0.2067958116531372,10.19610595703125,-0.0781234204769134,0.0721681118011474,1.1382583379745483
4203596675.0,-0.4780888557434082,0.1092525199055671,10.016176223754885,-0.4405904710292816,-0.2087816298007965,1.2200957536697388
4203605008.0,-0.3803238272666931,-0.0034762816503643,10.081582069396973,-0.4402830600738525,-0.884459376335144,1.0951749086380005
4203613341.0,-0.365782082080841,0.1308469623327255,10.345929145812988,-0.1932850182056427,-0.451655775308609,1.1850810050964355
4203621674.0,-0.4968006014823913,0.2427886426448822,10.231104850769045,-0.2258150726556778,0.4133753478527069,1.1447641849517822
4203630007.0,-0.5422927737236023,0.1214338168501854,10.014280319213867,-0.3884910941123962,0.2852529287338257,1.1818791627883911
4203638340.0,-0.5429794788360596,-0.0952830240130424,10.063563346862791,-0.4251194894313812,-0.5836971998214722,1.1538316011428833
4203646673.0,-0.5484799742698669,0.0241122338920831,10.31096649169922,-0.2153388410806656,-0.5350557565689087,1.1240166425704956
4203655006.0,-0.5204837918281555,0.2751626968383789,10.2879056930542,-0.0399582087993621,0.0563897415995597,1.2019351720809937
4203663339.0,-0.4965648353099823,0.2375603169202804,10.183638572692873,-0.2827043533325195,0.1580270528793335,1.1388474702835083
4203671672.0,-0.3972333073616028,-0.0377743877470493,10.037569999694824,-0.5890505909919739,-0.556751012802124,1.1482222080230713
4203680005.0,-0.3663254380226135,-0.0464787408709526,10.226312637329102,-0.3770159184932709,-0.5537285804748535,1.1053439378738403
4203688338.0,-0.4169249236583709,0.1098962798714637,10.313390731811523,-0.134987011551857,0.1010865792632103,1.1683037281036377
4203696671.0,-0.506485641002655,0.2007659971714019,10.183874130249023,-0.2308098673820495,0.3511583209037781,1.1359273195266724
4203705004.0,-0.5085743069648743,0.1070208325982093,10.12515640258789,-0.3500953614711761,-0.1387523114681244,1.115230917930603
4203713337.0,-0.4937894344329834,-0.0604203827679157,10.236462593078612,-0.2918357849121094,-0.7458993196487427,1.1631680727005005
4203721670.0,-0.4804850816726684,0.0587176866829395,10.34745979309082,-0.3211768865585327,-0.0783027112483978,1.248476266860962
4203730003.0,-0.567699670791626,0.2068960964679718,10.185669898986816,-0.1033790633082389,0.3030804395675659,1.290919065475464
4203738336.0,-0.4918725192546844,0.0716212838888168,10.082075119018556,-0.2130720019340515,-0.1610495001077652,1.114116668701172
4203746669.0,-0.3892433941364288,-0.0758558958768844,10.13891887664795,-0.3169633150100708,-0.7668004631996155,1.1210068464279177
4203755002.0,-0.3815397918224334,0.0780804306268692,10.340657234191896,-0.2341141253709793,-0.4616453945636749,1.1430224180221558
4203763335.0,-0.4878811836242676,0.226022869348526,10.28654670715332,-0.1995348632335662,0.3618650436401367,1.2458891868591309
4203771668.0,-0.5780283808708191,0.1103039905428886,10.107847213745115,-0.4686380624771118,0.3026193678379059,1.159082531929016
4203780001.0,-0.5504685044288635,-0.1005332097411155,10.031883239746094,-0.4846469163894653,-0.4690990447998047,1.1460448503494265
4203788334.0,-0.4932743608951568,-0.0102714821696281,10.288163185119627,-0.1946938037872314,-0.6946580410003662,1.1405376195907593
4203796667.0,-0.5068361163139343,0.216037318110466,10.342731475830078,-0.0662896335124969,0.0886892899870872,1.2029597759246826
4203805000.0,-0.5150190591812134,0.2892252206802368,10.127846717834473,-0.2025829702615738,0.1152512356638908,1.3062875270843506
4203813333.0,-0.4680748879909515,0.0431817136704921,10.040874481201172,-0.4448680281639099,-0.4199197292327881,1.2147934436798096
4203821666.0,-0.4028910398483276,-0.1548805087804794,10.182944297790527,-0.329399049282074,-0.7909931540489197,1.034751057624817
4203829999.0,-0.442932516336441,0.0994389429688453,10.32862663269043,-0.208794429898262,-0.1144059747457504,1.22996985912323
4203838332.0,-0.5748381614685059,0.2829738259315491,10.209424018859863,0.0167132876813411,0.5098897218704224,1.2801610231399536
4203846665.0,-0.5472568869590759,0.1241805031895637,10.082969665527344,-0.3228674530982971,-0.1897758692502975,1.2420727014541626
4203854998.0,-0.4743766486644745,-0.0112017290666699,10.128368377685549,-0.4297556281089782,-0.8618677258491516,1.2201722860336304
4203863331.0,-0.464834600687027,0.1364694237709045,10.391328811645508,-0.1374972015619278,-0.3694853186607361,1.145814299583435
4203871664.0,-0.5318353176116943,0.2437188178300857,10.275430679321287,-0.2207434773445129,0.2977270483970642,1.2048295736312866
4203879997.0,-0.4720804691314697,0.1550521701574325,10.02985954284668,-0.2949478924274444,-0.0079916408285498,1.1682268381118774
4203888330.0,-0.3587795794010162,-0.0246705003082752,10.1043062210083,-0.4398732185363769,-0.8166585564613342,1.1994762420654297
4203896663.0,-0.373829036951065,0.087879829108715,10.35667324066162,-0.2216655761003494,-0.6595152616500854,1.2069554328918457
4203904996.0,-0.4566303491592407,0.2491120547056198,10.30434226989746,-0.118875652551651,0.4271813929080963,1.3681204319000244
4203913329.0,-0.5520421266555786,0.1830269396305084,10.080315589904783,-0.3590347468852997,0.4281803369522095,1.2714520692825315
4203921662.0,-0.5676998496055603,-0.0929799824953079,10.035160064697266,-0.461107462644577,-0.4167179465293884,1.1588776111602783
4203929995.0,-0.4793620705604553,-0.047473419457674,10.233779907226562,-0.3150807023048401,-0.7281872034072876,1.1741437911987305
4203938328.0,-0.4638188779354095,0.2687250673770904,10.384833335876465,-0.0033042361028492,-0.0850904807448387,1.160568118095398
4203946661.0,-0.4908352792263031,0.3192529082298279,10.211219787597656,-0.261444479227066,0.2545030117034912,1.2612961530685425
4203954994.0,-0.3872263133525848,0.0221666600555181,10.005374908447266,-0.4699571430683136,-0.3028498589992523,1.1732854843139648
4203963327.0,-0.3738504946231842,-0.0530597902834415,10.151400566101074,-0.3447291851043701,-0.7192604541778564,1.1317648887634275
4203971660.0,-0.4455291330814361,0.1388080716133117,10.365056037902832,-0.2050163447856903,-0.047078963369131,1.2219399213790894
4203979993.0,-0.5423642992973328,0.2564938068389892,10.248650550842283,-0.1600377559661865,0.4690862894058227,1.1811108589172363
4203988326.0,-0.5637441873550415,0.1482069045305252,9.99888038635254,-0.3230723440647125,-0.0054302182979881,1.1766027212142944
4203996659.0,-0.5298897624015808,-0.0120382346212863,10.212035179138184,-0.3531306087970733,-0.8027629256248474,1.1692641973495483
4204004992.0,-0.5004629492759705,0.0551913380622863,10.31751823425293,-0.1936179846525192,-0.3824973106384277,1.2039841413497925
4204013325.0,-0.521628201007843,0.219155952334404,10.194567680358888,-0.1901600956916809,0.3154008984565735,1.2917643785476685
4204021658.0,-0.4777884483337402,0.1037019193172454,10.056038856506348,-0.2118553221225738,-0.025819145143032,1.1192266941070557
4204029991.0,-0.3591512441635132,-0.0709344297647476,10.04294204711914,-0.4118896722793579,-0.7582197189331055,1.151206135749817
4204038324.0,-0.3268420696258545,0.0237186048179864,10.31319808959961,-0.2191938012838363,-0.5094543099403381,1.2050472497940063
4204046657.0,-0.466436892747879,0.2004226595163345,10.279329299926758,-0.0940938964486122,0.4320096969604492,1.2120656967163086
4204054990.0,-0.584530234336853,0.1007976159453392,10.054886817932127,-0.3540271818637848,0.5940709710121155,1.1458015441894531
4204063323.0,-0.5549461841583252,-0.1454673707485199,9.94810962677002,-0.2958571910858154,-0.4659357666969299,1.1786390542984009
4204071656.0,-0.5215352773666382,-0.0660281926393508,10.26319980621338,-0.1371770352125167,-0.7339630722999573,1.1436755657196045
4204079989.0,-0.5201690196990967,0.1939421892166137,10.348268508911133,0.0278042517602443,0.0571581721305847,1.1275770664215088
4204088322.0,-0.4940182268619537,0.2810781598091125,10.170870780944824,-0.0761511176824569,0.2202183753252029,1.2989617586135864
4204096655.0,-0.4210449457168579,0.0764781981706619,10.084321022033691,-0.3722260892391205,-0.4754001796245575,1.189281702041626
4204104988.0,-0.3796371519565582,-0.0814637318253517,10.182036399841309,-0.2325003892183303,-0.8640705943107605,1.1558550596237185
4204113321.0,-0.4120824337005615,0.1412257254123687,10.34015655517578,-0.0219129770994186,-0.0035219572018831,1.1653964519500732
4204121654.0,-0.5535942912101746,0.3419275283813476,10.290037155151367,-0.1401098668575287,0.4274631440639496,1.3186335563659668
4204129987.0,-0.5825704336166382,0.1922040432691574,10.153668403625488,-0.3671160042285919,0.0463873781263828,1.2389605045318604
4204138320.0,-0.5015286207199097,0.0284900330007076,10.225489616394045,-0.4429597556591034,-0.5932384729385376,1.18798828125
4204146653.0,-0.520111620426178,0.128486767411232,10.371200561523438,-0.3375315964221954,-0.2746486663818359,1.1941100358963013
4204154986.0,-0.5559475421905518,0.2349494397640228,10.267369270324709,-0.2470108568668365,0.2164658904075622,1.224923849105835
4204163319.0,-0.4905708432197571,0.1096672266721725,10.068906784057615,-0.38502037525177,-0.1851012706756591,1.1751298904418943
4204171652.0,-0.3882062435150146,-0.0381890274584293,10.14050006866455,-0.5071362257003784,-0.81773442029953,1.1613365411758425
4204179985.0,-0.3753668963909149,0.0545761920511722,10.35483455657959,-0.3319348394870758,-0.4075992703437805,1.1310349702835083
4204188318.0,-0.4448281526565552,0.2352426946163177,10.306859970092772,-0.2503022849559784,0.3975201249122619,1.223323106765747
4204196651.0,-0.5599674582481384,0.1540364772081375,10.068778038024902,-0.3010440766811371,0.3174756169319153,1.2707349061965942
4204204984.0,-0.5658971667289734,-0.1183223277330398,10.009116172790527,-0.4289488196372986,-0.4359670579433441,1.1903448104858398
4204213317.0,-0.4902272522449493,-0.0834879800677299,10.23609733581543,-0.1904930621385574,-0.7345137596130371,1.1197646856307983
4204221650.0,-0.5026374459266663,0.2163591980934143,10.328383445739746,0.0329783298075199,0.001139833475463,1.1657423973083496
4204229983.0,-0.5076372623443604,0.3164560794830322,10.204010009765623,-0.0721809193491935,0.1768278926610946,1.2203261852264404
4204238316.0,-0.4203584790229797,0.0662779659032821,10.03864288330078,-0.3446651101112366,-0.3296295702457428,1.158185958862305
4204246649.0,-0.3687648177146911,-0.0735812932252883,10.120800971984863,-0.3225472271442413,-0.7254847884178162,1.1401662826538086
4204254982.0,-0.4134414792060852,0.099753551185131,10.31916332244873,-0.0579393953084945,-0.0489744134247303,1.215280055999756
4204263315.0,-0.4735181927680969,0.2799050509929657,10.194381713867188,-0.056966058909893,0.4081500172615051,1.2716827392578125
4204271648.0,-0.5262489914894104,0.1841213256120681,10.073369979858398,-0.3460995256900787,-0.1320413947105407,1.3235515356063845
4204279981.0,-0.4874805510044098,0.0087479269132018,10.19722843170166,-0.4153988361358642,-0.7339886426925659,1.2378334999084473
4204288314.0,-0.4669089615345001,0.0948111042380333,10.286739349365234,-0.2010717242956161,-0.3488914966583252,1.2783678770065308
4204296647.0,-0.5431439876556396,0.2261298447847366,10.241469383239746,-0.1354224532842636,0.3372241854667663,1.3528542518615725
4204304980.0,-0.5113710761070251,0.1402744054794311,10.022821426391602,-0.4074071943759918,0.088804543018341,1.214959979057312
4204313313.0,-0.3830704987049103,-0.0282823406159877,10.038414001464844,-0.4268997013568878,-0.7202082872390747,1.2292271852493286
4204321646.0,-0.3553889989852905,0.0584315732121467,10.308412551879885,-0.3063718378543854,-0.5398200154304504,1.2617443799972534
4204329979.0,-0.4637759625911712,0.2024181336164474,10.32796859741211,-0.2005850672721862,0.3725974559783935,1.2377439737319946
4204338312.0,-0.5647671818733215,0.1289445906877517,10.033507347106934,-0.2635960876941681,0.367449015378952,1.2217094898223877
4204346645.0,-0.5477361083030701,-0.1017634943127632,10.030009269714355,-0.3815624117851257,-0.5507956743240356,1.2004622220993042
4204354978.0,-0.52443927526474,-0.1015775203704834,10.213773727416992,-0.2715108692646026,-0.7425822019577026,1.2278567552566528
4204363311.0,-0.4899625778198242,0.2123249918222427,10.353890419006348,0.083438366651535,-0.0182629488408565,1.1788567304611206
4204371644.0,-0.4928094148635864,0.2773228883743286,10.181013107299805,-0.1278406381607055,0.2532351315021515,1.296784520149231
4204379977.0,-0.4606857895851135,-0.0054216110147535,10.055602073669434,-0.3132877051830292,-0.2880577445030212,1.1975295543670654
4204388310.0,-0.3816829621791839,-0.1154185533523559,10.109892845153809,-0.3359563052654266,-0.6993198394775391,1.1137709617614746
4204396643.0,-0.4421029090881347,0.1050609573721885,10.413616180419922,0.0182757563889026,-0.0680314153432846,1.1707884073257446
4204404976.0,-0.5449894070625305,0.2181402444839477,10.273764610290527,0.0238596610724926,0.4316895008087158,1.176013708114624
4204413309.0,-0.4978378713130951,0.0917352139949798,10.098369598388672,-0.2580122053623199,0.0358727388083934,1.1754757165908811
4204421642.0,-0.4721305668354034,-0.0262151695787906,10.193552017211914,-0.3134157657623291,-0.774164617061615,1.223451018333435
4204429975.0,-0.503052294254303,0.0848327204585075,10.389639854431152,-0.2237915694713592,-0.2929243743419647,1.1641285419464111
4204438308.0,-0.5243677496910095,0.182383194565773,10.20486068725586,-0.1365750879049301,0.2915028035640716,1.3247554302215576
4204446641.0,-0.4940254092216491,0.1036518439650535,10.081846237182615,-0.2123163789510727,-0.118081621825695,1.1764745712280271
4204454974.0,-0.3974690437316894,-0.0718499943614006,10.132416725158691,-0.3563708364963531,-0.7659168243408203,1.1252974271774292
4204463307.0,-0.3674987554550171,0.0639678761363029,10.36044216156006,-0.1574250906705856,-0.3529385328292846,1.0934333801269531
4204471640.0,-0.4395493566989898,0.2454140484333038,10.308984756469728,-0.0600781925022602,0.251839131116867,1.2177263498306274
4204479973.0,-0.5988574624061584,0.0990740284323692,10.132645606994627,-0.3223038911819458,0.344191312789917,1.3327213525772097
4204488306.0,-0.5736079812049866,-0.1020139977335929,9.971327781677246,-0.3291557133197784,-0.3682686686515808,1.275691270828247
4204496639.0,-0.4849913716316223,-0.0088120196014642,10.290666580200195,-0.0649192780256271,-0.6506913304328918,1.2086334228515625
4204504972.0,-0.5090535879135132,0.2340625375509262,10.387951850891112,-0.0182629488408565,-0.0390360914170742,1.2962723970413208
4204513305.0,-0.5001124739646912,0.3129154145717621,10.202528953552246,-0.1183633804321289,0.2826658487319946,1.2172778844833374
4204521638.0,-0.4524101614952087,0.0602340921759605,10.040416717529297,-0.3322294354438782,-0.4867857694625854,1.2123472690582275
4204529971.0,-0.3989068865776062,-0.0597262382507324,10.18285846710205,-0.2330254912376403,-0.7218475341796875,1.1413702964782717
4204538304.0,-0.4277400374412536,0.1470983177423477,10.270051956176758,-0.0411108508706092,-0.1002797335386276,1.189307451248169
4204546637.0,-0.516785740852356,0.3141814768314361,10.214760780334473,-0.0395996049046516,0.4796649217605591,1.268634557723999
4204554970.0,-0.589043915271759,0.1950149834156036,10.137781143188477,-0.3028114736080169,-0.1154945790767669,1.199527382850647
4204563303.0,-0.530340313911438,0.0718362554907798,10.13729476928711,-0.3407718241214752,-0.6054180860519409,1.1436628103256226
4204571636.0,-0.5285664796829224,0.1688070893287658,10.346973419189451,-0.3428337275981903,-0.3467783033847809,1.173593044281006
4204579969.0,-0.5775420665740967,0.1836207956075668,10.256847381591797,-0.1695534139871597,0.2211789041757583,1.215369701385498
4204588302.0,-0.4954991638660431,0.1259185224771499,10.122467041015623,-0.3802177309989929,-0.1186451390385627,1.1954035758972168
4204596635.0,-0.3953377306461334,0.0214438885450363,10.050817489624023,-0.361032634973526,-0.7592827081680298,1.23210871219635
4204604968.0,-0.3715259134769439,0.1738281399011612,10.36226749420166,-0.3173347413539886,-0.6524714231491089,1.092306137084961
4204613301.0,-0.3922118246555328,0.2853769659996032,10.304699897766112,-0.2284533381462097,0.0776495561003685,1.215561866760254
4204621634.0,-0.4867364764213562,0.1758239567279815,10.144147872924805,-0.4332135319709778,0.2210636436939239,1.2217862606048584
4204629967.0,-0.5539731979370117,-0.0820429548621177,10.049179077148438,-0.4405392706394195,-0.3771952390670776,1.2042404413223269
4204638300.0,-0.5209487080574036,0.0292551275342702,10.195440292358398,-0.2771332263946533,-0.7754838466644287,1.1789464950561523
4204646633.0,-0.5216925740242004,0.3140884935855865,10.358203887939451,-0.0620632879436016,-0.2651585340499878,1.2642033100128174
4204654966.0,-0.5293889045715332,0.2868431508541107,10.274386405944824,-0.2853681743144989,0.2349721491336822,1.198477029800415
4204663299.0,-0.4141066968441009,0.0564573891460895,10.06379222869873,-0.5367334485054016,-0.3826382160186767,1.2014868259429932
4204671632.0,-0.3686146140098572,-0.0473017506301403,10.079814910888672,-0.4616069197654724,-0.7448747158050537,1.1417032480239868
4204679965.0,-0.4350001513957977,0.0892817825078964,10.330486297607422,-0.2904141843318939,-0.2946149408817291,1.2576717138290403
4204688298.0,-0.4977806508541107,0.2506213188171386,10.22074031829834,-0.1958208233118057,0.3745441138744354,1.1872581243515017
4204696631.0,-0.4813362658023834,0.1255109310150146,10.153825759887695,-0.4254396259784698,-0.0627932921051979,1.1883723735809326
4204704964.0,-0.5134952664375305,0.0012306065764278,10.237141609191896,-0.5726958513259888,-0.7420827746391296,1.1699556112289429
4204713297.0,-0.5490022897720337,0.1099533289670944,10.283199310302734,-0.3453567326068878,-0.3503514528274536,1.2630506753921509
4204721630.0,-0.5260559320449829,0.2060804963111877,10.253371238708496,-0.3406949341297149,-0.0575551837682724,1.3749592304229736
4204729963.0,-0.5370280742645264,0.1032156944274902,10.047455787658691,-0.5413952469825745,-0.3806403279304504,1.1750017404556274
4204738296.0,-0.3944077491760254,-0.03210911154747,10.141801834106444,-0.575718343257904,-0.8482027053833008,1.1295366287231443
4204746629.0,-0.31174236536026,0.0994531288743019,10.29607391357422,-0.3095608651638031,-0.548029363155365,1.16360342502594
4204754962.0,-0.4932241141796112,0.2228608578443527,10.305909156799316,-0.2761470377445221,0.3608660995960235,1.1670997142791748
4204763295.0,-0.5169860124588013,0.0636388435959816,10.06724739074707,-0.4737609326839447,0.3322294354438782,1.1766794919967651
4204771628.0,-0.4940540194511413,-0.1222850009799003,10.00681972503662,-0.4187671244144439,-0.445866972208023,1.1543183326721191
4204779961.0,-0.5210559368133545,-0.0707985386252403,10.273521423339844,-0.2795409560203552,-0.7051982879638672,1.184940218925476
4204788294.0,-0.5201762914657593,0.1679988652467727,10.263278007507324,0.0310700666159391,-0.0140750221908092,1.2394216060638428
4204796627.0,-0.4892973899841308,0.2395415604114532,10.146414756774902,-0.1625863313674926,0.0687486007809639,1.2755632400512695
4204804960.0,-0.4343419075012207,-0.0634026080369949,10.076238632202148,-0.4236082136631012,-0.4822904467582702,1.1650762557983398
4204813293.0,-0.3838286995887756,-0.1203823462128639,10.074042320251465,-0.3596750795841217,-0.6127436757087708,1.151039481163025
4204821626.0,-0.4682393074035644,0.0664640814065933,10.24178409576416,0.0427117384970188,-0.1406733840703964,1.2696335315704346
4204829959.0,-0.5248684287071228,0.1625480055809021,10.224910736083984,-0.143183559179306,0.4547423124313354,1.1420234441757202
4204838292.0,-0.4871159493923187,0.0718717500567436,10.048664093017578,-0.2793360352516174,-0.0105146430432796,1.2632427215576172
4204846625.0,-0.4574386179447174,-0.0326169654726982,10.196492195129396,-0.3255441188812256,-0.6882928609848022,1.0982102155685425
4204854958.0,-0.4911141991615295,0.0678304061293602,10.321316719055176,-0.1558113843202591,-0.3626463413238525,1.1972733736038208
4204863291.0,-0.5228585004806519,0.131433367729187,10.191099166870115,-0.0518816374242305,0.1540184020996093,1.24905264377594
4204871624.0,-0.4461085200309753,0.0360217168927192,10.031633377075195,-0.201763316988945,-0.0957460030913353,1.2372571229934692
4204879957.0,-0.4032844305038452,-0.0764352828264236,10.14539909362793,-0.2360607832670211,-0.7687855958938599,1.2113099098205566
4204888290.0,-0.3685430586338043,0.0410003587603569,10.298748970031738,-0.1495615243911743,-0.6388190388679504,1.1610037088394165
4204896623.0,-0.4428397119045257,0.2154077440500259,10.27480125427246,-0.0119362324476242,0.3191405236721039,1.3001400232315063
4204904956.0,-0.5600962042808533,0.0928796678781509,10.086016654968262,-0.1388419717550277,0.3530410230159759,1.250486969947815
4204913289.0,-0.5430868268013,-0.0985091552138328,10.003573417663574,-0.2220498025417328,-0.4533719420433044,1.2190710306167605
4204921622.0,-0.5121220350265503,-0.012044939212501,10.243271827697754,-0.1156994998455047,-0.5463771820068359,1.1481451988220217
4204929955.0,-0.4796053469181061,0.2738036215305328,10.388774871826172,0.0087088402360677,0.1148286238312721,1.24610698223114
4204938288.0,-0.4850342869758606,0.3444809019565582,10.215275764465332,-0.1682727038860321,0.2495594769716262,1.3094252347946167
4204946621.0,-0.4032559692859649,0.0920783430337905,10.066109657287598,-0.3966748416423797,-0.4519759714603424,1.2081466913223269
4204954954.0,-0.3582428991794586,-0.0442829690873622,10.193594932556152,-0.3001604378223419,-0.6368082761764526,1.248617172241211
4204963287.0,-0.4385336339473724,0.1902942359447479,10.302310943603516,-0.0241414159536361,0.029456365853548,1.2288684844970703
4204971620.0,-0.5073010921478271,0.2896400690078735,10.229280471801758,-0.1143547669053077,0.3814728260040283,1.3117306232452393
4204979953.0,-0.5491378307342529,0.1479209661483764,10.128790855407717,-0.3333180546760559,-0.1841407269239425,1.1760647296905518
4204988286.0,-0.5230087041854858,0.0462574362754821,10.222900390625,-0.3453311026096344,-0.8040052056312561,1.2682503461837769
4204996619.0,-0.5181090235710144,0.1686211228370666,10.339062690734863,-0.2043119370937347,-0.3723413050174713,1.1256942749023438
4205004952.0,-0.5608473420143127,0.2191418707370758,10.245953559875488,-0.2125981450080871,0.3000067174434662,1.2103110551834106
4205013285.0,-0.4564869999885559,0.1316052824258804,10.075916290283203,-0.3834451138973236,-0.1274820566177368,1.183979630470276
4205021618.0,-0.3472562134265899,0.0081756990402936,10.134905815124512,-0.3852636814117431,-0.7192477583885193,1.2789316177368164
4205029951.0,-0.3916753232479095,0.1715684235095977,10.359906196594238,-0.1251255273818969,-0.3962778151035309,1.0767838954925537
4205038284.0,-0.4693838655948639,0.3524277210235595,10.348597526550291,-0.1412753164768219,0.3676923513412475,1.2308920621871948
4205046617.0,-0.5744519829750061,0.1550521701574325,10.088334083557127,-0.4352498650550842,0.1320157647132873,1.1878602504730225
4205054950.0,-0.5692015886306763,-0.0334751084446907,10.19551944732666,-0.4767833352088928,-0.4489662647247314,1.2420982122421265
4205063283.0,-0.5452184081077576,0.1301815062761306,10.280174255371094,-0.2463833093643188,-0.5610285401344299,1.1568540334701538
4205071616.0,-0.5447962880134583,0.3571128249168396,10.351873397827148,-0.1975625902414322,-0.0167517103254795,1.172094464302063
4205079949.0,-0.4794908165931701,0.3008128106594085,10.238093376159668,-0.4757203757762909,0.1472306102514267,1.0909870862960815
4205088282.0,-0.4294638335704803,0.0750976949930191,10.063714027404783,-0.711537778377533,-0.4729155898094177,1.1166141033172607
4205096615.0,-0.3857385218143463,0.0437825508415699,10.254265785217283,-0.4929971396923065,-0.8234720230102539,1.1742717027664185
4205104948.0,-0.4654929637908935,0.1562609821557998,10.261590003967283,-0.360264241695404,0.0076458500698208,1.2027548551559448
4205113281.0,-0.5130593180656433,0.2746192812919616,10.158653259277344,-0.5123487114906311,0.4566505551338196,1.2014611959457395
4205121614.0,-0.517451286315918,0.1571049094200134,10.131702423095703,-0.7029058933258057,-0.2858036458492279,1.1457631587982178
4205129947.0,-0.550647497177124,0.0566143989562988,10.28928565979004,-0.6388959288597107,-0.8283900022506714,1.1286784410476685
4205138280.0,-0.5528360605239868,0.2118958234786987,10.37273120880127,-0.4634895324707031,-0.3468935787677765,1.29015052318573
4205146613.0,-0.5190103054046631,0.2421022802591323,10.1561861038208,-0.4619271457195282,0.1147389635443687,1.2029342651367188
4205154946.0,-0.4694911539554596,0.0450271479785442,10.100744247436523,-0.6987563967704773,-0.3314482569694519,1.1855164766311646
4205163279.0,-0.3266417384147644,0.0017882107058539,10.151636123657228,-0.6751016974449158,-0.6277408599853516,1.0411418676376345
4205171612.0,-0.3852804601192474,0.1751662045717239,10.332159996032717,-0.3805763125419616,-0.2371622025966644,1.2154083251953125
4205179945.0,-0.4571739435195923,0.1444373577833175,10.255138397216797,-0.4618502557277679,0.4306905567646026,1.2137689590454102
4205188278.0,-0.4732034802436828,-0.0328816175460815,10.040345191955566,-0.6873451471328735,0.0946702137589454,1.169622778892517
4205196611.0,-0.5184881091117859,-0.1316051632165908,10.05136775970459,-0.6242188811302185,-0.4740169942378998,1.221043348312378
4205204944.0,-0.5648599863052368,0.0752550587058067,10.30354118347168,-0.2878527641296386,-0.3833426237106323,1.1771918535232544
4205213277.0,-0.5186454653739929,0.2464726567268371,10.307153701782228,-0.3406052887439728,0.10804083943367,1.12810218334198
4205221610.0,-0.4059448838233948,0.1400671303272247,10.156758308410645,-0.6045600175857544,-0.1953981816768646,1.095443844795227
4205229943.0,-0.3996793925762176,-0.1045674085617065,10.067519187927246,-0.80613112449646,-0.7741645574569702,1.0407319068908691
4205238276.0,-0.3699309229850769,-0.0262583158910274,10.148603439331056,-0.5408957004547119,-0.5354399085044861,1.2076472043991089
4205246609.0,-0.4933173954486847,0.1581780165433883,10.203659057617188,-0.2184381932020187,0.0931973978877067,1.1992712020874023
4205254942.0,-0.5004414916038513,0.1040381044149398,10.265652656555176,-0.4819318056106567,0.1032381728291511,1.1686878204345703
4205263275.0,-0.4745196104049682,-0.0443905442953109,10.0567045211792,-0.6893559694290161,-0.2692568302154541,1.2534711360931396
4205271608.0,-0.5242892503738403,-0.0083976713940501,10.166644096374512,-0.4443301260471344,-0.5465822219848633,1.1780370473861694
4205279941.0,-0.5465987920761108,0.0890314355492591,10.263792991638184,-0.2644925415515899,-0.0438515655696392,1.216381549835205
4205288274.0,-0.4801560342311859,-0.0251851603388786,10.07121753692627,-0.4444069564342499,0.1392005532979965,1.2116684913635254
4205296607.0,-0.3977338373661041,-0.1640933752059936,9.980276107788086,-0.4235825836658478,-0.5217106938362122,1.2086716890335083
4205304940.0,-0.38444384932518,-0.0434535220265388,10.157058715820312,-0.2860981523990631,-0.7677993774414062,1.1723889112472534
4205313273.0,-0.4011171758174896,0.0967635139822959,10.234752655029297,-0.0982305854558944,-0.1606524884700775,1.1528069972991943
4205321606.0,-0.4284481406211853,0.0758916661143302,10.133225440979004,-0.2066556364297866,0.2433992624282837,1.1875911951065063
4205329939.0,-0.485248863697052,-0.136154368519783,10.039523124694824,-0.321023166179657,-0.0835280120372772,1.2125394344329834
4205338272.0,-0.5050837993621826,-0.1738500893115997,10.07500171661377,-0.2370597571134567,-0.5249636769294739,1.221453309059143
4205346605.0,-0.4953844547271728,0.1016919687390327,10.2433500289917,0.1179151162505149,-0.2755579650402069,1.1997323036193848
4205354938.0,-0.5249900817871094,0.241644486784935,10.270137786865234,-0.0398429408669471,0.1264830976724624,1.173029541969299
4205363271.0,-0.4309015572071075,0.043482132256031,10.083284378051758,-0.2938080728054046,-0.3189100325107574,1.2037409543991089
4205371604.0,-0.3589439690113067,-0.0717859342694282,10.044766426086426,-0.3059364259243011,-0.5855926871299744,1.2115405797958374
4205379937.0,-0.3880488872528076,0.046772439032793,10.215733528137209,-0.0256142355501651,-0.2583451569080353,1.2554432153701782
4205388270.0,-0.4687973260879516,0.1434431076049804,10.171578407287598,-0.0231808796525001,0.1730113476514816,1.337203860282898
4205396603.0,-0.4713437259197235,0.0973430424928665,10.154083251953123,-0.227684885263443,0.0782642886042594,1.2432763576507568
4205404936.0,-0.5214994549751282,0.0409214161336422,10.1602201461792,-0.2312709242105484,-0.4081628620624542,1.1546000242233276
4205413269.0,-0.5080020427703857,0.0997249335050582,10.209360122680664,-0.1160837113857269,-0.4198172986507416,1.251601219177246
4205421602.0,-0.5355262160301208,0.2349565923213958,10.243392944335938,-0.1525327563285827,0.0534697137773036,1.2946330308914185
4205429935.0,-0.5547173023223877,0.189335748553276,10.211520195007324,-0.2785804271697998,0.0380499437451362,1.2771642208099363
4205438268.0,-0.4209376573562622,0.038467988371849,10.081510543823242,-0.2390064150094986,-0.5867708921432495,1.224757432937622
4205446601.0,-0.3357544541358948,0.104488730430603,10.275888442993164,-0.1643537282943725,-0.6212604641914368,1.232710599899292
4205454934.0,-0.4442417323589325,0.2866358757019043,10.43240737915039,-0.2024677246809005,0.0338620208203792,1.225231409072876
4205463267.0,-0.5293533205986023,0.2657638788223266,10.23170566558838,-0.3233412802219391,0.3217403888702392,1.199079155921936
4205471600.0,-0.5426432490348816,0.0710921064019203,10.121465682983398,-0.494841456413269,-0.1272515207529068,1.15867280960083
4205479933.0,-0.5570777058601379,0.0392691083252429,10.27198314666748,-0.2816285192966461,-0.6665592193603516,1.2387940883636477
4205488266.0,-0.5563409924507141,0.2836887836456299,10.466776847839355,-0.15852652490139,-0.1260220408439636,1.0200484991073608
4205496599.0,-0.5226153135299683,0.404815137386322,10.337846755981444,-0.3745825588703155,0.1927599310874939,1.1311631202697754
4205504932.0,-0.4971941113471985,0.2283545136451721,10.275630950927734,-0.6130510568618774,-0.1296336501836776,1.1730166673660278
4205513265.0,-0.4116174876689911,0.0304353460669517,10.246848106384276,-0.6250385046005249,-0.5249892473220825,1.1185863018035889
4205521598.0,-0.4645771384239197,0.1796078830957412,10.370728492736816,-0.4026301801204681,-0.3108287751674652,1.1235812902450562
4205529931.0,-0.6004382371902466,0.3257261514663696,10.390685081481934,-0.4256317913532257,0.4373758733272552,1.186720371246338
4205538264.0,-0.5854813456535339,0.2524309754371643,10.202651023864746,-0.7480253577232361,0.0861662924289703,1.209913969039917
4205546597.0,-0.5450828075408936,0.1289368718862533,10.30201816558838,-0.8945002555847168,-0.6388958692550659,1.0832901000976562
4205554930.0,-0.5807607769966125,0.1667113155126571,10.45513916015625,-0.6864102482795715,-0.4333928525447845,1.1061378717422483
4205563263.0,-0.5864830613136292,0.3030588030815124,10.368775367736816,-0.6378328204154968,0.2481507062911987,1.1160889863967896
4205571596.0,-0.5444096922874451,0.2397704720497131,10.164462089538574,-0.8025836944580078,-0.0305449757725,1.157558560371399
4205579929.0,-0.434334933757782,0.0898611694574356,10.22310733795166,-0.99996680021286,-0.7161611318588257,1.1102488040924072
4205588262.0,-0.3592443764209747,0.2284260392189026,10.373618125915527,-0.874149739742279,-0.663114070892334,1.0679854154586792
4205596595.0,-0.4556003212928772,0.3961101472377777,10.452678680419922,-0.8353569507598877,0.1746506541967392,1.2197370529174805
4205604928.0,-0.5614548921585083,0.2673520147800445,10.239344596862791,-1.0982359647750854,0.4413460493087768,1.305442214012146
4205613261.0,-0.5617432594299316,0.0676036924123764,10.09876537322998,-1.2091329097747805,-0.4342765808105469,1.1239014863967896
4205621594.0,-0.5001268982887268,0.1489772647619247,10.30803108215332,-1.1174466609954834,-0.7286993265151978,1.1681243181228638
4205629927.0,-0.5354546904563904,0.3910459280014038,10.498056411743164,-0.9455623030662536,-0.0170718878507614,1.194648027420044
4205638260.0,-0.4932028651237488,0.3441572487354278,10.276525497436523,-1.207288384437561,0.220820277929306,1.2025883197784424
4205646593.0,-0.3997547924518585,0.1182966753840446,10.118426322937012,-1.4334622621536257,-0.5653190016746521,1.1932135820388794
4205654926.0,-0.3636081218719482,0.0600252635776996,10.2345609664917,-1.3269327878952026,-0.7280975580215454,1.2498209476470947
4205663259.0,-0.3731065988540649,0.2029333114624023,10.313390731811523,-1.0929080247879028,-0.1338855922222137,1.2399978637695312
4205671592.0,-0.469555526971817,0.2500490844249725,10.284472465515137,-1.1640644073486328,0.4415766298770904,1.1056256294250488
4205679925.0,-0.4990941286087036,0.0938594937324523,10.15631866455078,-1.4374964237213137,-0.1679525226354599,1.205777287483215
4205688258.0,-0.4680826961994171,0.08415337651968,10.188047409057615,-1.3756636381149292,-0.6819790005683899,1.2373340129852295
4205696591.0,-0.4897954165935516,0.1656270027160644,10.306913375854492,-1.307043194770813,-0.4456620514392853,1.2118221521377563
4205704924.0,-0.5403527617454529,0.1251172870397567,10.251090049743652,-1.2335302829742432,0.1851780861616134,1.222861886024475
4205713257.0,-0.4374888241291046,0.0098585486412048,10.052698135375977,-1.3854228258132937,-0.3496087193489074,1.1494003534317017
4205721590.0,-0.3447383046150207,0.0068522156216204,10.09577465057373,-1.3072224855422974,-0.8603308796882629,1.278137445449829
4205729923.0,-0.35696542263031,0.1220439225435257,10.29349422454834,-1.238320231437683,-0.4096228778362274,1.2339787483215332
4205738256.0,-0.4173030257225036,0.1263387501239776,10.243639945983888,-1.283247470855713,0.3238279521465301,1.2912006378173828
4205746589.0,-0.5020115375518799,-0.0639883503317833,10.083670616149902,-1.4553239345550537,0.0716045871376991,1.2469136714935305
4205754922.0,-0.5310004949569702,-0.1962267458438873,10.07833480834961,-1.321348786354065,-0.491191416978836,1.1847352981567385
4205763255.0,-0.5243909358978271,-0.0354257561266422,10.174428939819336,-1.0582906007766724,-0.5111960768699646,1.2339401245117188
4205771588.0,-0.5144938826560974,0.1043536663055419,10.222763061523438,-1.1050876379013062,-0.1399946063756942,1.2690829038619995
4205779921.0,-0.4726373255252838,-0.0224932339042425,10.061569213867188,-1.2336326837539673,-0.0666226223111152,1.2267553806304932
4205788254.0,-0.3946130573749542,-0.1882423162460327,9.978963851928713,-1.3160336017608645,-0.5537540912628174,1.2158693075180054
4205796587.0,-0.4348790347576141,-0.1656441539525985,10.075252532958984,-0.9835097789764404,-0.6464264988899231,1.3343353271484375
4205804920.0,-0.4793981909751892,-0.0880157351493835,10.147151947021484,-0.8700130581855774,-0.0336314886808395,1.3080291748046875
4205813253.0,-0.5256842374801636,-0.0483960248529911,10.051997184753418,-0.9807177186012268,0.222369983792305,1.2973226308822632
4205821586.0,-0.4892902076244354,-0.1932483613491058,10.036004066467283,-1.029359221458435,-0.4168460369110107,1.1861311197280884
4205829919.0,-0.5074870586395264,-0.2050362378358841,10.091044425964355,-0.8881351351737976,-0.6329917311668396,1.2222087383270264
4205838252.0,-0.5309486985206604,-0.0713353380560875,10.098405838012695,-0.6983336210250854,-0.0902517437934875,1.2589908838272097
4205846585.0,-0.5314419269561768,-0.1388009190559387,9.971613883972168,-0.6550328135490417,0.0768298953771591,1.216432809829712
4205854918.0,-0.4434407353401184,-0.2801699042320251,9.942322731018066,-0.7572848796844482,-0.5720939636230469,1.1494516134262085
4205863251.0,-0.3340377807617187,-0.2084409892559051,10.068406105041504,-0.6594511866569519,-0.5366565585136414,1.1991559267044067
4205871584.0,-0.4124758541584015,-0.0565360710024833,10.143696784973145,-0.3146452903747558,-0.1913383454084396,1.284835696220398
4205879917.0,-0.4854205250740051,-0.12293591350317,10.003823280334473,-0.4396427273750305,0.1970887333154678,1.1438164710998535
4205888250.0,-0.5046044588088989,-0.2874870598316192,9.90506362915039,-0.4561382234096527,-0.1665437370538711,1.1526789665222168
4205896583.0,-0.5118573307991028,-0.3356612026691437,9.993802070617676,-0.3469448387622833,-0.6740898489952087,1.2027804851531982
4205904916.0,-0.5100692510604858,-0.1470982134342193,10.16867446899414,-0.0313262119889259,-0.2672077119350433,1.1378740072250366
4205913249.0,-0.4895979166030884,0.0165014918893575,10.08161163330078,-0.0234370231628417,0.0768555179238319,1.1329303979873655
4205921582.0,-0.4198718667030334,-0.0955476760864257,10.03530979156494,-0.2022500187158584,-0.2691031694412231,1.1439189910888672
4205929915.0,-0.3528710603713989,-0.2774511873722076,10.102910995483398,-0.2157743126153946,-0.6193265318870544,1.0997086763381958
4205938248.0,-0.3397670984268188,-0.1558248847723007,10.0802583694458,0.062921367585659,-0.2592416703701019,1.2078009843826294
4205946581.0,-0.4506720304489136,0.0204714369028806,10.15740203857422,0.2524923086166382,0.1744457483291626,1.2186356782913208
4205954914.0,-0.5178372263908386,-0.0509210899472236,10.115063667297363,-0.0541100688278675,0.1189268827438354,1.2486939430236816
4205963247.0,-0.4743622243404388,-0.0748187378048896,10.165155410766602,-0.1574250906705856,-0.369434118270874,1.1406913995742798
4205971580.0,-0.4711076915264129,0.0334252342581748,10.224459648132324,0.01717434450984,-0.331550657749176,1.2689931392669678
4205979913.0,-0.515884518623352,0.1022570431232452,10.28257656097412,0.0929540619254112,0.1540184020996093,1.2052522897720337
4205988246.0,-0.4604642391204834,0.0326096639037132,10.05482292175293,-0.0887917503714561,0.1756880432367324,1.2257180213928225
4205996579.0,-0.3536580204963684,-0.0393549427390098,10.118555068969728,-0.0298661962151527,-0.6047008037567139,1.2125394344329834
4206004912.0,-0.3082947134971618,0.0236690323799848,10.320107460021973,-0.0009477265994064,-0.6466569304466248,1.185362696647644
4206013245.0,-0.3644301891326904,0.2070104330778122,10.344320297241213,0.0979360193014144,0.1592052727937698,1.25987446308136
4206021578.0,-0.4892830550670624,0.1791930198669433,10.203630447387695,0.0153301209211349,0.2709345519542694,1.2909702062606812
4206029911.0,-0.5691516995429993,0.0032187793403863,10.122209548950195,-0.1556320935487747,-0.0674678906798362,1.1994248628616333
4206038244.0,-0.512272298336029,-0.0760418698191642,10.19951057434082,-0.0722193419933319,-0.4490047395229339,1.1850682497024536
4206046577.0,-0.5006706118583679,0.1782347559928894,10.372845649719238,0.2272110730409622,-0.220487356185913,1.2455307245254517
4206054910.0,-0.525841236114502,0.3002334237098694,10.33098030090332,0.0574911423027515,0.171525701880455,1.2305973768234253
4206063243.0,-0.4269174337387085,0.1428353786468505,10.117196083068848,-0.0696066692471504,-0.2857908010482788,1.2005391120910645
4206071576.0,-0.350389152765274,0.0521442256867885,10.204010009765623,-0.115571416914463,-0.720989465713501,1.277727723121643
4206079909.0,-0.4190780520439148,0.1381144672632217,10.3226900100708,0.1111785843968391,-0.2328333854675293,1.201525330543518
4206088242.0,-0.5055915713310242,0.2385687679052353,10.250452995300291,0.0617943443357944,0.3489811420440674,1.1556247472763062
4206096575.0,-0.5530935525894165,0.2146854251623153,10.143267631530762,-0.0890991166234016,0.0085295401513576,1.2136025428771973
4206104908.0,-0.5721272826194763,0.0893533155322074,10.26517391204834,-0.1937588900327682,-0.6215422749519348,1.1524357795715332
4206113241.0,-0.5043898820877075,0.1605169475078582,10.31686019897461,-0.0702470391988754,-0.3867878019809723,1.194955348968506
4206121574.0,-0.5513125061988831,0.3066996037960052,10.29595947265625,-0.0611539930105209,0.0991014838218689,1.1190859079360962
4206129907.0,-0.5511336922645569,0.188756376504898,10.153875350952148,-0.2671052515506744,0.075241819024086,1.0937408208847046
4206138240.0,-0.4002659320831299,0.0479884222149848,10.095794677734377,-0.446366399526596,-0.7849097847938538,1.1596076488494873
4206146573.0,-0.3558754026889801,0.1376493126153946,10.304092407226562,-0.1830008924007415,-0.656889796257019,1.1486701965332031
4206154906.0,-0.4390129745006561,0.2748411297798157,10.346566200256348,-0.1881237626075744,0.383650004863739,1.168495774269104
4206163239.0,-0.5516918301582336,0.1576274782419204,10.127252578735352,-0.3456384837627411,0.3644008636474609,1.1437395811080933
4206171572.0,-0.5862255692481995,-0.0377383977174758,10.023858070373535,-0.518509030342102,-0.2804502546787262,1.1774991750717163
4206179905.0,-0.5895658731460571,0.0238335635513067,10.234180450439451,-0.3349061012268066,-0.6954008340835571,1.1495283842086792
4206188238.0,-0.5180660486221313,0.188978224992752,10.27761936187744,-0.1451174467802047,-0.1071827635169029,1.2113484144210815
4206196571.0,-0.4924015700817108,0.1949434876441955,10.21231460571289,-0.2542340755462646,0.1391365230083465,1.2237969636917114
4206204904.0,-0.4636043608188629,0.0529811084270477,10.087668418884276,-0.5120285749435425,-0.2954857945442199,1.134134292602539
4206213237.0,-0.3378931581974029,-0.0649978816509246,10.102046012878418,-0.4567530453205108,-0.6766000390052795,1.2434046268463137
4206221570.0,-0.3841004073619842,0.0211939644068479,10.24616813659668,-0.3473034203052521,-0.1883414834737777,1.3079524040222168
4206229903.0,-0.5210775136947632,0.1133440881967544,10.186162948608398,-0.2863927483558655,0.3474698960781097,1.2779325246810913
4206238236.0,-0.5183736681938171,0.0512501187622547,10.039072036743164,-0.4549856781959533,0.0045465268194675,1.1321364641189575
4206246569.0,-0.525476336479187,-0.0744250491261482,10.13481330871582,-0.4406672716140747,-0.6855649948120117,1.1387192010879517
4206254902.0,-0.519460916519165,0.0131397722288966,10.311702728271484,-0.2757756412029266,-0.2743156254291534,1.256224513053894
4206263235.0,-0.5067216753959656,0.1139161735773086,10.196892738342283,-0.2374823987483978,0.1361908912658691,1.209222435951233
4206271568.0,-0.4257586598396301,0.0064590172842144,10.052891731262209,-0.3627359569072723,-0.2614828944206238,1.2727456092834473
4206279901.0,-0.3438226580619812,-0.1114696040749549,10.128705024719238,-0.5038832426071167,-0.7531096935272217,1.1036278009414673
4206288234.0,-0.2991104423999786,0.0313223004341125,10.275867462158203,-0.2770691514015198,-0.5369255542755127,1.190229415893555
4206296567.0,-0.3991928994655609,0.1249314919114112,10.314148902893066,-0.2912082076072693,0.176187515258789,1.3125118017196655
4206304900.0,-0.5301043391227722,0.0067594368010759,10.129992485046388,-0.4878742694854736,0.308049589395523,1.299960732460022
4206313233.0,-0.5426504015922546,-0.1267912983894348,10.055559158325195,-0.4522193670272827,-0.2490984499454498,1.1652812957763672
4206321566.0,-0.4989465475082397,-0.0995318070054054,10.249308586120604,-0.1782238334417343,-0.5930975675582886,1.0901545286178589
4206329899.0,-0.476500928401947,0.1074929237365722,10.341194152832031,-0.1215651631355285,0.014945906586945,1.1978113651275637
4206338232.0,-0.47971972823143,0.2107656747102737,10.16795253753662,-0.2046577334403991,0.1421718001365661,1.1522691249847412
4206346565.0,-0.4203080832958221,-0.075555220246315,10.091710090637209,-0.3553078472614288,-0.6286885738372803,1.1915228366851809
4206354898.0,-0.3522846698760986,-0.173356294631958,10.18250846862793,-0.3650412559509277,-0.627740740776062,1.0536415576934814
4206363231.0,-0.4077907800674438,0.0651910230517387,10.31019401550293,-0.0971932113170623,0.0251019485294818,1.1904983520507812
4206371564.0,-0.5411053895950317,0.1522697210311889,10.22837257385254,-0.1959104835987091,0.4261696934700012,1.1725428104400637
4206379897.0,-0.573014497756958,-0.0167448632419109,10.065537452697754,-0.3967516720294952,-0.0735256597399711,1.1351971626281738
4206388230.0,-0.4841401875019073,-0.0506063625216484,10.14338207244873,-0.3596751093864441,-0.6814666986465454,1.1506168842315674
4206396563.0,-0.4892973899841308,0.0459856279194355,10.35353946685791,-0.1045188829302787,-0.28661048412323,1.232582688331604
4206404896.0,-0.571311891078949,0.1172279417514801,10.198609352111816,-0.1579501628875732,0.4799595475196838,1.2091712951660156
4206413229.0,-0.491035521030426,0.0483031496405601,10.001197814941406,-0.2949991226196289,-0.0876262933015823,1.233978509902954
4206421562.0,-0.3769262135028839,-0.0598907545208931,10.127001762390137,-0.2886212170124054,-0.8197835683822632,1.019100785255432
4206429895.0,-0.3712682425975799,0.0304213427007198,10.358983039855955,-0.1536469906568527,-0.3719570934772491,1.1010278463363647
4206438228.0,-0.4331689774990082,0.1999145597219467,10.254572868347168,-0.1950267851352691,0.5599142909049988,1.3160463571548462
4206446561.0,-0.5897518992424011,0.0674584582448005,10.037334442138672,-0.3113154172897339,0.3579204976558685,1.1799324750900269
4206454894.0,-0.5782715678215027,-0.1482641249895095,9.998279571533203,-0.4019129574298858,-0.4785763621330261,1.1233762502670288
4206463227.0,-0.5060779452323914,-0.0206574108451604,10.26381492614746,-0.1221542954444885,-0.6310067176818848,1.10055410861969
4206471560.0,-0.5206053853034973,0.2548128664493561,10.387765884399414,0.0610003061592578,-0.0021259819623082,1.1775504350662231
4206479893.0,-0.5148401856422424,0.2189413756132125,10.156936645507812,-0.2940258085727691,0.1169417947530746,1.2368472814559937
4206488226.0,-0.3853951692581177,-0.0017739050090312,10.000962257385254,-0.478704422712326,-0.5913558006286621,1.1988869905471802
4206496559.0,-0.3591655492782593,-0.0368723981082439,10.243772506713867,-0.2600357234477997,-0.6698890328407288,1.0607237815856934
4206504892.0,-0.4465519785881042,0.1033800393342971,10.313419342041016,-0.1302227675914764,0.1491388827562332,1.1818535327911377
4206513225.0,-0.5053412318229675,0.2167953103780746,10.135056495666504,-0.1213090196251869,0.5341464281082153,1.2805708646774292
4206521558.0,-0.548572838306427,0.1093743592500686,10.103483200073242,-0.2981240749359131,-0.2899787425994873,1.107418656349182
4206529891.0,-0.512193500995636,-0.019770136103034,10.257548332214355,-0.4475318491458893,-0.7650715112686157,1.1592873334884644
4206538224.0,-0.4536833763122558,0.1219488158822059,10.338482856750488,-0.2335121929645538,-0.2258535176515579,1.1573792695999146
4206546557.0,-0.5254621505737305,0.2202145755290985,10.22609806060791,-0.1536469906568527,0.3065255284309387,1.080767035484314
4206554890.0,-0.4772376716136932,0.0297272149473428,10.03091812133789,-0.4327269196510315,-0.3130571544170379,1.197606325149536
4206563223.0,-0.336655706167221,-0.0440472066402435,10.11221694946289,-0.3646954596042633,-0.9721114039421082,1.1310349702835083
4206571556.0,-0.3386370539665222,0.1265266388654709,10.428101539611816,-0.2500205636024475,-0.239288181066513,1.1582629680633545
4206579889.0,-0.4800558984279632,0.2019533663988113,10.264164924621582,-0.3332924246788025,0.6144726276397705,1.2501410245895386
4206588222.0,-0.529460608959198,0.0280749090015888,10.041082382202148,-0.4430750608444214,0.2178362756967544,1.2705044746398926
4206596555.0,-0.5365061163902283,-0.1664681136608123,10.060359001159668,-0.3902840614318847,-0.6608216166496277,1.1448922157287598
4206604888.0,-0.4846551716327667,-0.0295197833329439,10.352331161499023,-0.2182332724332809,-0.6883569359779358,1.2160229682922363
4206613221.0,-0.4715297818183899,0.2402998358011245,10.294042587280272,-0.1477428972721099,0.1208863705396652,1.2089533805847168
4206621554.0,-0.4684468507766723,0.1935702413320541,10.179647445678713,-0.2811930477619171,0.1291853785514831,1.1830061674118042
4206629887.0,-0.425586998462677,-0.0874721184372901,10.042133331298828,-0.508135199546814,-0.4937399625778198,1.12949800491333
4206638220.0,-0.370881974697113,-0.0872786939144134,10.216898918151855,-0.2651585340499878,-0.6534191966056824,1.3264460563659668
4206646553.0,-0.4911212921142578,0.0799615904688835,10.293648719787598,-0.1421846151351928,0.0596683584153652,1.187796115875244
4206654886.0,-0.5370140075683594,0.1536001563072204,10.16153621673584,-0.2430022358894348,0.5107094049453735,1.1909722089767456
4206663219.0,-0.5182377696037292,-0.019584484398365,10.068742752075195,-0.4568810760974884,-0.2332176119089126,1.1111838817596436
4206671552.0,-0.4829957187175751,-0.0510069243609905,10.306230545043944,-0.2567058801651001,-0.7403282523155212,1.1170239448547363
4206679885.0,-0.5132022500038147,0.0618077032268047,10.290887832641602,-0.2735856175422668,-0.0093235811218619,1.3004730939865112
4206688218.0,-0.5142967104911804,0.1142739877104759,10.153875350952148,-0.2747895419597626,0.2238299995660781,1.1965818405151367
4206696551.0,-0.4607002139091491,-0.0810844451189041,10.037034034729004,-0.3623645603656769,-0.4372093379497528,1.2454025745391846
4206704884.0,-0.3338018357753753,-0.0884023159742355,10.208316802978516,-0.3395807445049286,-0.8223065733909607,1.1308940649032593
4206713217.0,-0.3622700870037079,0.1145812943577766,10.32423496246338,-0.1090782135725021,-0.10334063321352,1.149285078048706
4206721550.0,-0.5333302617073059,0.1726481765508651,10.24864387512207,-0.1922091990709304,0.5310983061790466,1.1981441974639893
4206729883.0,-0.57719886302948,-0.0613570548593997,9.9898681640625,-0.483007550239563,0.0651241838932037,1.2388707399368286
4206738216.0,-0.531627893447876,-0.1803446263074875,10.086174011230469,-0.2807448208332062,-0.765647828578949,1.1473896503448486
4206746549.0,-0.5005201697349548,-0.0037266311701387,10.355134963989258,-0.0152660831809043,-0.3257874548435211,1.123043417930603
4206754882.0,-0.5307981371879578,0.1835779249668121,10.269600868225098,-0.0543277896940708,0.2880192697048187,1.131111741065979
4206763215.0,-0.4490197300910949,0.1320987045764923,10.012163162231444,-0.2274031788110733,-0.0609874948859214,1.2202492952346802
4206771548.0,-0.3873623013496399,-0.1151753291487693,10.09763240814209,-0.3726615011692047,-0.6197620034217834,1.2325185537338257
4206779881.0,-0.3552244901657104,-0.0460929200053215,10.2708740234375,-0.11819688975811,-0.4358390569686889,1.2355283498764038
4206788214.0,-0.4391130208969116,0.1264908760786056,10.26662540435791,0.0053917965851724,0.2588702738285064,1.185798168182373
4206796547.0,-0.5458191633224487,0.1727483123540878,10.17454719543457,-0.2102672457695007,0.3339199423789978,1.2376413345336914
4206804880.0,-0.5443028211593628,0.0123026752844452,10.075594902038574,-0.4332391917705536,-0.4863118231296539,1.2268322706222534
4206813213.0,-0.4548206627368927,0.0294911712408065,10.290301322937012,-0.2707936763763428,-0.6002184152603149,1.2176367044448853
