SampleTimeFine,Acc_X,Acc_Y,Acc_Z,Gyr_X,Gyr_Y,Gyr_Z
3993216256.0,0.0,0.0,0.0,0.0,0.0,0.0
3993224589.0,-0.4584768116474151,-0.0048253810964524,9.923588752746582,2.224775791168213,0.8372269868850708,1.1562522649765017
3993232922.0,-0.4681214988231659,-0.1255914866924286,9.747309684753418,2.1074366569519043,0.7716288566589355,1.2146525382995603
3993241255.0,-0.4968614280223846,-0.273827463388443,9.859761238098145,1.840446949005127,0.223701924085617,1.2244502305984497
3993249588.0,-0.5185202956199646,-0.1816854625940323,10.028138160705566,2.0308501720428467,0.3159259855747223,1.1851962804794312
3993257921.0,-0.5109327435493469,-0.0456183552742004,9.941523551940918,2.150775909423828,0.5917656421661377,1.2155489921569824
3993266254.0,-0.4344885647296905,-0.1495613902807235,9.778157234191896,2.1011102199554443,0.5639998912811279,1.170544981956482
3993274587.0,-0.3749374747276306,-0.2925522327423095,9.818761825561523,1.982131838798523,0.1275844871997833,1.2219783067703247
3993282920.0,-0.3811851739883423,-0.2242676615715026,9.994990348815918,2.078057289123535,0.1466415077447891,1.152896761894226
3993291253.0,-0.4302070438861847,-0.035796582698822,10.064501762390137,2.040558099746704,0.6512675881385803,1.313984751701355
3993299586.0,-0.4734334945678711,-0.0813659206032753,9.891480445861816,2.0585265159606934,0.8788371682167053,1.372115969657898
3993307919.0,-0.477239727973938,-0.3420398235321045,9.738987922668455,2.06329083442688,0.5870142579078674,1.2913802862167358
3993316252.0,-0.4990510046482086,-0.3589585721492767,9.91941261291504,2.021347522735596,0.1092703342437744,1.2420854568481443
3993324585.0,-0.4978906214237213,-0.0823283120989799,10.085494995117188,2.145986557006836,0.3170273900032043,1.3203370571136477
3993332918.0,-0.4702033996582031,0.0297607257962226,9.928057670593262,2.1478946208953857,0.717006504535675,1.3401496410369873
3993341251.0,-0.4088700413703918,-0.152739018201828,9.74485683441162,2.018350124359131,0.4467634856700897,1.2342987060546875
3993349584.0,-0.3897023200988769,-0.3318284749984741,9.856245040893556,1.9742426872253416,0.1606268733739853,1.3657253980636597
3993357917.0,-0.398183673620224,-0.2293064445257187,9.987103462219238,2.1529788970947266,0.3057827353477478,1.2030750513076782
3993366250.0,-0.4351674914360046,-0.0337482988834381,9.996955871582031,2.362836599349976,0.832974910736084,1.1314576864242554
3993374583.0,-0.4719634056091308,-0.0909286364912986,9.813666343688965,2.139787673950196,0.8601260781288147,1.3147788047790527
3993382916.0,-0.4788219928741455,-0.2572278082370758,9.788347244262695,1.9401118755340576,0.273470401763916,1.3541094064712524
3993391249.0,-0.5084338784217834,-0.2137685269117355,9.978361129760742,1.9289952516555784,0.2046193331480026,1.3000633716583252
3993399582.0,-0.4953963458538055,-0.0555953197181224,10.023651123046877,2.166349411010742,0.4420760869979858,1.1367084980010986
3993407915.0,-0.4534550607204437,-0.0673621147871017,9.852686882019045,2.0805418491363525,0.6845404505729675,1.268621802330017
3993416248.0,-0.3885583877563476,-0.2407705634832382,9.73961067199707,2.012817621231079,0.2514805793762207,1.3036365509033203
3993424581.0,-0.3759252429008484,-0.2496482282876968,9.936424255371094,2.016634464263916,-0.021964207291603,1.2687498331069946
3993432914.0,-0.4275107979774475,-0.0645388066768646,10.011120796203612,2.11617112159729,0.5333651900291443,1.2576333284378052
3993441247.0,-0.4670550525188446,0.0001478015910834,9.885541915893556,2.1214990615844727,0.8336153030395508,1.267085075378418
3993449580.0,-0.4747669696807861,-0.1840972900390625,9.74004364013672,1.90042245388031,0.658362627029419,1.2601433992385864
3993457913.0,-0.478334367275238,-0.3659816980361938,9.855870246887209,2.0374717712402344,0.1524943560361862,1.2903300523757937
3993466246.0,-0.4727921783924103,-0.1893906742334365,10.041083335876465,2.1859445571899414,0.1475892215967178,1.245415449142456
3993474579.0,-0.4532895684242248,0.0407148450613021,10.036681175231934,2.2785656452178955,0.7487810254096985,1.3246914148330688
3993482912.0,-0.4059675931930542,-0.0476507097482681,9.791284561157228,2.1673741340637207,0.4934326708316803,1.3101425170898438
3993491245.0,-0.3682774901390075,-0.267925351858139,9.753644943237305,1.944581389427185,0.2105746120214462,1.203843355178833
3993499578.0,-0.3787320256233215,-0.2586102187633514,9.961334228515623,2.0153536796569824,0.1492028981447219,1.2319422960281372
3993507911.0,-0.417238712310791,-0.0556229352951049,10.065872192382812,2.227541923522949,0.6740898489952087,1.323026418685913
3993516244.0,-0.4465096890926361,-0.0277740601450204,9.837055206298828,2.0982155799865723,0.9516457915306092,1.294748306274414
3993524577.0,-0.4655139148235321,-0.1975847482681274,9.777812957763672,1.992928385734558,0.4723393321037292,1.2739112377166748
3993532910.0,-0.5078232288360596,-0.2522457540035248,9.919469833374023,1.8627183437347408,0.0926466882228851,1.272899508476257
3993541243.0,-0.5018888711929321,-0.0998335778713226,10.026352882385254,2.0669150352478027,0.4601853787899017,1.281813144683838
3993549576.0,-0.4795660972595215,-0.0281745865941047,9.89294147491455,2.118348360061645,0.8122529983520508,1.2656503915786743
3993557909.0,-0.4144759476184845,-0.1475589871406555,9.751099586486816,2.058718681335449,0.4578544199466705,1.3495116233825684
3993566242.0,-0.3672047555446625,-0.2849322557449341,9.85908317565918,1.967583060264588,0.0960021540522575,1.1942124366760254
3993574575.0,-0.4101752936840057,-0.167255625128746,10.023197174072266,2.1134049892425537,0.237162172794342,1.2545852661132812
3993582908.0,-0.4556270241737366,-0.0174192003905773,9.994380950927734,2.027699708938598,0.8831532001495361,1.312345266342163
3993591241.0,-0.4934456944465637,-0.1495202332735061,9.803791046142578,1.9549425840377808,0.8687452673912048,1.2254490852355957
3993599574.0,-0.508977472782135,-0.3482830226421356,9.788436889648438,2.1121625900268555,0.4178322255611419,1.1363115310668943
3993607907.0,-0.4822770357131958,-0.26741823554039,9.990623474121094,2.170422077178955,0.1562980562448501,1.1716718673706057
3993616240.0,-0.4969525635242462,-0.0056010354310274,10.06337833404541,2.210047483444214,0.4747855067253113,1.2408816814422607
3993624573.0,-0.4287267029285431,0.0001291160006076,9.869425773620604,2.131924152374268,0.6683522462844849,1.375151515007019
3993632906.0,-0.3804369270801544,-0.2332544773817062,9.764090538024902,2.0008814334869385,0.3606996536254883,1.2184691429138184
3993641239.0,-0.3996685147285461,-0.3377854824066162,9.88424587249756,2.006030321121216,0.0904438719153404,1.2513067722320557
3993649572.0,-0.465025931596756,-0.1513281613588333,10.028066635131836,2.108717679977417,0.5899471044540405,1.3623442649841309
3993657905.0,-0.5036758780479431,0.0014943029964342,9.947389602661133,2.178388357162476,0.8971386551856995,1.278765082359314
3993666238.0,-0.4999269545078277,-0.1151634454727172,9.79652214050293,2.136099338531494,0.6437113285064697,1.2232078313827517
3993674571.0,-0.4815159440040588,-0.2707442939281463,9.86666202545166,1.970170021057129,0.1529425829648971,1.1216216087341309
3993682904.0,-0.469507485628128,-0.1957157403230667,10.010961532592772,2.034026622772217,0.1775579005479812,1.231429934501648
3993691237.0,-0.4424379765987396,-0.0626308098435401,10.00015354156494,2.108666181564331,0.5130018591880798,1.3404953479766846
3993699570.0,-0.3766124248504638,-0.1440977752208709,9.796575546264648,2.038841724395752,0.5555471181869507,1.3129600286483765
3993707903.0,-0.3503672778606415,-0.2998994886875152,9.80511474609375,1.893404483795166,0.1947962790727615,1.1710573434829712
3993716236.0,-0.3930032551288605,-0.2260307967662811,9.993383407592772,2.112406015396118,0.0206194594502449,1.2444419860839844
3993724569.0,-0.4555850923061371,-0.0008794857421889,10.019956588745115,2.1596004962921143,0.623847484588623,1.3124094009399414
3993732902.0,-0.5051934719085693,-0.0524705424904823,9.847661972045898,2.0617408752441406,0.9219330549240112,1.2600409984588623
3993741235.0,-0.499789834022522,-0.293270081281662,9.718789100646973,1.909592628479004,0.5488874316215515,1.3082470893859863
3993749568.0,-0.4866742193698883,-0.3660279810428619,9.89540958404541,2.049190282821656,0.087344542145729,1.1770509481430054
3993757901.0,-0.4612876176834106,-0.1216740310192108,10.051226615905762,2.219845056533813,0.3004677891731262,1.3039309978485107
3993766234.0,-0.4357675611972809,0.032074324786663,9.939120292663574,2.141721248626709,0.6191088557243347,1.2689931392669678
3993774567.0,-0.3801994323730469,-0.1206968873739242,9.790227890014648,2.021270751953125,0.5385905504226685,1.3327085971832275
3993782900.0,-0.3838534653186798,-0.3141570091247558,9.85941219329834,2.061971664428711,0.2075521647930145,1.1554583311080933
3993791233.0,-0.4055788218975067,-0.2357520163059234,9.98978328704834,2.13002872467041,0.3772464692592621,1.2916234731674194
3993799566.0,-0.455388993024826,-0.0478973984718322,9.977243423461914,2.235802412033081,0.782168984413147,1.266662359237671
3993807899.0,-0.4950229525566101,-0.0871012434363365,9.810001373291016,2.13480544090271,0.8800410628318787,1.1394619941711426
3993816232.0,-0.4996860921382904,-0.2456267923116684,9.781842231750488,1.9595144987106323,0.3917441070079803,1.2713112831115725
3993824565.0,-0.5051971673965454,-0.2317247092723846,9.960648536682127,2.0682213306427,0.1617026925086975,1.1966203451156616
3993832898.0,-0.4930193722248077,-0.044811476022005,10.046761512756348,2.1025702953338623,0.4330599009990692,1.2850149869918823
3993841231.0,-0.4335551857948303,-0.0672358050942421,9.846840858459473,2.0781726837158203,0.6078642010688782,1.2827225923538208
3993849564.0,-0.3775697350502014,-0.2434496134519577,9.757758140563965,2.0426840782165527,0.223381757736206,1.3273040056228638
3993857897.0,-0.3658365905284881,-0.2930964231491089,9.920390129089355,1.975292921066284,0.0660847201943397,1.296823024749756
3993866230.0,-0.405026376247406,-0.0714667662978172,10.0640869140625,2.113327980041504,0.2843692600727081,1.2574796676635742
3993874563.0,-0.4661703109741211,-0.0190413054078817,9.93289279937744,2.0771355628967285,0.9541302919387816,1.3328880071640017
3993882896.0,-0.4855234026908874,-0.2018608748912811,9.755819320678713,2.013535022735596,0.8280826210975647,1.3688760995864868
3993891229.0,-0.4999740421772003,-0.3749383687973022,9.853927612304688,2.043529272079468,0.1520717144012451,1.232890009880066
3993899562.0,-0.4720924198627472,-0.1936079412698745,10.047455787658691,2.264887571334839,0.1619075834751129,1.3122942447662354
3993907895.0,-0.4655486345291137,0.0444927178323268,10.03827667236328,2.112380027770996,0.5334420204162598,1.1629374027252195
3993916228.0,-0.4109792113304138,-0.0418501645326614,9.813737869262695,2.082975149154663,0.6768048405647278,1.2307894229888916
3993924561.0,-0.3798374831676483,-0.2748781144618988,9.77519702911377,1.969862699508667,0.2021219283342361,1.1542543172836304
3993932894.0,-0.4196530878543854,-0.2969591319561004,9.962218284606934,2.154400587081909,0.1511368006467819,1.231135368347168
3993941227.0,-0.448034793138504,-0.071312241256237,10.04523468017578,2.1392626762390137,0.7060436010360718,1.1924580335617063
3993949560.0,-0.4806325137615204,0.0035565723665058,9.850111961364746,2.1604583263397217,0.9143001437187196,1.1502841711044312
3993957893.0,-0.4725512564182281,-0.1940143853425979,9.785856246948242,2.083820581436157,0.6177385449409485,1.3239742517471311
3993966226.0,-0.4988650977611542,-0.2430041581392288,9.889700889587402,1.9950544834136963,0.1551582366228103,1.3015745878219604
3993974559.0,-0.4589983820915222,-0.1082047969102859,10.01276969909668,2.056810140609741,0.3194991648197174,1.2773178815841677
3993982892.0,-0.4311223924160003,-0.0515646934509277,9.916234016418455,2.014277935028076,0.5980156064033508,1.3603209257125854
3993991225.0,-0.3806411027908325,-0.1987140029668808,9.77906608581543,1.9928770065307613,0.490909606218338,1.3379722833633425
3993999558.0,-0.3851010799407959,-0.2998407781124115,9.893993377685549,1.9997419118881223,0.0092339310795068,1.2710423469543457
3994007891.0,-0.4083569645881653,-0.1292255669832229,10.04584503173828,2.0662617683410645,0.1826166808605194,1.298270344734192
3994016224.0,-0.4719372093677521,0.0408039651811122,9.972867012023926,2.094181537628174,0.7783526182174683,1.2671490907669067
3994024557.0,-0.5103490352630615,-0.1275704056024551,9.780508041381836,2.066197872161865,0.8562583327293396,1.2632941007614136
3994032890.0,-0.4875109195709228,-0.3906825184822082,9.820274353027344,1.975292921066284,0.3951251804828644,1.2051498889923096
3994041223.0,-0.4732062816619873,-0.3039652109146118,9.952919006347656,2.0750861167907715,-0.0448889434337616,1.262730598449707
3994049556.0,-0.4411864280700683,-0.0525387823581695,10.073075294494627,2.2996459007263184,0.3570367991924286,1.1721328496932983
3994057889.0,-0.3955481946468353,0.0322721265256404,9.897686958312988,2.153952121734619,0.7941692471504211,1.173003911972046
3994066222.0,-0.3724494874477386,-0.1699457466602325,9.741479873657228,1.996142864227295,0.3777587115764618,1.2579917907714844
3994074555.0,-0.402203232049942,-0.3369242548942566,9.906941413879396,1.97945523262024,0.1012146472930908,1.2545467615127563
3994082888.0,-0.4611381292343139,-0.182462066411972,10.05784034729004,2.0566179752349854,0.393921285867691,1.2604764699935913
3994091221.0,-0.4934969246387481,-0.0317554995417594,9.93459129333496,2.213863611221313,0.8951150178909302,1.2651638984680176
3994099554.0,-0.4877060353755951,-0.1348454058170318,9.77927589416504,2.0208096504211426,0.6973475813865662,1.2408561706542969
3994107887.0,-0.4773838222026825,-0.2558492720127105,9.853911399841309,1.940765142440796,0.2772484719753265,1.2381923198699951
3994116220.0,-0.4627668261528015,-0.1829541176557541,10.022320747375488,2.019644021987915,0.293167769908905,1.3092845678329468
3994124553.0,-0.4345525205135345,-0.0334854573011398,9.970510482788086,1.9885870218276973,0.5308038592338562,1.3555054664611816
3994132886.0,-0.3977091908454895,-0.113712340593338,9.823606491088867,1.9831053018569944,0.5968372821807861,1.3018180131912231
3994141219.0,-0.3609281182289123,-0.2874727547168731,9.832508087158203,1.952931880950928,0.2040173858404159,1.2047911882400513
3994149552.0,-0.3930199444293976,-0.2434546202421188,10.020807266235352,2.0290186405181885,0.1760081946849823,1.2157412767410278
3994157885.0,-0.462789386510849,-0.0092283124104142,9.99254322052002,2.147510290145874,0.5487977862358093,1.280186891555786
3994166218.0,-0.5194558501243591,-0.0435458533465862,9.881571769714355,2.0208351612091064,0.8971129059791565,1.2805836200714111
3994174551.0,-0.5011588335037231,-0.2875827252864837,9.738659858703612,1.9638177156448364,0.5538309812545776,1.2625000476837158
3994182884.0,-0.4937044084072113,-0.3718027174472809,9.878018379211426,2.040814161300659,0.0770732462406158,1.2891134023666382
3994191217.0,-0.4498519599437713,-0.1182322204113006,10.076909065246582,2.1386094093322754,0.1666718423366546,1.1860928535461426
3994199550.0,-0.4202719926834106,0.049487579613924,10.003722190856934,2.2547056674957275,0.6255892515182495,1.223451018333435
3994207883.0,-0.3790445923805237,-0.1037184223532676,9.78395938873291,2.043298959732056,0.5492205023765564,1.2039715051651
3994216216.0,-0.3797968924045563,-0.3183865845203399,9.809515953063965,1.9237185716629028,0.1315931230783462,1.2375389337539673
3994224549.0,-0.433514654636383,-0.2490628659725189,9.975234985351562,2.1347544193267822,0.3983397781848907,1.3083109855651855
3994232882.0,-0.5062207579612732,-0.0250422284007072,9.971866607666016,2.2126855850219727,0.7860496044158936,1.3284310102462769
3994241215.0,-0.4939747154712677,-0.0533726960420608,9.810239791870115,2.1524667739868164,0.9135317206382751,1.1969788074493408
3994249548.0,-0.4934293329715729,-0.2192437052726745,9.805622100830078,2.009539127349853,0.411748856306076,1.2625514268875122
3994257881.0,-0.490356981754303,-0.2466087639331817,9.978084564208984,2.0612030029296875,0.1107815578579902,1.1839923858642578
3994266214.0,-0.4529655873775482,-0.077795036137104,10.035264015197754,2.088533639907837,0.4587253928184509,1.2645493745803833
3994274547.0,-0.4051519334316253,-0.0612604543566703,9.874404907226562,2.180424690246582,0.675306499004364,1.2487068176269531
3994282880.0,-0.3714228272438049,-0.2392006516456604,9.763707160949709,2.0675811767578125,0.2870075106620788,1.2898560762405396
3994291213.0,-0.3841150999069214,-0.2708249688148498,9.9378662109375,2.040532350540161,-0.0133578237146139,1.2069170475006104
3994299546.0,-0.4153558909893036,-0.074086919426918,10.049001693725586,2.088789463043213,0.3415145874023437,1.233274221420288
3994307879.0,-0.4902427196502685,-0.001211360679008,9.91347885131836,2.1176700592041016,0.8942314386367798,1.252446532249451
3994316212.0,-0.4905150532722473,-0.2040348052978515,9.718770027160645,1.945183277130127,0.7469751834869385,1.308362364768982
3994324545.0,-0.4972736239433288,-0.3899386525154114,9.801587104797363,1.9551984071731567,0.1797991096973419,1.211028218269348
3994332878.0,-0.460181325674057,-0.2483915239572525,10.015324592590332,2.0913894176483154,-0.0065572438761591,1.3099761009216309
3994341211.0,-0.4453264474868774,0.0190529339015483,10.057076454162598,2.238876342773437,0.4393225610256195,1.288562536239624
3994349544.0,-0.3898190557956695,-0.0123348496854305,9.81691074371338,2.182908773422241,0.7102698683738708,1.2543418407440186
3994357877.0,-0.3735487759113312,-0.2624616920948028,9.75851058959961,1.9465409517288208,0.2901708483695984,1.2885369062423706
3994366210.0,-0.4061112403869629,-0.3236765563488006,9.948939323425291,2.027290105819702,0.0933895036578178,1.34141743183136
3994374543.0,-0.4352552592754364,-0.1156334206461906,10.030014991760254,2.134690523147583,0.617943525314331,1.2583248615264893
3994382876.0,-0.4893739521503448,-0.0072935540229082,9.894283294677734,2.216963052749634,0.907076895236969,1.365955829620361
3994391209.0,-0.4847777485847473,-0.1624239981174469,9.773476600646973,2.026726484298706,0.5656903982162476,1.2353746891021729
3994399542.0,-0.489928275346756,-0.277762234210968,9.894539833068848,1.998358368873596,0.2208587378263473,1.213820219039917
3994407875.0,-0.4976792335510254,-0.1588424891233444,10.079405784606934,2.091466426849365,0.2773637771606445,1.2214020490646362
3994416208.0,-0.4682882726192474,-0.0407436750829219,9.970813751220703,2.0526223182678223,0.6098749041557312,1.3076578378677368
3994424541.0,-0.4096688628196716,-0.1680866032838821,9.743267059326172,2.150110006332397,0.5888712406158447,1.228253722190857
3994432874.0,-0.3776484429836273,-0.2953445613384247,9.8302583694458,1.992082953453064,0.1247541233897209,1.1348769664764404
3994441207.0,-0.3839883208274841,-0.206299602985382,10.016275405883787,2.0752015113830566,0.080723263323307,1.2855144739151
3994449540.0,-0.4571940302848816,0.0033791963942348,10.045025825500488,2.0861642360687256,0.626741886138916,1.265304684638977
3994457873.0,-0.4785320460796356,-0.106626272201538,9.80722713470459,2.067875623703003,0.96951162815094,1.3366918563842771
3994466206.0,-0.5013047456741333,-0.3343387544155121,9.728583335876465,2.018068790435791,0.479754626750946,1.2498210668563845
3994474539.0,-0.4789280295372009,-0.3243396282196045,9.946255683898926,2.0559651851654053,-0.0369357280433177,1.231263518333435
3994482872.0,-0.4691038429737091,-0.0513558872044086,10.096503257751465,2.224916458129883,0.224547192454338,1.181008219718933
3994491205.0,-0.419899582862854,0.0617495886981487,9.95760440826416,2.152428150177002,0.6872426271438599,1.2173292636871338
3994499538.0,-0.3953188359737396,-0.1330948621034622,9.727593421936035,1.9847829341888428,0.4717245697975158,1.158698320388794
3994507871.0,-0.3956975042819977,-0.3535683155059814,9.843219757080078,1.9009475708007808,0.0967833846807479,1.2773178815841677
3994516204.0,-0.4212101399898529,-0.2104188352823257,10.0098295211792,2.1218960285186768,0.3176037073135376,1.2344396114349363
3994524537.0,-0.4754256308078766,0.0031003751792013,9.98048210144043,2.1591391563415527,0.8241509199142456,1.271426558494568
3994532870.0,-0.4642805457115173,-0.0508872121572494,9.789715766906738,2.1413886547088623,0.7751508355140686,1.2682247161865234
3994541203.0,-0.4724961519241333,-0.2427335977554321,9.81019115447998,2.01194715499878,0.3331643640995025,1.2242579460144043
3994549536.0,-0.4889765381813049,-0.237150028347969,9.993300437927246,2.011998176574707,0.1894428730010986,1.2599642276763916
3994557869.0,-0.4714683592319488,-0.0799355283379554,10.032411575317385,2.0400586128234863,0.4517454504966736,1.2725791931152344
3994566202.0,-0.4612603783607483,-0.0938914567232132,9.867948532104492,2.147433519363404,0.6771251559257507,1.317020058631897
3994574535.0,-0.3899435400962829,-0.2671299576759338,9.775155067443848,1.949307203292847,0.3302315175533294,1.2793924808502195
3994582868.0,-0.3737992346286773,-0.2860567569732666,9.948992729187012,2.049190282821656,0.1519180387258529,1.1983877420425415
3994591201.0,-0.4046720564365387,-0.0656373426318168,10.045658111572266,2.1815004348754883,0.4048458039760589,1.1462242603302002
3994599534.0,-0.4674064218997955,0.015121130272746,9.91291332244873,2.0695152282714844,0.8761221170425415,1.338945746421814
3994607867.0,-0.4933272004127502,-0.2319816350936889,9.7393159866333,1.91766095161438,0.7712447047233582,1.257121205329895
3994616200.0,-0.4762963056564331,-0.4040777683258056,9.834385871887209,2.0222952365875244,0.0635233074426651,1.3007166385650637
3994624533.0,-0.4716024696826935,-0.2252653390169143,10.063767433166504,2.2457540035247803,0.2000215649604797,1.1659857034683228
3994632866.0,-0.4681708812713623,0.0439347513020038,10.060830116271973,2.233125686645508,0.6510882377624512,1.2987442016601562
3994641199.0,-0.4402496814727783,-0.0223331749439239,9.763751029968262,2.117093324661255,0.6438650488853455,1.3446704149246216
3994649532.0,-0.3961048424243927,-0.2705844938755035,9.740391731262209,1.9375375509262085,0.1583472043275833,1.235886812210083
3994657865.0,-0.3886305391788482,-0.3030735552310943,9.934800148010254,1.9510619640350344,-0.007569006178528,1.2933396100997925
3994666198.0,-0.4291764795780182,-0.0928379073739051,10.081430435180664,2.2519781589508057,0.536259651184082,1.2430076599121094
3994674531.0,-0.4426116049289703,-0.0333625487983226,9.909852027893066,2.151352405548096,0.8844979405403137,1.2985007762908936
3994682864.0,-0.4807252883911133,-0.1722169369459152,9.76002311706543,2.008168935775757,0.5791506767272949,1.2096450328826904
3994691197.0,-0.5133018493652344,-0.2653621137142181,9.885825157165527,2.0895581245422363,0.1682086884975433,1.2954912185668943
3994699530.0,-0.5229575037956238,-0.1105477511882782,10.008015632629396,2.0871376991271973,0.166787102818489,1.330902934074402
3994707863.0,-0.47625732421875,-0.0262398682534694,9.93234634399414,2.123817205429077,0.591547966003418,1.290995955467224
3994716196.0,-0.4233238697052002,-0.1743756383657455,9.756083488464355,1.9738715887069704,0.396598070859909,1.1959670782089231
3994724529.0,-0.3751475512981415,-0.3191962242126465,9.838034629821776,1.958451747894287,-0.0523811094462871,1.1584677696228027
3994732862.0,-0.3773308098316192,-0.1761664748191833,10.045337677001951,2.11198353767395,0.1792099922895431,1.1770638227462769
3994741195.0,-0.4381908774375915,-0.00421395432204,10.030760765075684,2.189223051071167,0.8301061391830444,1.236911416053772
3994749528.0,-0.4631862640380859,-0.1118742525577545,9.825668334960938,2.0201690196990967,0.9816656708717346,1.324051022529602
3994757861.0,-0.4714298546314239,-0.3349834382534027,9.729108810424805,1.894249677658081,0.4314205646514892,1.2764084339141846
3994766194.0,-0.4882225692272186,-0.3120415508747101,9.979924201965332,2.053083658218384,0.1099875345826149,1.2457228899002075
3994774527.0,-0.4975207448005676,-0.0590349063277244,10.096450805664062,2.2173476219177246,0.3357770144939422,1.1987205743789673
3994782860.0,-0.4462788105010986,0.0224850643426179,9.899934768676758,2.2214457988739014,0.6888436675071716,1.1505402326583862
3994791193.0,-0.3968347907066345,-0.1825075447559356,9.727646827697754,1.9875366687774656,0.3402082920074463,1.3703104257583618
3994799526.0,-0.3818604052066803,-0.3234892189502716,9.859304428100586,2.030210018157959,-0.0021644029766321,1.2251288890838623
3994807859.0,-0.3974569439888,-0.1826981306076049,10.043500900268556,2.1133666038513184,0.3773617446422577,1.246427297592163
3994816192.0,-0.4486554563045501,-0.0006273107137531,9.995087623596191,2.145563840866089,0.9029402136802672,1.2877172231674194
3994824525.0,-0.4607533514499664,-0.115699864923954,9.813227653503418,2.052032947540283,0.7916334867477417,1.378609299659729
3994832858.0,-0.4875831604003906,-0.261237233877182,9.819493293762209,1.95736300945282,0.282371312379837,1.2581455707550049
3994841191.0,-0.4983118176460266,-0.2019967585802078,9.984612464904783,2.152095317840576,0.1831546127796173,1.23041832447052
3994849524.0,-0.4891970455646515,-0.0452926941215992,10.003782272338867,2.1540420055389404,0.6156253814697266,1.2070837020874023
3994857857.0,-0.4182647168636322,-0.0859897285699844,9.822509765625,2.1267242431640625,0.5486056804656982,1.3039438724517822
3994866190.0,-0.3838636875152588,-0.2685325443744659,9.773964881896973,1.9716302156448364,0.1744841784238815,1.322898507118225
3994874523.0,-0.3528754413127899,-0.2275079488754272,9.976747512817385,2.077301502227783,0.018813656643033,1.2139226198196411
3994882856.0,-0.4316733777523041,-0.0411214604973793,10.050492286682127,2.118476390838623,0.5936611294746399,1.2958498001098633
3994891189.0,-0.458003968000412,-0.0443513095378875,9.883092880249023,2.040276050567627,0.8918876051902771,1.3821697235107422
3994899522.0,-0.4804514646530151,-0.2876163423061371,9.764850616455078,1.9921728372573853,0.6718869805335999,1.251357913017273
3994907855.0,-0.4871351718902588,-0.350184828042984,9.908123970031738,2.035358190536499,0.2309379279613495,1.29884672164917
3994916188.0,-0.4774030148983001,-0.119289256632328,10.046635627746582,2.112969398498535,0.2340628802776336,1.184760808944702
3994924521.0,-0.4601866900920868,0.0478782355785369,9.975234985351562,2.1266472339630127,0.7031107544898987,1.222772240638733
3994932854.0,-0.3998184502124786,-0.1004189401865005,9.744515419006348,1.9792759418487549,0.6029207110404968,1.2251417636871338
3994941187.0,-0.3822353482246399,-0.319378525018692,9.798436164855955,1.9158679246902464,0.1412881165742874,1.2870384454727173
3994949520.0,-0.4262962639331817,-0.2500960826873779,9.999882698059082,2.166759490966797,0.204504057765007,1.2958498001098633
3994957853.0,-0.4728743731975555,-0.0422258079051971,10.013522148132324,2.1707682609558105,0.6882929801940918,1.2489373683929443
3994966186.0,-0.4877825379371643,-0.0615052543580532,9.827006340026855,2.1095244884490967,0.9391075968742372,1.2176880836486816
3994974519.0,-0.4850354492664337,-0.2154811769723892,9.7633695602417,2.0295565128326416,0.4018745422363281,1.1819560527801514
3994982852.0,-0.5041772723197937,-0.2366756200790405,9.973763465881348,2.0163400173187256,0.2054902166128158,1.2948637008666992
3994991185.0,-0.4865045547485351,-0.0751831084489822,10.01141357421875,2.0846915245056152,0.5085963010787964,1.2302262783050537
3994999518.0,-0.4225499927997589,-0.0826840028166771,9.853952407836914,2.063598155975342,0.5898318290710449,1.2281643152236938
3995007851.0,-0.360672652721405,-0.25116166472435,9.794708251953123,1.9941452741622925,0.3799103498458862,1.2499490976333618
3995016184.0,-0.3459111154079437,-0.2848607897758484,9.89626693725586,1.9784435033798216,-0.0079276049509644,1.2410608530044556
3995024517.0,-0.3985474705696106,-0.0780090019106864,10.03233528137207,2.096230745315552,0.3750052452087402,1.2160487174987793
3995032850.0,-0.4659592509269714,0.0132805686444044,9.928927421569824,2.1260454654693604,0.9042721390724182,1.2570313215255735
3995041183.0,-0.4969671964645386,-0.2072154730558395,9.743182182312012,1.9169950485229488,0.7463988661766052,1.256352782249451
3995049516.0,-0.5117670297622681,-0.3693130612373352,9.814908027648926,1.9733206033706665,0.1518667936325073,1.2594518661499023
3995057849.0,-0.5022336840629578,-0.2241417020559311,10.017633438110352,2.140991449356079,0.1188756674528122,1.267161846160889
3995066182.0,-0.4757402241230011,0.0108226807788014,10.024873733520508,2.2710602283477783,0.445995032787323,1.1951088905334473
3995074515.0,-0.4044102728366852,-0.0350592471659183,9.8485689163208,2.0900192260742188,0.5314441919326782,1.3160083293914795
3995082848.0,-0.3454098701477051,-0.262360006570816,9.794221878051758,1.9799034595489504,0.1438751518726349,1.289010763168335
3995091181.0,-0.3782761394977569,-0.2673024535179138,9.96191692352295,1.9796987771987915,0.059758011251688,1.2395751476287842
3995099514.0,-0.4316115081310272,-0.0752844214439392,10.048248291015623,2.14136290550232,0.6985898613929749,1.301984429359436
3995107847.0,-0.4442130029201507,-0.028315644711256,9.887957572937012,2.137418270111084,0.8485100269317627,1.346450686454773
3995116180.0,-0.4589496552944183,-0.1821610927581787,9.77054500579834,1.98528265953064,0.6279073357582092,1.3137285709381104
3995124513.0,-0.5084866881370544,-0.2405527532100677,9.904098510742188,2.067376136779785,0.1554528027772903,1.29523503780365
3995132846.0,-0.4979680180549621,-0.0814602822065353,10.04582691192627,2.0727293491363525,0.4810608923435211,1.3174424171447754
3995141179.0,-0.4776959419250488,-0.0227495916187763,9.901318550109863,2.1100494861602783,0.7810035943984985,1.2549949884414673
3995149512.0,-0.3867453932762146,-0.2026023715734481,9.75693130493164,1.9580161571502688,0.4226220548152923,1.2620774507522583
3995157845.0,-0.3659034669399261,-0.2915523052215576,9.885255813598633,1.9295587539672847,0.0939658135175705,1.2572875022888184
3995166178.0,-0.3733972012996673,-0.1453414559364318,10.071294784545898,2.163493633270264,0.3067688941955566,1.2449158430099487
3995174511.0,-0.442345529794693,0.0225517805665731,9.968535423278809,2.087764978408813,0.8188871145248413,1.4276349544525146
3995182844.0,-0.4773329496383667,-0.1236820444464683,9.774914741516112,2.0156612396240234,0.88182133436203,1.3242559432983398
3995191177.0,-0.486907809972763,-0.3216407299041748,9.796808242797852,1.964099645614624,0.2844973504543304,1.1891921758651731
3995199510.0,-0.489970326423645,-0.2450701296329498,9.985444068908691,2.081963539123535,0.1315675228834152,1.1563419103622437
3995207843.0,-0.4766036868095398,-0.0142133403569459,10.01404857635498,2.176685094833374,0.449312150478363,1.2833884954452517
3995216176.0,-0.420707643032074,-0.0092845354229211,9.858367919921877,2.006542444229126,0.6798273921012878,1.280327558517456
3995224509.0,-0.3814905285835266,-0.24212746322155,9.771672248840332,2.0355758666992188,0.4218024015426636,1.248194456100464
3995232842.0,-0.3788456618785858,-0.2894281148910522,9.91866683959961,2.0281221866607666,0.0572606176137924,1.2739111185073853
3995241175.0,-0.416878879070282,-0.1143184378743171,10.008716583251951,2.0898141860961914,0.5124640464782715,1.2579407691955566
3995249508.0,-0.4552911520004272,-0.0344702340662479,9.900832176208496,2.13370418548584,0.851353108882904,1.2951709032058716
3995257841.0,-0.4853784143924713,-0.1459247469902038,9.771374702453612,1.919069766998291,0.6711441874504089,1.3455413579940796
3995266174.0,-0.4868828356266022,-0.2722503542900085,9.865671157836914,2.005312919616699,0.1783775091171264,1.2488476037979126
3995274507.0,-0.4865588545799255,-0.1847754567861557,10.00019073486328,2.044515609741211,0.3249037861824035,1.246632099151611
3995282840.0,-0.4559703171253204,-0.0634187459945678,9.970830917358398,2.023921489715576,0.6337601542472839,1.2813647985458374
3995291173.0,-0.4089068174362182,-0.1884267479181289,9.80073356628418,2.0936179161071777,0.4029759764671325,1.2653816938400269
3995299506.0,-0.3550861477851867,-0.3011305034160614,9.839906692504885,1.9271764755249023,0.0817222148180008,1.2802377939224243
3995307839.0,-0.383331835269928,-0.2043242454528808,10.012774467468262,2.132641315460205,0.1528913825750351,1.280045986175537
3995316172.0,-0.4328063428401947,-0.0276622083038091,10.026899337768556,2.246138095855713,0.6824400424957275,1.2198011875152588
3995324505.0,-0.4501902163028717,-0.1276879757642746,9.814356803894045,1.982541799545288,0.9075124263763428,1.1749762296676636
3995332838.0,-0.4841473698616028,-0.3497983813285827,9.796968460083008,1.9871522188186648,0.4416406154632568,1.2974121570587158
3995341171.0,-0.4988071918487549,-0.3386388719081878,9.935657501220703,2.111279010772705,0.1227178126573562,1.2542009353637695
3995349504.0,-0.5191609263420105,-0.081653207540512,10.030123710632324,2.243422746658325,0.3741727471351623,1.31424081325531
3995357837.0,-0.4572708904743194,-0.0217384919524192,9.89748477935791,2.0780060291290283,0.716071605682373,1.258273720741272
3995366170.0,-0.4023643136024475,-0.2044325470924377,9.781271934509276,2.012036800384521,0.40579354763031,1.2842081785202026
3995374503.0,-0.4030613005161285,-0.3143664300441742,9.867992401123049,2.080836534500122,0.1118445619940757,1.176935791969299
3995382836.0,-0.4278416931629181,-0.1567485630512237,10.000750541687012,2.267705202102661,0.4127221703529358,1.318851351737976
3995391169.0,-0.4570346176624298,-0.0285390131175518,9.937400817871094,2.2401442527771,0.755620002746582,1.1969531774520874
3995399502.0,-0.4686558842658996,-0.1320030093193054,9.77786636352539,2.116734981536865,0.6106690168380737,1.33089017868042
3995407835.0,-0.4997004866600036,-0.2449060976505279,9.85632610321045,2.0568997859954834,0.1688234359025955,1.2577614784240725
3995416168.0,-0.5259779095649719,-0.1780123114585876,10.01780605316162,2.0288777351379395,0.334445059299469,1.268237590789795
3995424501.0,-0.5116618275642395,-0.0249920394271612,10.015379905700684,2.068016290664673,0.556955873966217,1.2756911516189575
3995432834.0,-0.4303184151649475,-0.0994454026222229,9.769867897033691,2.072998523712158,0.4951872229576111,1.1447643041610718
3995441167.0,-0.3640631437301636,-0.2524069547653198,9.827903747558594,1.996091604232788,0.177942082285881,1.18017578125
3995449500.0,-0.3656635582447052,-0.1740227788686752,10.012978553771973,2.109025001525879,0.181041419506073,1.2219527959823608
3995457833.0,-0.400185763835907,0.0024796593934297,10.038722038269045,2.1263527870178223,0.5540743470191956,1.252574443817139
3995466166.0,-0.4321133494377136,-0.0439896471798419,9.843295097351074,1.98734450340271,0.9166182279586792,1.2980142831802368
3995474499.0,-0.4595716893672943,-0.2978529036045074,9.782308578491213,1.96472716331482,0.5839918255805969,1.261872410774231
3995482832.0,-0.4909383356571197,-0.2708696722984314,9.922042846679688,2.058885097503662,0.1639951318502426,1.2341065406799316
3995491165.0,-0.4740827679634094,-0.0721404030919075,10.062447547912598,2.1398515701293945,0.3451389968395233,1.2243475914001465
3995499498.0,-0.4465865790843963,0.0503989681601524,9.918331146240234,2.1388144493103027,0.6124364137649536,1.3009214401245115
3995507831.0,-0.3933835625648498,-0.1151017993688583,9.737847328186035,1.9533158540725708,0.4660509824752807,1.2567111253738403
3995516164.0,-0.3704614341259002,-0.2786363363265991,9.857492446899414,2.00289249420166,0.1049799472093582,1.2490911483764648
3995524497.0,-0.4005447626113891,-0.1497045159339904,10.00196361541748,2.0596022605896,0.4851208031177521,1.2948123216629028
3995532830.0,-0.4456704556941986,-0.0105794994160532,9.943598747253418,2.192706823348999,0.8115614056587219,1.2553536891937256
3995541163.0,-0.4489665925502777,-0.0751340836286544,9.813610076904297,2.001624584197998,0.725190281867981,1.331709861755371
3995549496.0,-0.4871087074279785,-0.2295286506414413,9.851688385009766,1.90705668926239,0.3712526857852936,1.3301217555999756
3995557829.0,-0.511347234249115,-0.1541832536458969,9.958012580871582,1.9778287410736084,0.3229442834854126,1.3450803756713867
3995566162.0,-0.5090524554252625,-0.0545982159674167,9.97258186340332,2.034308195114136,0.6101054549217224,1.3872158527374268
3995574495.0,-0.4311114549636841,-0.1148961335420608,9.785045623779297,1.9149202108383176,0.5501425266265869,1.2459020614624023
3995582828.0,-0.3897460997104645,-0.2856866717338562,9.792136192321776,1.8608614206314087,0.1954237967729568,1.3000119924545288
3995591161.0,-0.3837211728096008,-0.2194247245788574,9.97403335571289,2.1136484146118164,0.0559030696749687,1.1925348043441772
3995599494.0,-0.4379231929779053,-0.029808472841978,10.026083946228027,2.049010992050171,0.6188655495643616,1.3164180517196655
3995607827.0,-0.4729848504066467,-0.0589793622493743,9.863978385925291,2.0184531211853027,0.9261595606803894,1.2420086860656738
3995616160.0,-0.4849454760551452,-0.2959437370300293,9.785627365112305,1.8898181915283203,0.492715448141098,1.3717191219329834
3995624493.0,-0.486315369606018,-0.3615753054618835,9.934664726257324,2.040109872817993,0.1409679502248764,1.3328752517700195
3995632826.0,-0.4834708273410797,-0.1691784709692001,10.058886528015137,2.156782627105713,0.279720276594162,1.2626410722732544
3995641159.0,-0.434592992067337,-0.0159906111657619,9.941527366638184,2.1555662155151367,0.6870763301849365,1.2349649667739868
3995649492.0,-0.377421110868454,-0.1936662346124649,9.804492950439451,1.966263771057129,0.3250062167644501,1.419886589050293
3995657825.0,-0.3754971325397491,-0.3260366022586822,9.862770080566406,1.983246207237244,0.1292878538370132,1.3118458986282349
3995666158.0,-0.4051338136196136,-0.2195866405963897,10.018664360046388,2.168424367904663,0.3203828632831573,1.3203370571136477
3995674491.0,-0.4308177232742309,-0.0600425153970718,9.949294090270996,2.245113611221313,0.7670695185661316,1.257710099220276
3995682824.0,-0.4631861448287964,-0.1188168451189994,9.85061264038086,2.114006996154785,0.6396259069442749,1.286615967750549
3995691157.0,-0.4887885749340057,-0.2842861115932464,9.828566551208496,1.9232831001281736,0.2997505962848663,1.2113354206085205
3995699490.0,-0.500411868095398,-0.2423422187566757,9.990631103515623,2.0792739391326904,0.2608169615268707,1.1576225757598877
3995707823.0,-0.4895676970481872,-0.1119674295186996,10.00607204437256,2.082181215286255,0.4008115530014038,1.2799946069717407
3995716156.0,-0.4244504570960998,-0.1129337847232818,9.831214904785156,2.0170955657958984,0.6261399984359741,1.2413684129714966
3995724489.0,-0.3903134167194366,-0.2865754663944244,9.802160263061523,2.090762138366699,0.3166432082653045,1.1837875843048096
3995732822.0,-0.3801186084747314,-0.2592317759990692,9.961111068725586,2.141375541687012,0.1122671961784362,1.28278648853302
3995741155.0,-0.4109596610069275,-0.0920777171850204,10.050230026245115,2.222559928894043,0.556891918182373,1.1912028789520264
3995749488.0,-0.4583308100700378,-0.0599009096622467,9.856314659118652,2.1286327838897705,0.9529648423194884,1.3138182163238523
3995757821.0,-0.4652969241142273,-0.2775282859802246,9.71234893798828,2.079517602920532,0.6068012714385986,1.1248490810394287
3995766154.0,-0.4807669818401336,-0.3500722646713257,9.869129180908203,2.141375780105591,0.179581418633461,1.2654457092285156
3995774487.0,-0.5001027584075928,-0.1289638429880142,10.011792182922363,2.189748287200928,0.3407846093177795,1.1573152542114258
3995782820.0,-0.4624419808387756,0.0423806570470333,9.942472457885742,2.246932029724121,0.6314165592193604,1.270824670791626
3995791153.0,-0.3942017257213592,-0.0863177552819252,9.777082443237305,2.136969804763794,0.5845680236816406,1.32131028175354
3995799486.0,-0.377912700176239,-0.2667688727378845,9.814824104309082,1.99714195728302,0.1226665824651718,1.229073405265808
3995807819.0,-0.4082107543945312,-0.2089097946882248,10.004576683044434,2.168168067932129,0.2565521895885467,1.243545413017273
3995816152.0,-0.436731219291687,-0.0019378706347197,10.011201858520508,2.109255313873291,0.6352329850196838,1.2415986061096191
3995824485.0,-0.4374676942825317,-0.0336471162736415,9.812738418579102,2.1348698139190674,0.8813090324401855,1.2595545053482056
3995832818.0,-0.4861460328102112,-0.1777630001306533,9.792094230651855,2.047217845916748,0.4745036959648132,1.2629354000091553
3995841151.0,-0.509829580783844,-0.1596491485834121,9.962864875793455,1.9905592203140257,0.2546311020851135,1.3007421493530271
3995849484.0,-0.5021386742591858,-0.0343468524515628,10.010933876037598,1.998166561126709,0.559005081653595,1.4151352643966677
3995857817.0,-0.4528858065605163,-0.0298648606985807,9.854507446289062,2.104875326156616,0.6577479839324951,1.3678001165390017
3995866150.0,-0.407040923833847,-0.2076579630374908,9.754913330078123,2.0656089782714844,0.290158063173294,1.2336328029632568
3995874483.0,-0.3635095357894897,-0.2181781232357025,9.94133186340332,2.092298984527588,0.0065572448074817,1.2899073362350464
3995882816.0,-0.3937017917633056,-0.0243398025631904,10.089886665344238,2.0984203815460205,0.3871847689151764,1.2220295667648315
3995891149.0,-0.4675664603710174,0.0480039231479167,9.951821327209473,2.087803602218628,0.8167483806610107,1.2590806484222412
3995899482.0,-0.4718045592308044,-0.1694298088550567,9.768421173095703,1.915752649307251,0.7467958927154541,1.2123346328735352
3995907815.0,-0.4861750900745392,-0.3182637691497803,9.862481117248535,1.9951313734054563,0.2179899364709854,1.211386799812317
3995916148.0,-0.4996581077575683,-0.151878610253334,10.050790786743164,2.1225619316101074,0.185331791639328,1.2185845375061035
3995924481.0,-0.4651373922824859,0.0365692302584648,10.017822265625,2.181859016418457,0.5927262306213379,1.1624637842178345
3995932814.0,-0.392809122800827,-0.0589470639824867,9.81156063079834,2.0696816444396973,0.649474561214447,1.2248470783233645
3995941147.0,-0.3866976797580719,-0.2643156051635742,9.82302474975586,1.873706817626953,0.2166195660829544,1.2894974946975708
3995949480.0,-0.3921708464622497,-0.2620192170143127,9.951627731323242,2.0800297260284424,0.1922860592603683,1.1573792695999146
3995957813.0,-0.4400881230831146,-0.0610611736774444,10.003738403320312,2.0944247245788574,0.7199905514717102,1.2949789762496948
3995966146.0,-0.4567573070526123,-0.0498550683259964,9.832767486572266,2.0846400260925293,0.8460637331008911,1.3146761655807495
3995974479.0,-0.47052863240242,-0.210271880030632,9.808161735534668,1.875346302986145,0.529113233089447,1.383655309677124
3995982812.0,-0.5208839774131775,-0.2602944076061249,9.954375267028809,2.031157732009888,0.2549384832382202,1.2052010297775269
3995991145.0,-0.5208864212036133,-0.1173089295625686,10.007740020751951,2.01259994506836,0.3913727104663849,1.3201704025268557
3995999478.0,-0.4780786633491516,-0.0945155546069145,9.86732292175293,1.996539831161499,0.711729884147644,1.2870255708694458
3996007811.0,-0.39390629529953,-0.2527987360954284,9.73134708404541,1.896208882331848,0.3784631490707397,1.2086973190307615
3996016144.0,-0.3586147427558899,-0.2767589688301086,9.86711311340332,1.999882817268372,0.1033022031188011,1.2685192823410034
3996024477.0,-0.3633787631988525,-0.1194807663559913,10.023483276367188,2.1672587394714355,0.255309909582138,1.1955828666687012
3996032810.0,-0.4151621162891388,-0.0469132177531719,9.93506145477295,2.126481056213379,0.8491758704185486,1.2486811876296997
3996041143.0,-0.4473364949226379,-0.2436734735965728,9.727303504943848,1.955198645591736,0.7685679793357849,1.2819029092788696
3996049476.0,-0.4826973676681518,-0.4225100576877594,9.858824729919434,1.9389206171035769,0.3729945123195648,1.3026888370513916
3996057809.0,-0.5169997215270996,-0.2548906803131103,10.010647773742676,2.0474228858947754,0.2199238389730453,1.2456459999084473
3996066142.0,-0.4865249991416931,-0.0412737056612968,10.021858215332031,2.1788876056671143,0.5623476505279541,1.1819816827774048
3996074475.0,-0.4241317212581634,-0.0649349987506866,9.830224990844728,2.035435199737549,0.5666893720626831,1.307914137840271
3996082808.0,-0.3912474513053894,-0.2972955405712127,9.782754898071287,1.9180961847305296,0.2932573854923248,1.2968486547470093
3996091141.0,-0.3678187131881714,-0.3188419938087463,9.950531959533691,2.031721353530884,0.1588595062494278,1.2596057653427124
3996099474.0,-0.3963927626609802,-0.1313402354717254,10.01494312286377,2.237172842025757,0.5643072128295898,1.2425978183746338
3996107807.0,-0.4203169047832489,-0.0673586726188659,9.89731788635254,2.222278356552124,0.9560129642486572,1.2328003644943235
3996116140.0,-0.4157286584377289,-0.2254263460636139,9.797142028808594,2.073536157608032,0.6130638718605042,1.249910593032837
3996124473.0,-0.4765492975711822,-0.2455895096063614,9.918128967285156,2.117003917694092,0.2562832534313202,1.2375646829605105
3996132806.0,-0.487539142370224,-0.1329567283391952,10.012975692749023,2.125187635421753,0.4585204124450683,1.3216689825057983
3996141139.0,-0.4646651446819305,-0.0618426762521266,9.895188331604004,2.163455009460449,0.6813130974769592,1.200231909751892
3996149472.0,-0.4199455678462982,-0.2114153206348419,9.745213508605955,2.008681297302246,0.474823921918869,1.2946844100952148
3996157805.0,-0.3947878181934356,-0.291453868150711,9.881646156311035,2.05496597290039,0.0653803348541259,1.1959670782089231
3996166138.0,-0.4014236330986023,-0.1010938212275505,10.036582946777344,2.1695127487182617,0.3015179634094238,1.3037773370742798
3996174471.0,-0.4578079879283905,0.0298017803579568,9.96361255645752,2.136918783187866,0.8645573258399963,1.3576313257217407
3996182804.0,-0.4771429002285003,-0.1290491372346878,9.784649848937988,2.0335140228271484,0.9182702898979188,1.330095887184143
3996191137.0,-0.4825903177261352,-0.3124565184116363,9.80981731414795,2.011665344238281,0.2856243550777435,1.233479142189026
3996199470.0,-0.4906785190105438,-0.2203324437141418,9.97335433959961,2.1204617023468018,0.1799528151750564,1.3026503324508667
3996207803.0,-0.4688455164432525,0.0268955752253532,10.026214599609377,2.237928628921509,0.5466974973678589,1.2938134670257568
3996216136.0,-0.4048601686954498,0.0306160822510719,9.855640411376951,2.172317743301392,0.6045984029769897,1.185247540473938
3996224469.0,-0.3865801692008972,-0.1996817588806152,9.75365161895752,2.003122568130493,0.291067361831665,1.2161256074905396
3996232802.0,-0.4016034305095672,-0.2621016502380371,9.92060089111328,2.039597272872925,0.1440160274505615,1.167125225067139
3996241135.0,-0.4426983296871185,-0.0788736715912818,10.028074264526367,2.108999490737915,0.5054713487625122,1.3610635995864868
3996249468.0,-0.4530985057353973,0.0296373721212148,9.897943496704102,2.219806671142578,0.9179885387420654,1.3498190641403198
3996257801.0,-0.4631074368953705,-0.1252727955579757,9.771899223327637,1.973013520240784,0.5257065892219543,1.313856601715088
3996266134.0,-0.4862986505031585,-0.2194225341081619,9.890380859375,2.01318907737732,0.0780849978327751,1.209183931350708
3996274467.0,-0.4679986238479614,-0.0995042845606803,10.012486457824709,2.1045680046081543,0.3632354736328125,1.234631896018982
3996282800.0,-0.4550144076347351,-0.0127030750736594,9.92588710784912,2.144411087036133,0.7758424282073975,1.2204543352127075
3996291133.0,-0.4043556451797485,-0.1391112357378006,9.767017364501951,2.007361888885498,0.5509877800941467,1.260578989982605
3996299466.0,-0.3635564148426056,-0.2765292227268219,9.84919261932373,1.926292896270752,0.1071443408727645,1.1008484363555908
3996307799.0,-0.3797084391117096,-0.1771945506334304,10.02953052520752,2.024369955062866,0.1655448079109192,1.248898983001709
3996316132.0,-0.442233681678772,0.0149861229583621,10.00449275970459,2.0935537815093994,0.7885854244232178,1.2266658544540403
3996324465.0,-0.4658567905426025,-0.108876921236515,9.773042678833008,1.914997220039368,0.9045411944389344,1.310936689376831
3996332798.0,-0.4796244204044342,-0.3308298587799072,9.771926879882812,1.959949970245361,0.5223766565322876,1.3452081680297852
3996341131.0,-0.4727915227413177,-0.3014881610870361,9.963019371032717,2.04206919670105,0.1448741108179092,1.1791256666183472
3996349464.0,-0.4715204834938049,-0.0518285892903804,10.066584587097168,2.06019139289856,0.3718034327030182,1.1818536520004272
3996357797.0,-0.4189096093177795,0.0084117325022816,9.89542293548584,2.108717441558838,0.7589498162269592,1.2814801931381226
3996366130.0,-0.3643002510070801,-0.2313012480735778,9.783095359802246,1.87788200378418,0.5620018839836121,1.2677252292633057
3996374463.0,-0.3668754994869232,-0.3517763316631317,9.889692306518556,1.951228380203247,0.1792099922895431,1.2013205289840698
3996382796.0,-0.4112716317176819,-0.191898837685585,10.009628295898438,2.130143880844116,0.35822793841362,1.213589787483215
3996391129.0,-0.449179470539093,-0.0361439995467662,9.94530200958252,2.162263870239258,0.8664398789405823,1.3155343532562256
3996399462.0,-0.4781407713890075,-0.1331083923578262,9.776114463806152,1.999229431152344,0.7020733952522278,1.2613346576690674
3996407795.0,-0.4973674118518829,-0.2874042987823486,9.857396125793455,1.987882375717163,0.2116632163524627,1.2477589845657349
3996416128.0,-0.5170885920524597,-0.2256959229707718,9.982989311218262,2.061613082885742,0.2820127606391907,1.234452486038208
3996424461.0,-0.4998221099376678,-0.0824566259980201,9.978626251220703,2.09716534614563,0.4903076291084289,1.23601496219635
3996432794.0,-0.4390858709812164,-0.1530311107635498,9.819458961486816,1.9220408201217647,0.6869738101959229,1.2213892936706543
3996441127.0,-0.3806975781917572,-0.3276801109313965,9.793971061706545,1.9270613193511963,0.2502510547637939,1.2912391424179075
3996449460.0,-0.3663873374462127,-0.2563464939594269,10.014162063598633,2.0237808227539062,0.0044312630780041,1.1744383573532104
3996457793.0,-0.4019211530685425,-0.0461405627429485,10.047490119934082,2.058014392852783,0.5618866682052612,1.252036690711975
3996466126.0,-0.4474456906318664,-0.082646757364273,9.856332778930664,2.13297438621521,0.9571784734725952,1.3905457258224487
3996474459.0,-0.4887993931770324,-0.3241530358791351,9.733443260192873,2.025266170501709,0.5491691827774048,1.292263746261597
3996482792.0,-0.4988919198513031,-0.374177873134613,9.88726806640625,2.1379690170288086,-0.0426348969340324,1.2115533351898191
3996491125.0,-0.5086795091629028,-0.1660553514957428,10.052047729492188,2.218794584274292,0.3021326661109924,1.2097218036651611
3996499458.0,-0.4708253443241119,0.0424906089901924,9.973590850830078,2.2487633228302,0.4997465312480926,1.2893822193145752
3996507791.0,-0.4360088109970093,-0.1226883754134178,9.76038646697998,2.076956033706665,0.5021927356719971,1.2634477615356443
3996516124.0,-0.3961223065853119,-0.3053664863109588,9.834467887878418,2.033065795898437,0.1574891358613968,1.3652516603469849
3996524457.0,-0.383148044347763,-0.2309127897024154,10.003439903259276,2.1366240978240967,0.1086427867412567,1.2699666023254397
3996532790.0,-0.4261622726917267,-0.0489327758550643,9.985750198364258,2.1508145332336426,0.7469239830970764,1.310232162475586
3996541123.0,-0.441599041223526,-0.0709076821804046,9.850096702575684,2.026892900466919,0.8315277099609375,1.3221683502197266
3996549456.0,-0.4573643207550049,-0.2289116829633712,9.81226634979248,2.076085090637207,0.2542981207370758,1.274718165397644
3996557789.0,-0.4859596490859985,-0.2020408660173416,9.94755744934082,2.078543901443481,0.2697435021400451,1.237628698348999
3996566122.0,-0.5080855488777161,-0.0547467991709709,10.039408683776855,2.080298662185669,0.4248761534690857,1.3256007432937622
3996574455.0,-0.4774191379547119,-0.0449301563203334,9.839899063110352,2.0442464351654053,0.7192476987838745,1.208582043647766
3996582788.0,-0.3925819098949432,-0.2262832820415496,9.738119125366213,1.9716556072235107,0.3334205150604248,1.29935884475708
3996591121.0,-0.3794766962528229,-0.268710732460022,9.931371688842772,2.087073564529419,0.1377789825201034,1.2206718921661377
3996599454.0,-0.3814650475978851,-0.0578931830823421,10.059064865112305,2.177107572555542,0.3699463605880737,1.1112992763519287
3996607787.0,-0.4342750012874603,0.0340636596083641,9.93956470489502,2.1223957538604736,0.8344605565071106,1.2977707386016846
3996616120.0,-0.4754784703254699,-0.160904586315155,9.726354598999023,2.032041311264038,0.7929527163505554,1.275396704673767
3996624453.0,-0.4783973693847656,-0.3453704416751861,9.820940971374512,2.000907182693481,0.1843200325965881,1.221773386001587
3996632786.0,-0.4858607053756714,-0.2084967941045761,10.054281234741213,2.110408067703247,0.1910821944475174,1.267366647720337
3996641119.0,-0.4816039800643921,0.0404656082391738,10.065840721130373,2.144218921661377,0.7170961499214172,1.2971049547195437
3996649452.0,-0.435645580291748,-0.0206590071320533,9.79350757598877,2.100623369216919,0.6696841716766357,1.315854549407959
3996657785.0,-0.375617504119873,-0.2378938198089599,9.750038146972656,2.0186710357666016,0.2879936695098877,1.3505489826202393
3996666118.0,-0.3987202942371368,-0.2657685577869415,9.948272705078123,1.9867807626724243,0.1043395921587944,1.3156623840332031
3996674451.0,-0.4396716058254242,-0.0739563256502151,10.027527809143066,2.00752854347229,0.5689818263053894,1.2089533805847168
3996682784.0,-0.4765304923057556,-0.0023280996829271,9.881636619567873,2.0836284160614014,1.015668511390686,1.2079546451568604
3996691117.0,-0.472783625125885,-0.1830199062824249,9.769013404846191,2.0526225566864014,0.518227219581604,1.2457996606826782
3996699450.0,-0.503407895565033,-0.253644585609436,9.879880905151367,1.93586003780365,0.1528785675764084,1.2277288436889648
3996707783.0,-0.5213740468025208,-0.1110382080078125,10.049068450927734,2.0558881759643555,0.3301034867763519,1.2581071853637695
3996716116.0,-0.4702596664428711,-0.0266013462096452,9.95083999633789,2.0036606788635254,0.6290983557701111,1.2870512008666992
3996724449.0,-0.4154134690761566,-0.1786438673734665,9.766274452209473,1.9658797979354856,0.4638098180294037,1.2791621685028076
3996732782.0,-0.3468486368656158,-0.3124126493930816,9.836649894714355,1.918723940849304,0.0892271846532821,1.1915100812911987
3996741115.0,-0.3873613774776459,-0.2026407867670059,10.05740737915039,2.018594026565552,0.1711671501398086,1.253214955329895
3996749448.0,-0.457118809223175,-0.0234481636434793,9.985204696655272,2.0165703296661377,0.8747389316558838,1.2599769830703735
3996757781.0,-0.4715569019317627,-0.1329624205827713,9.809333801269531,1.961012840270996,0.9027864336967468,1.196043848991394
3996766114.0,-0.4871048629283905,-0.3505147993564605,9.77064037322998,1.9181474447250368,0.2590110898017883,1.2113995552062988
3996774447.0,-0.4908159375190735,-0.3167485892772674,10.007887840270996,2.005722761154175,0.0116544784978032,1.3067615032196045
3996782780.0,-0.5053485631942749,-0.0797107964754104,10.066415786743164,2.1475486755371094,0.3951764106750488,1.2407280206680298
3996791113.0,-0.4383320212364197,0.0050615603104233,9.893449783325195,2.06291937828064,0.6541876196861267,1.313216209411621
3996799446.0,-0.3653629720211029,-0.2197575867176056,9.735757827758787,2.026047706604004,0.31537526845932,1.3176347017288208
3996807779.0,-0.3573178648948669,-0.342508316040039,9.878236770629885,1.9769833087921145,0.099921129643917,1.272412657737732
3996816112.0,-0.4131560027599334,-0.1623464971780777,10.034931182861328,2.037817478179932,0.3373138904571533,1.1890640258789062
3996824445.0,-0.4219258725643158,-0.0318952649831771,9.982934951782228,2.14629340171814,0.7997276186943054,1.2633452415466309
3996832778.0,-0.4670084118843078,-0.1523853987455368,9.793971061706545,2.1276466846466064,0.7637397050857544,1.2054059505462646
3996841111.0,-0.4891048967838287,-0.2945833504199981,9.82062816619873,1.9652522802352903,0.2841387391090393,1.3209518194198608
3996849444.0,-0.4829789996147156,-0.2147472947835922,9.998319625854492,1.992557048797608,0.1372666805982589,1.288703441619873
3996857777.0,-0.4834553003311157,-0.0386001355946064,10.020689964294434,2.199059009552002,0.6933005452156067,1.2507431507110596
3996866110.0,-0.4195457994937897,-0.1124926581978797,9.822343826293944,2.0787487030029297,0.7522132992744446,1.3088873624801636
3996874443.0,-0.3645406365394592,-0.2940545082092285,9.782687187194824,2.0601401329040527,0.19747294485569,1.2639986276626587
3996882776.0,-0.3561988472938537,-0.2320215553045272,10.00278091430664,2.0676193237304688,0.0453243851661682,1.261309027671814
3996891109.0,-0.4069482982158661,-0.0374407321214675,10.040122032165527,2.1730732917785645,0.5522301197052002,1.271503448486328
3996899442.0,-0.4725750386714935,-0.056685946881771,9.872105598449709,2.0951547622680664,0.960725963115692,1.30326509475708
3996907775.0,-0.4949616193771362,-0.278410255908966,9.742559432983398,1.9928001165390008,0.6700555086135864,1.248425006866455
3996916108.0,-0.479323536157608,-0.3396113216876983,9.89634132385254,2.135202646255493,0.1229995712637901,1.1741565465927124
3996924441.0,-0.5070078372955322,-0.1294693648815155,10.058012008666992,2.232792615890503,0.3349573314189911,1.2794053554534912
3996932774.0,-0.4899422228336334,0.0525563545525074,10.001272201538086,2.178285837173462,0.6767280697822571,1.3718472719192505
3996941107.0,-0.4275827705860138,-0.0899002775549888,9.748820304870604,2.0690667629241943,0.5956334471702576,1.330019235610962
3996949440.0,-0.3725478053092956,-0.296232134103775,9.819572448730469,2.0095646381378174,0.089214377105236,1.1925987005233765
3996957773.0,-0.3974695205688476,-0.2268082499504089,9.990416526794434,2.132244110107422,0.2094092071056366,1.2603868246078491
3996966106.0,-0.4440982639789581,-0.0005195882404223,9.995502471923828,2.205283164978028,0.9134036898612976,1.2148319482803345
3996974439.0,-0.4615041017532348,-0.046263687312603,9.810455322265623,2.1172471046447754,0.9026967883110046,1.2528433799743652
3996982772.0,-0.5030803680419922,-0.1943612098693847,9.774845123291016,2.0931825637817383,0.4024380445480346,1.2693520784378052
3996991105.0,-0.510934591293335,-0.218519240617752,9.958770751953123,2.107232093811035,0.1614721417427063,1.2188022136688232
3996999438.0,-0.5178589224815369,-0.0626342147588729,10.031400680541992,2.0189526081085205,0.3613016009330749,1.2985776662826538
3997007771.0,-0.4523507356643677,-0.0429378226399421,9.893771171569824,2.1055796146392822,0.6490774750709534,1.391121745109558
3997016104.0,-0.4015210270881653,-0.2079494744539261,9.755446434020996,1.970861554145813,0.3646698892116546,1.167752981185913
3997024437.0,-0.3642236888408661,-0.2666105031967163,9.91400909423828,1.9380755424499512,0.0509979464113712,1.2201340198516846
3997032770.0,-0.389291912317276,-0.0850673243403434,10.055556297302246,2.132807970046997,0.3236742913722992,1.3524701595306396
3997041103.0,-0.4515029489994049,-0.0172801427543163,9.955876350402832,2.0006766319274902,0.846012532711029,1.2455946207046509
3997049436.0,-0.4672414660453796,-0.1865068674087524,9.744765281677246,1.831392288208008,0.8301830291748047,1.349921464920044
3997057769.0,-0.4850148856639862,-0.3631453812122345,9.81710147857666,1.9780336618423464,0.1929776519536972,1.2670080661773682
3997066102.0,-0.4755167961120605,-0.2083912193775177,10.014690399169922,2.09857439994812,0.0295076016336679,1.1957237720489502
3997074435.0,-0.4661783874034881,0.0035405685193836,10.041220664978027,2.2007622718811035,0.3981604874134063,1.249705791473389
3997082768.0,-0.3958642184734344,-0.0142797492444515,9.81890869140625,2.1589980125427246,0.605315625667572,1.308631181716919
3997091101.0,-0.3876779675483703,-0.2702106833457947,9.749055862426758,1.9938888549804688,0.2708193361759186,1.2743594646453855
3997099434.0,-0.399381160736084,-0.3287099003791809,9.914737701416016,2.068042039871216,0.0647015571594238,1.2628328800201416
3997107767.0,-0.4262397289276123,-0.1147941723465919,10.051547050476074,2.1731626987457275,0.579189121723175,1.270107388496399
3997116100.0,-0.4651228487491607,-0.0097733875736594,9.898308753967283,2.148791074752808,0.981780767440796,1.312793493270874
3997124433.0,-0.4753175675868988,-0.1688939183950424,9.748856544494627,1.9942092895507808,0.5936228036880493,1.3266764879226685
3997132766.0,-0.4880492091178894,-0.2710492312908172,9.871081352233888,1.9888557195663448,0.1355120986700058,1.2320573329925537
3997141099.0,-0.4782100319862366,-0.1693419069051742,10.016087532043455,2.0445666313171387,0.1844608932733535,1.1777551174163818
3997149432.0,-0.4573836624622345,-0.0639941841363906,9.945451736450195,2.047281742095948,0.694337785243988,1.1672790050506592
3997157765.0,-0.3791952729225158,-0.1588442176580429,9.77440357208252,1.9835025072097776,0.5488234162330627,1.1933544874191284
3997166098.0,-0.3663558661937713,-0.318768173456192,9.86884880065918,1.954327821731568,0.1447588503360748,1.278316855430603
3997174431.0,-0.3935034275054931,-0.2006457895040512,10.015223503112791,2.039968729019165,0.1169289872050285,1.1596076488494873
3997182764.0,-0.4458149373531341,-0.0047620674595236,10.029154777526855,2.082757472991944,0.6851935982704163,1.3288025856018066
3997191097.0,-0.4902698993682861,-0.1193244308233261,9.81012725830078,2.1524791717529297,0.9525549411773682,1.2737318277359009
3997199430.0,-0.4976816475391388,-0.3281473815441131,9.79011344909668,2.0090525150299072,0.45529305934906,1.1851706504821775
3997207763.0,-0.4940611720085144,-0.3421593904495239,9.92092514038086,2.147625684738159,0.1176974177360534,1.1646792888641355
3997216096.0,-0.4850017130374908,-0.0847202315926551,10.079590797424316,2.241360664367676,0.4578928351402282,1.2035489082336426
3997224429.0,-0.4407286345958709,0.0334268733859062,9.912579536437988,2.208805084228516,0.7539677619934082,1.1557525396347046
3997232762.0,-0.3908333778381347,-0.1869941502809524,9.730499267578123,2.07662296295166,0.4050122797489166,1.340085506439209
3997241095.0,-0.3894785344600677,-0.3268529176712036,9.853286743164062,2.050803899765014,0.1010993868112564,1.293647050857544
3997249428.0,-0.4143208563327789,-0.1973339170217514,10.08234405517578,2.09473204612732,0.3556024432182312,1.2648820877075195
3997257761.0,-0.4459048509597778,-0.0081409607082605,9.988423347473145,2.245356798171997,0.8949998617172241,1.196223258972168
3997266094.0,-0.4819326996803283,-0.0799956545233726,9.793364524841309,2.1779656410217285,0.8666191697120667,1.263870358467102
3997274427.0,-0.5087000727653503,-0.2382408678531646,9.803738594055176,2.0411856174468994,0.3002628982067108,1.2797768115997314
3997282760.0,-0.5104643106460571,-0.2061370611190796,9.98777675628662,2.030171632766724,0.1336679011583328,1.2047783136367798
3997291093.0,-0.4789682924747467,-0.0597770176827907,10.00218105316162,2.1304385662078857,0.4659741222858429,1.1925987005233765
3997299426.0,-0.4222221672534942,-0.0797583982348442,9.81698513031006,2.0881237983703613,0.5941990613937378,1.2300724983215332
3997307759.0,-0.3669095933437347,-0.2651352286338806,9.814353942871094,2.089493751525879,0.2201671153306961,1.2761138677597046
3997316092.0,-0.3589916825294494,-0.2338040620088577,9.948952674865724,2.08250093460083,0.0086448034271597,1.2434812784194946
3997324425.0,-0.4225770831108093,-0.0307704005390405,10.045125961303713,2.140927314758301,0.6377047300338745,1.2572104930877686
3997332758.0,-0.4664349257946014,-0.0188519116491079,9.865114212036133,2.0755343437194824,0.9001227021217346,1.2372572422027588
3997341091.0,-0.4655771255493164,-0.2344488352537155,9.748428344726562,1.960423707962036,0.6651119589805603,1.3133058547973633
3997349424.0,-0.4982374906539917,-0.3316951990127563,9.85843276977539,2.137648820877075,0.1763412058353424,1.278470516204834
3997357757.0,-0.4848609864711761,-0.1318854391574859,10.070700645446776,2.1099469661712646,0.2016096413135528,1.2498209476470947
3997366090.0,-0.4487808644771576,0.0634304881095886,10.009437561035156,2.18025803565979,0.6573894619941711,1.1318418979644775
3997374423.0,-0.3954198956489563,-0.0733920782804489,9.76905632019043,2.026841878890991,0.5008735656738281,1.2362838983535769
3997382756.0,-0.3825595378875732,-0.3128043711185455,9.782966613769531,1.959348201751709,0.1453479677438736,1.185209035873413
3997391089.0,-0.3861686885356903,-0.2619193494319916,9.972211837768556,2.0830392837524414,0.1761362999677658,1.2474772930145264
3997399422.0,-0.4375058710575104,-0.0284260939806699,10.005247116088867,2.167130947113037,0.6320440769195557,1.2702996730804443
3997407755.0,-0.4631794989109039,-0.0233818087726831,9.84837818145752,2.0952956676483154,0.8537994027137756,1.2779711484909058
3997416088.0,-0.484905868768692,-0.1914335936307907,9.77916431427002,1.940303921699524,0.4203808605670929,1.262781858444214
3997424421.0,-0.5197680592536926,-0.2298132479190826,9.917414665222168,1.9394328594207764,0.2420032918453216,1.224027395248413
3997432754.0,-0.5000388026237488,-0.0956608280539512,10.036437034606934,1.98218321800232,0.4675878584384918,1.328969120979309
3997441087.0,-0.4821928143501282,-0.0589128136634826,9.906172752380373,2.08339786529541,0.6725146174430847,1.3315688371658323
3997449420.0,-0.3996898233890533,-0.2135520726442337,9.730690002441406,2.0581040382385254,0.3707404732704162,1.2460558414459229
3997457753.0,-0.3823063969612121,-0.2653011083602905,9.87978172302246,1.997475028038025,0.0269974060356616,1.2372444868087769
3997466086.0,-0.3934484422206878,-0.0947975143790245,10.034685134887695,2.1082565784454346,0.328041523694992,1.3378572463989258
3997474419.0,-0.437090665102005,0.0057274922728538,9.959518432617188,2.0935921669006348,0.7764315009117126,1.3014720678329468
3997482752.0,-0.4463966190814972,-0.2066884040832519,9.77315902709961,2.0186450481414795,0.8750720024108887,1.1979650259017944
3997491085.0,-0.4936971366405487,-0.3949853777885437,9.809581756591797,2.009500503540039,0.189301997423172,1.208723068237305
3997499418.0,-0.5035796761512756,-0.2700900733470917,10.04373550415039,2.107513666152954,0.0897266566753387,1.2811471223831177
3997507751.0,-0.474254846572876,-0.0057893171906471,10.072118759155272,2.1986746788024902,0.5375915765762329,1.1655757427215576
3997516084.0,-0.4321322441101074,0.0035503057297319,9.864309310913086,2.097933769226074,0.6869737505912781,1.2600408792495728
3997524417.0,-0.4025521874427795,-0.2455959320068359,9.75433349609375,1.962024807929993,0.2483299970626831,1.2501282691955566
3997532750.0,-0.3940486013889313,-0.3159199357032776,9.940281867980955,2.0356273651123047,-0.0216184146702289,1.240254282951355
3997541083.0,-0.4297614693641662,-0.1349546462297439,10.071579933166504,2.1393394470214844,0.5165750980377197,1.2744234800338743
3997549416.0,-0.4429213404655456,-0.0410216003656387,9.938323974609377,2.2377493381500244,0.8235873579978943,1.2359765768051147
3997557749.0,-0.4644189178943634,-0.1662050038576126,9.815052032470703,1.969132661819458,0.5500784516334534,1.211207389831543
3997566082.0,-0.4877910017967224,-0.2644834518432617,9.91416358947754,1.9512540102005005,0.0822344943881034,1.160978078842163
3997574415.0,-0.5062344670295715,-0.1355690509080886,10.034018516540527,2.0206429958343506,0.2695769965648651,1.153652310371399
3997582748.0,-0.480415016412735,-0.0238424837589263,9.980945587158203,2.033552646636963,0.6003080606460571,1.2362582683563232
3997591081.0,-0.4194386005401611,-0.1689625233411789,9.78244972229004,2.0272257328033447,0.5858872532844543,1.258004665374756
3997599414.0,-0.3690731823444366,-0.3165332376956939,9.840426445007324,2.0316827297210693,0.0909433364868164,1.2203774452209473
3997607747.0,-0.3884795606136322,-0.1930732280015945,10.04239273071289,2.117016553878784,0.1865740865468979,1.2061742544174194
3997616080.0,-0.4822199642658233,0.0045711924321949,10.060258865356444,2.181436061859131,0.7219883799552917,1.215113639831543
3997624413.0,-0.4994107782840729,-0.0856309533119201,9.786664009094238,2.032489776611328,1.0034377574920654,1.1847865581512451
3997632746.0,-0.4729244112968445,-0.3595882356166839,9.731035232543944,1.9964247941970823,0.466153472661972,1.2255643606185913
3997641079.0,-0.4757387638092041,-0.344828337430954,9.914252281188965,2.07454800605774,-0.0666610524058342,1.1792025566101074
3997649412.0,-0.4692162275314331,-0.1026216968894004,10.071195602416992,2.129298448562622,0.266605794429779,1.3091051578521729
3997657745.0,-0.4167572259902954,0.0239084418863058,9.929770469665527,2.158447504043579,0.7089123129844666,1.2130005359649658
3997666078.0,-0.3807503581047058,-0.1573539525270462,9.734590530395508,2.0275075435638428,0.3356873691082001,1.2253210544586182
3997674411.0,-0.3825498819351196,-0.326195478439331,9.832420349121094,2.015456199645996,0.1787617206573486,1.2061229944229126
3997682744.0,-0.4333046376705169,-0.1872073113918304,10.03200626373291,2.082667827606201,0.3442552983760834,1.2562757730484009
3997691077.0,-0.4839187860488891,-0.0057681063190102,9.974624633789062,2.21937108039856,0.850008487701416,1.3531489372253418
3997699410.0,-0.4912706315517425,-0.1027716994285583,9.770116806030272,2.1024036407470703,0.7335277199745178,1.2175854444503784
3997707743.0,-0.4893399775028229,-0.2576422989368438,9.821060180664062,2.0122671127319336,0.24667789041996,1.219275951385498
3997716076.0,-0.4787119626998901,-0.2290990352630615,9.93575668334961,2.0598456859588623,0.1641616523265838,1.202588438987732
3997724409.0,-0.4589530527591705,-0.024124713614583,10.02413558959961,2.134126901626587,0.4120049774646759,1.262474536895752
3997732742.0,-0.4220838546752929,-0.0999434366822242,9.835182189941406,2.127697706222534,0.7275466918945312,1.2839391231536863
3997741075.0,-0.3706921935081482,-0.2641973197460174,9.79562759399414,1.924371838569641,0.1428249478340149,1.137989163398743
3997749408.0,-0.3834055364131927,-0.2585139274597168,9.927321434020996,2.0543127059936523,0.0683900043368339,1.2626280784606934
3997757741.0,-0.4441182911396026,-0.0713643506169319,10.051398277282717,2.268512010574341,0.5812510848045349,1.2182002067565918
3997766074.0,-0.4874783456325531,-0.0108690690249204,9.877283096313477,2.0560545921325684,0.9736995100975036,1.2567368745803833
3997774407.0,-0.4976803660392761,-0.2424144595861435,9.709625244140623,2.0202457904815674,0.5844143629074097,1.3074274063110352
3997782740.0,-0.5012028217315674,-0.3783717155456543,9.85270881652832,2.0779805183410645,0.0296100582927465,1.2214149236679075
3997791073.0,-0.4944100081920624,-0.1686557382345199,10.059964179992676,2.1382765769958496,0.1348845660686493,1.2108362913131714
3997799406.0,-0.4337383210659027,0.0285843126475811,10.025569915771484,2.2278618812561035,0.661679744720459,1.1872069835662842
3997807739.0,-0.3693884909152984,-0.0706483796238899,9.792950630187988,2.076815366744995,0.6859365105628967,1.2181745767593384
3997816072.0,-0.3603160977363586,-0.2991069853305816,9.817604064941406,1.9634335041046145,0.1519948691129684,1.2200827598571775
3997824405.0,-0.3747349679470062,-0.2668097019195556,9.983388900756836,2.102877140045166,0.1436702311038971,1.0525400638580322
3997832738.0,-0.4655837416648865,-0.0256974752992391,10.024808883666992,2.207972764968872,0.6863590478897095,1.3277138471603394
3997841071.0,-0.4858095347881317,-0.0425209701061248,9.85865592956543,2.099112272262573,0.9494941830635072,1.2545084953308103
3997849404.0,-0.4856751263141632,-0.204474002122879,9.792433738708496,1.9784437417984009,0.4569323360919952,1.3068896532058716
3997857737.0,-0.5021197199821472,-0.2646663784980774,9.938758850097656,2.008821725845337,0.1580654233694076,1.209145426750183
3997866070.0,-0.4999650120735168,-0.1118655055761337,10.07028102874756,2.12516188621521,0.2394418865442276,1.3001786470413208
3997874403.0,-0.4680732488632202,-0.0409234128892421,9.916439056396484,2.0387136936187744,0.6238859295845032,1.2419061660766602
3997882736.0,-0.3913750648498535,-0.2178117930889129,9.734325408935549,2.0731394290924072,0.4008628129959106,1.234017014503479
3997891069.0,-0.3612637519836426,-0.2913950383663177,9.856143951416016,1.99883246421814,0.0651882365345954,1.282914638519287
3997899402.0,-0.3694191575050354,-0.1195764318108558,10.044817924499512,2.0975499153137207,0.3375187814235687,1.2420085668563845
3997907735.0,-0.4792321324348449,-0.0110294427722692,9.94139289855957,2.1390576362609863,0.8530437350273132,1.3683509826660156
3997916068.0,-0.4696284234523773,-0.1653859168291092,9.762985229492188,2.026611328125,0.7981268167495728,1.159415602684021
3997924401.0,-0.4890951216220855,-0.3721870481967926,9.773401260375977,2.001227378845215,0.3572801649570465,1.183057427406311
3997932734.0,-0.4834229052066803,-0.2666211128234863,9.986416816711426,2.0956926345825195,0.1859209239482879,1.2971432209014893
3997941067.0,-0.4918894469738006,-0.0340980924665927,10.039363861083984,2.226940393447876,0.4637842178344726,1.3584895133972168
3997949400.0,-0.4184836745262146,0.0005375292967073,9.84695529937744,2.033757448196411,0.734270453453064,1.2305206060409546
3997957733.0,-0.3883981108665466,-0.2431477755308151,9.753580093383787,1.980953574180603,0.301018476486206,1.29170024394989
3997966066.0,-0.4067072570323944,-0.3023872673511505,9.929966926574709,2.051111459732056,0.1395463645458221,1.2351185083389282
3997974399.0,-0.4413380324840545,-0.1050241887569427,10.046648025512695,2.073907852172852,0.4556004106998443,1.2715418338775637
3997982732.0,-0.4581997990608215,-0.0123313767835497,9.916460990905762,2.124316692352295,0.7716032862663269,1.3083239793777466
3997991065.0,-0.4567249715328216,-0.1647728085517883,9.805130004882812,1.9923008680343628,0.5453271269798279,1.2202621698379517
3997999398.0,-0.489554226398468,-0.2537525594234466,9.837441444396973,2.003007650375366,0.2678480744361877,1.2605533599853516
3998007731.0,-0.5046880841255188,-0.1514324396848678,10.028400421142578,2.0361781120300293,0.4038596749305725,1.2300724983215332
3998016064.0,-0.4841935038566589,-0.0471412278711795,9.972208976745604,2.1224470138549805,0.6479120850563049,1.3477956056594849
3998024397.0,-0.4005320072174072,-0.1716421246528625,9.760051727294922,2.027008056640625,0.4737096428871155,1.130304932594299
3998032730.0,-0.3553636372089386,-0.2977446019649505,9.865524291992188,2.002469778060913,-0.0139213381335139,1.269390344619751
3998041063.0,-0.3864675164222717,-0.1938623487949371,10.03402614593506,2.073754072189331,0.1183377653360366,1.2548670768737793
3998049396.0,-0.4380870461463928,0.0066918479278683,10.02219009399414,2.0415568351745605,0.7396622896194458,1.2114765644073486
3998057729.0,-0.4858565330505371,-0.1240492984652519,9.83930778503418,2.029223680496216,0.9745319485664368,1.3211182355880735
3998066062.0,-0.4782038927078247,-0.3359422087669372,9.76453685760498,2.0094752311706543,0.4044871926307678,1.204470992088318
3998074395.0,-0.5027319192886353,-0.3209180831909179,9.982207298278809,2.10254454612732,0.1378814280033111,1.1902422904968262
3998082728.0,-0.4794372022151947,-0.0624368302524089,10.04727554321289,2.2092278003692627,0.3408486545085907,1.3484102487564087
3998091061.0,-0.4288091659545898,0.0262672193348407,9.911100387573242,2.129081010818481,0.6890741586685181,1.1971324682235718
3998099394.0,-0.3862474858760834,-0.187923178076744,9.74991226196289,1.9214133024215696,0.4494401812553406,1.2193272113800049
3998107727.0,-0.403834581375122,-0.3314035832881927,9.858248710632324,1.958566784858704,0.0610643327236175,1.1947503089904783
3998116060.0,-0.4145947098731994,-0.1929369568824768,10.017308235168455,2.118758201599121,0.4246584177017212,1.1891409158706665
3998124393.0,-0.4723957180976867,-0.0217792559415102,9.967548370361328,2.172279119491577,0.9861096143722534,1.2417396306991575
3998132726.0,-0.5005639791488647,-0.1094483435153961,9.754709243774414,2.043158054351806,0.7102187871932983,1.2792903184890747
3998141059.0,-0.4885624647140503,-0.2624792456626892,9.829157829284668,2.0422613620758057,0.2520825266838074,1.30083167552948
3998149392.0,-0.4886455833911896,-0.211210086941719,10.001566886901855,2.085472583770752,0.1382272094488144,1.2564678192138672
3998157725.0,-0.450104683637619,-0.0381789207458496,9.99049949645996,2.096128225326538,0.6059431433677673,1.324371099472046
3998166058.0,-0.4042297303676605,-0.0890835747122764,9.787446022033691,2.084179162979126,0.5998597741127014,1.2283562421798706
3998174391.0,-0.3675679564476013,-0.2835980951786041,9.773722648620604,1.9191209077835083,0.3038104176521301,1.1806625127792358
3998182724.0,-0.3858800828456878,-0.262024462223053,9.97265338897705,2.074202299118042,0.2039021104574203,1.2567239999771118
3998191057.0,-0.4395200610160827,-0.0461703725159168,10.049365043640137,2.172791719436645,0.5007966756820679,1.2935317754745483
3998199390.0,-0.4891177117824554,-0.0169443879276514,9.859954833984377,2.1011228561401367,0.9492507576942444,1.2593622207641602
3998207723.0,-0.5029847621917725,-0.2607244551181793,9.721831321716309,1.9491279125213623,0.5721835494041443,1.1965817213058472
3998216056.0,-0.4848853945732116,-0.3253683447837829,9.87514591217041,2.024305582046509,0.0610002987086772,1.2193272113800049
3998224389.0,-0.4451756179332733,-0.1496941447257995,10.039997100830078,2.20346474647522,0.1584752798080444,1.2984623908996582
3998232722.0,-0.4380532503128052,0.0326909944415092,9.987178802490234,2.1318728923797607,0.5717353224754333,1.1817128658294678
3998241055.0,-0.3867692649364471,-0.0879514217376709,9.79519748687744,2.086561441421509,0.6574661731719971,1.2478742599487305
3998249388.0,-0.3546476662158966,-0.2769000232219696,9.82439422607422,1.9602572917938232,0.1891867369413375,1.232044696807861
3998257721.0,-0.3991576135158539,-0.2562707066535949,10.02464771270752,2.0814125537872314,0.1932337582111358,1.2038946151733398
3998266054.0,-0.468686580657959,-0.0093399928882718,10.02033233642578,2.179694652557373,0.7954244613647461,1.2623207569122314
3998274387.0,-0.4664313197135925,-0.0260694436728954,9.84390640258789,2.1374824047088623,0.9349195957183838,1.2244373559951782
3998282720.0,-0.5039651393890381,-0.2335065752267837,9.775638580322266,2.00413465499878,0.3763755857944488,1.2597081661224363
3998291053.0,-0.501660943031311,-0.27250537276268,9.938101768493652,1.9272149801254272,0.1202332079410553,1.2676740884780884
3998299386.0,-0.4916158616542816,-0.1052361652255058,10.04125690460205,2.0630857944488525,0.5241825580596924,1.276703119277954
3998307719.0,-0.430465966463089,-0.0280887391418218,9.932851791381836,2.0847811698913574,0.7223854660987854,1.2962467670440674
3998316052.0,-0.3766315579414367,-0.2008192986249923,9.741288185119627,1.9428781270980835,0.4282315671443939,1.2014740705490112
3998324385.0,-0.3932331800460815,-0.2784837186336517,9.878960609436035,2.0004079341888428,0.0315439328551292,1.2813905477523804
3998332718.0,-0.400397926568985,-0.1292347013950348,10.025833129882812,2.0976779460906982,0.4025533199310303,1.237526297569275
3998341051.0,-0.467572808265686,0.0159381460398435,9.941100120544434,2.0393543243408203,0.9655030369758606,1.3348346948623655
3998349384.0,-0.4946436285972595,-0.1753631383180618,9.757681846618652,1.950203895568848,0.8100630044937134,1.2434815168380735
3998357717.0,-0.4941082596778869,-0.3619216382503509,9.770943641662598,1.971156120300293,0.4053068459033966,1.217457294464111
3998366050.0,-0.4995423257350921,-0.2683489620685577,9.984004020690918,2.0755088329315186,0.0514718070626258,1.2459149360656738
3998374383.0,-0.4865522682666778,-0.0185236111283302,10.06276512145996,2.2265942096710205,0.4637713432312011,1.2274852991104126
3998382716.0,-0.4437337815761566,-0.0023973924107849,9.839274406433104,2.092260360717773,0.707708477973938,1.209517002105713
3998391049.0,-0.3691483736038208,-0.2425455302000045,9.739295959472656,2.0248947143554688,0.2984698414802551,1.2858729362487793
3998399382.0,-0.3959302306175232,-0.3087054491043091,9.906737327575684,2.161098957061768,0.079813964664936,1.218443512916565
3998407715.0,-0.4492544829845428,-0.1196113601326942,10.0408353805542,2.133396863937378,0.4480058252811432,1.2723231315612793
3998416048.0,-0.4474323689937591,-0.0141503401100635,9.927172660827637,2.219127893447876,0.9740709066390992,1.273987889289856
3998424381.0,-0.4736360907554626,-0.160790741443634,9.734593391418455,2.1544394493103027,0.5765764713287354,1.3279188871383667
3998432714.0,-0.4495346248149872,-0.2809821963310241,9.884147644042969,2.011562824249268,0.1775066405534744,1.3102962970733645
3998441047.0,-0.4630982875823974,-0.1511394530534744,10.04093074798584,2.114685535430908,0.2581146359443664,1.2352465391159058
3998449380.0,-0.4599184393882751,-0.0309358276426792,9.97715663909912,2.079210042953491,0.5790610313415527,1.2411890029907229
3998457713.0,-0.3828479647636413,-0.1112436205148696,9.76433277130127,2.0314650535583496,0.4898209869861603,1.3346552848815918
3998466046.0,-0.3589278161525726,-0.2668977379798889,9.834394454956056,2.0224359035491943,0.0750368982553482,1.301113486289978
3998474379.0,-0.3769022226333618,-0.1933340430259704,10.02614974975586,2.106707096099853,0.1513417363166809,1.266790509223938
3998482712.0,-0.4599442780017853,0.0004167358856648,10.05558967590332,2.1225366592407227,0.6695689558982849,1.242661952972412
3998491045.0,-0.4884793758392334,-0.0449196882545948,9.836894035339355,1.922898888587952,0.957011878490448,1.368504524230957
3998499378.0,-0.4873853623867035,-0.2878069579601288,9.77432632446289,1.9415205717086792,0.4825593829154968,1.2779070138931274
3998507711.0,-0.481438010931015,-0.3594372272491455,9.975700378417969,2.046142101287842,0.0669556111097335,1.217572808265686
3998516044.0,-0.4388270080089569,-0.0887064337730407,10.105867385864258,2.130412578582764,0.3477644622325897,1.2742056846618652
3998524377.0,-0.4508501589298248,0.0568784028291702,9.929691314697266,2.1974451541900635,0.8509050011634827,1.273129940032959
3998532710.0,-0.3993047475814819,-0.1224189028143882,9.697755813598633,2.0751118659973145,0.5505780577659607,1.320055365562439
3998541043.0,-0.3948669731616974,-0.3197794258594513,9.8056001663208,2.053570032119751,0.0429294593632221,1.2270500659942627
3998549376.0,-0.4431164860725403,-0.2333808690309524,10.031862258911133,2.0981900691986084,0.1757649034261703,1.2395241260528564
3998557709.0,-0.4853740036487579,-0.0362996757030487,10.009476661682127,2.1556942462921143,0.8343068957328796,1.2167274951934814
3998566042.0,-0.5075865387916565,-0.0399636588990688,9.832523345947266,2.068721055984497,0.9765042662620544,1.2655866146087646
3998574375.0,-0.5177720189094543,-0.2568872272968292,9.764911651611328,1.901511073112488,0.3742111325263977,1.304853081703186
3998582708.0,-0.500777542591095,-0.253213107585907,9.897967338562012,2.00980806350708,-0.1560675501823425,1.310539484024048
3998591041.0,-0.4837906956672668,-0.0852649360895156,10.065230369567873,2.0535318851470947,0.3546162843704223,1.357080578804016
3998599374.0,-0.4577310383319855,-0.0548666417598724,9.907343864440918,2.0111658573150635,0.7258690595626831,1.3189153671264648
3998607707.0,-0.3953942954540252,-0.2228935956954956,9.742949485778809,1.959629774093628,0.4348144233226776,1.3229880332946775
3998616040.0,-0.3482191562652588,-0.2939895987510681,9.856158256530762,1.967954516410828,-0.042775772511959,1.326804518699646
3998624373.0,-0.3885361850261688,-0.1155486926436424,10.035077095031738,2.115543842315674,0.215121179819107,1.3212720155715942
3998632706.0,-0.4750545918941498,0.0190096776932477,9.958507537841797,1.991532325744629,0.971086859703064,1.2986929416656494
3998641039.0,-0.4863742291927337,-0.16313436627388,9.758108139038086,2.0161352157592773,0.8905173540115356,1.2492446899414062
3998649372.0,-0.5015142560005188,-0.3998498916625976,9.786836624145508,1.985909938812256,0.1287499666213989,1.3172249794006348
3998657705.0,-0.4594960808753967,-0.2924123704433441,9.998659133911133,2.234957456588745,-0.0276889894157648,1.1920994520187378
3998666038.0,-0.4530514180660248,0.0027649137191474,10.056669235229492,2.2642085552215576,0.4902691841125488,1.256211757659912
3998674371.0,-0.4165999889373779,0.0674423202872276,9.875327110290527,2.10961389541626,0.8230622410774231,1.2213891744613647
3998682704.0,-0.3753204643726349,-0.1943761706352234,9.702662467956545,1.939164161682129,0.3698311746120453,1.2281898260116575
3998691037.0,-0.341328352689743,-0.3503450453281402,9.827021598815918,1.976484060287476,0.0732182934880256,1.168944239616394
3998699370.0,-0.3844118416309356,-0.192947044968605,10.033656120300291,2.118860960006714,0.2663624286651611,1.329404592514038
3998707703.0,-0.4347997009754181,0.0174364931881427,10.000815391540527,2.2029778957366943,0.9270815253257751,1.2859370708465576
3998716036.0,-0.4699459373950958,-0.0355096943676471,9.809550285339355,2.0825655460357666,0.9837148189544678,1.2957730293273926
3998724369.0,-0.4785247147083282,-0.2644785940647125,9.788249969482422,2.00362229347229,0.2939233481884002,1.294236183166504
3998732702.0,-0.4530714452266693,-0.2276769876480102,10.03725528717041,1.934847950935364,-0.099729023873806,1.2883960008621216
3998741035.0,-0.4521272480487823,-0.0552583187818527,10.079898834228516,2.043196201324463,0.3557048439979553,1.2036384344100952
3998749368.0,-0.4241556823253631,-0.0630138516426086,9.898292541503906,2.116145610809326,0.7621771693229675,1.2117071151733398
3998757701.0,-0.3616568148136139,-0.2571546137332916,9.766447067260742,2.0237293243408203,0.3932296931743622,1.2337608337402344
3998766034.0,-0.3548763990402221,-0.2945045232772827,9.935995101928713,1.931044578552246,-0.089393675327301,1.2532918453216553
3998774367.0,-0.3671140372753143,-0.0836907401680946,10.059003829956056,2.060537338256836,0.3318580687046051,1.1830960512161257
3998782700.0,-0.4684893190860748,0.0355296619236469,9.993474006652832,2.024959087371826,1.048851728439331,1.2040228843688965
3998791033.0,-0.5162125825881958,-0.170147567987442,9.742985725402832,2.065301418304444,0.9613535404205322,1.1943917274475098
3998799366.0,-0.5048415064811707,-0.4267055988311767,9.800785064697266,1.9427502155303955,0.0223740357905626,1.3420450687408447
3998807699.0,-0.4738252460956573,-0.3248457610607147,10.053584098815918,2.066249132156372,-0.0529062040150165,1.2936983108520508
3998816032.0,-0.4737554788589477,0.01928043179214,10.109207153320312,2.2254798412323,0.6128589510917664,1.2575435638427734
3998824365.0,-0.4503172636032104,0.0743209198117256,9.852992057800291,2.2159385681152344,1.0352247953414917,1.225077509880066
3998832698.0,-0.4387744963169098,-0.2165758162736892,9.68846035003662,1.9737560749053955,0.5719659328460693,1.2011539936065674
3998841031.0,-0.411600112915039,-0.3751993477344513,9.818227767944336,1.962178468704224,0.0341437719762325,1.2272547483444214
3998849364.0,-0.4339446127414703,-0.1928568482398986,10.08498191833496,2.101814746856689,0.3419628739356994,1.2694801092147827
3998857697.0,-0.5047450065612793,0.0009701679227873,10.01379108428955,2.238697290420532,0.9477651715278624,1.3771878480911257
3998866030.0,-0.4964019656181335,-0.0793489590287208,9.763245582580566,2.081310272216797,1.024466872215271,1.218033790588379
3998874363.0,-0.5227188467979431,-0.2676258981227875,9.79766845703125,2.0070548057556152,0.1336550861597061,1.317596435546875
3998882696.0,-0.4758846163749695,-0.2639389038085937,9.963754653930664,1.970438957214356,-0.1976650506258011,1.252036690711975
3998891029.0,-0.4734294414520263,-0.0512781478464603,10.05361557006836,2.108602285385132,0.3894772827625274,1.2062640190124512
3998899362.0,-0.4383898079395294,-0.0336806029081344,9.821362495422363,2.100405693054199,0.6661366820335388,1.2894847393035889
3998907695.0,-0.4063601791858673,-0.2373848855495453,9.72178554534912,1.997590184211731,0.4328934252262115,1.3642269372940063
3998916028.0,-0.384216845035553,-0.3291410803794861,9.890503883361816,1.9778032302856443,-0.0750368982553482,1.1842740774154663
3998924361.0,-0.387051373720169,-0.1076924949884414,10.047722816467283,2.136662721633911,0.2482019513845443,1.225974202156067
3998932694.0,-0.4554544985294342,0.0502439402043819,9.946680068969728,2.2586376667022705,0.8477799892425537,1.2223881483078003
3998941027.0,-0.502892017364502,-0.1282045990228653,9.758399963378906,2.0157761573791504,0.8183363676071167,1.2693519592285156
3998949360.0,-0.46309694647789,-0.3877701759338379,9.817235946655272,1.9047385454177856,0.1380223035812378,1.2817233800888062
3998957693.0,-0.4301795363426208,-0.3143031001091003,10.065622329711914,2.123816967010498,-0.1943351924419403,1.3309797048568726
3998966026.0,-0.4209630191326141,0.0007809777744114,10.098358154296877,2.270381689071656,0.4703926146030426,1.2271652221679688
3998974359.0,-0.4142286479473114,0.1113994941115379,9.883429527282717,2.2536814212799072,0.91205894947052,1.3325679302215576
3998982692.0,-0.387431651353836,-0.1940261423587799,9.699170112609863,2.0196568965911865,0.4195099472999573,1.2925713062286377
3998991025.0,-0.3650000989437103,-0.3861317932605743,9.89492416381836,1.8401525020599363,-0.0709130093455314,1.2869873046875
3998999358.0,-0.3639020323753357,-0.1968275010585785,10.147698402404783,2.173598289489746,0.1287627518177032,1.2371419668197632
3999007691.0,-0.4389523267745971,0.0227105598896741,10.030437469482422,2.257075309753418,0.883255660533905,1.313523530960083
3999016024.0,-0.4682812094688415,-0.0164963342249393,9.781220436096191,2.122037172317505,1.168803334236145,1.2654200792312622
3999024357.0,-0.4848566651344299,-0.2670428156852722,9.76551342010498,1.9288285970687864,0.4656411707401275,1.1850937604904177
3999032690.0,-0.4677033126354217,-0.3011419773101806,10.011028289794922,1.9165340662002563,0.0531239286065101,1.1612468957901
3999041023.0,-0.4602228999137878,-0.0974720939993858,10.112732887268066,2.1097676753997803,0.4307289719581604,1.3216946125030518
3999049356.0,-0.4278568625450134,-0.0329464115202426,9.899221420288086,2.1134307384490967,0.9773368239402772,1.3346810340881348
3999057689.0,-0.4077328741550445,-0.2034873217344284,9.744680404663086,2.0328736305236816,0.5695069432258606,1.313626050949097
3999066022.0,-0.3869081437587738,-0.3350815176963806,9.896085739135742,1.968351483345032,0.0395227633416652,1.2741031646728516
3999074355.0,-0.3955605626106262,-0.1604709327220916,10.093016624450684,2.160714626312256,0.1974857747554779,1.241701364517212
3999082688.0,-0.4927769899368286,0.013107948936522,10.013580322265623,2.17687726020813,0.9699854850769044,1.2980525493621826
3999091021.0,-0.518224835395813,-0.099392794072628,9.725555419921877,1.9735767841339111,1.0251073837280271,1.2383201122283936
3999099354.0,-0.5219975113868713,-0.3784227967262268,9.753925323486328,2.0130741596221924,0.2844973504543304,1.253663182258606
3999107687.0,-0.4995948374271393,-0.3365722000598907,9.991455078125,2.108269453048706,-0.192004308104515,1.2241939306259155
3999116020.0,-0.4975316822528839,-0.0268585737794637,10.089344024658203,2.2121989727020264,0.312288761138916,1.2154723405838013
3999124353.0,-0.4905858039855957,0.13034488260746,9.84601879119873,2.245805025100708,0.8815908432006836,1.2058926820755005
3999132686.0,-0.43331179022789,-0.1194104105234146,9.632596015930176,1.922604322433472,0.5218899846076965,1.3637019395828247
3999141019.0,-0.4190909564495086,-0.3742590844631195,9.820798873901367,1.910130500793457,-0.1349485963582992,1.2749487161636353
3999149352.0,-0.3948934674263,-0.242812693119049,10.113088607788086,2.0707061290740967,0.0201071742922067,1.2526899576187134
3999157685.0,-0.4660056531429291,0.0126942321658134,10.056859970092772,2.2383766174316406,0.8071045875549316,1.274154543876648
3999166018.0,-0.4910880327224731,0.0394138768315315,9.765345573425291,2.246637344360352,1.0115444660186768,1.3085929155349731
3999174351.0,-0.5117398500442505,-0.1902646869421005,9.717945098876951,1.9416358470916748,0.4014006853103637,1.2880887985229492
3999182684.0,-0.4833417236804962,-0.2932821810245514,9.984557151794434,1.892815113067627,-0.189916729927063,1.1879111528396606
3999191017.0,-0.4449263513088226,-0.1052047088742256,10.103617668151855,1.9332342147827148,0.1133429855108261,1.2576844692230225
3999199350.0,-0.4424900412559509,-0.0073318155482411,9.953184127807615,2.107590675354004,0.6874861121177673,1.228100299835205
3999207683.0,-0.4090917706489563,-0.1488969773054123,9.727317810058594,1.9694530963897705,0.5839533805847168,1.3423908948898315
3999216016.0,-0.382328987121582,-0.3073874413967132,9.836381912231444,1.869967341423035,0.1413649916648864,1.2007955312728882
3999224349.0,-0.3467258214950561,-0.2015699595212936,10.054152488708496,1.9489229917526243,0.0200431384146213,1.192304253578186
3999232682.0,-0.4252961575984955,0.0029316926375031,10.08458137512207,2.110625505447388,0.6846300363540649,1.2337992191314695
3999241015.0,-0.4366671144962311,-0.041400596499443,9.843720436096191,2.065916061401367,1.0951364040374756,1.2886009216308594
3999249348.0,-0.4557699263095855,-0.3208401501178741,9.765226364135742,1.946938157081604,0.4738889932632446,1.297642946243286
3999257681.0,-0.4466470181941986,-0.4544872939586639,9.954132080078123,1.911513447761536,-0.0560567490756511,1.2743080854415894
3999266014.0,-0.4062234461307525,-0.1340977996587753,10.104825019836426,2.152453899383545,0.0359495803713798,1.278752326965332
3999274347.0,-0.4344559013843536,0.1118246167898178,10.000865936279297,2.2672312259674072,0.794515073299408,1.2977323532104492
3999282680.0,-0.4494332671165466,-0.0308020263910293,9.716657638549805,2.045373678207397,0.9738789200782776,1.3661609888076782
3999291013.0,-0.4091196358203888,-0.3650982081890106,9.763056755065918,1.8667526245117188,0.2665032744407654,1.2104390859603882
3999299346.0,-0.3650737702846527,-0.3807701766490936,9.991962432861328,1.9403551816940308,0.0450810529291629,1.320336937904358
3999307679.0,-0.397287517786026,-0.102306418120861,10.10770034790039,2.3578288555145264,0.4896545708179474,1.3193252086639404
3999316012.0,-0.4757809638977051,0.0261336956173181,9.87137222290039,2.1653122901916504,1.1066246032714844,1.3960397243499756
3999324345.0,-0.5154144167900085,-0.1115026623010635,9.707956314086914,2.024267196655273,0.7599743604660034,1.2786113023757937
3999332678.0,-0.5086907148361206,-0.3206590116024017,9.867443084716797,1.9045976400375368,0.0630622431635856,1.2593752145767212
3999341011.0,-0.4704138338565826,-0.2322955578565597,10.050457000732422,2.057284116744995,-0.0095156887546181,1.2991029024124146
3999349344.0,-0.4639987349510193,-0.0262262467294931,10.017437934875488,2.1361501216888428,0.5120285749435425,1.259426236152649
3999357677.0,-0.4515547454357147,-0.0851827636361122,9.774999618530272,2.0938098430633545,0.8068739771842957,1.2894973754882812
3999366010.0,-0.4264298379421234,-0.2790461778640747,9.732101440429688,1.9457981586456297,0.403257668018341,1.2880501747131348
3999374343.0,-0.4075019359588623,-0.3165847659111023,9.937292098999023,2.031657457351685,-0.0872164815664291,1.320478081703186
3999382676.0,-0.4093329906463623,-0.0801971927285194,10.024362564086914,2.166823625564575,0.2865080237388611,1.2746540307998655
3999391009.0,-0.4960592091083526,0.0298370886594057,9.914563179016112,2.140235662460327,0.8511995077133179,1.279597520828247
3999399342.0,-0.5239562392234802,-0.1822427809238433,9.753538131713867,1.9479750394821167,0.8805789351463318,1.2785727977752686
3999407675.0,-0.5064626336097717,-0.3908125758171081,9.847699165344238,1.988779067993164,0.2177082002162933,1.1654093265533447
3999416008.0,-0.4423413276672363,-0.2935993373394012,10.016170501708984,2.1358559131622314,-0.0751009359955787,1.2330052852630615
3999424341.0,-0.432246446609497,0.0429997742176055,10.017017364501951,2.3079192638397217,0.4616196751594543,1.2390371561050415
3999432674.0,-0.458464115858078,0.0822378098964691,9.83303165435791,2.21627163887024,0.7976272702217102,1.250000238418579
3999441007.0,-0.4310829639434814,-0.1913602799177169,9.704198837280272,2.0354349613189697,0.4331367015838623,1.3041489124298096
3999449340.0,-0.3984279930591583,-0.3999594151973724,9.910207748413086,1.845121383666992,0.0727444216609001,1.2365527153015137
3999457673.0,-0.3508278429508209,-0.2312188744544983,10.087385177612305,2.130502462387085,0.1391493380069732,1.1345185041427612
3999466006.0,-0.435338407754898,0.0213520843535661,9.996987342834473,2.3227884769439697,0.6944403052330017,1.2481945753097534
3999474339.0,-0.506393313407898,0.0154325775802135,9.792072296142578,2.252605438232422,0.9170024394989014,1.2742440700531006
3999482672.0,-0.491085022687912,-0.2268298715353012,9.778647422790527,1.923360109329224,0.423979640007019,1.2877172231674194
3999491005.0,-0.4507803618907928,-0.3093716502189636,9.998045921325684,1.8266149759292605,-0.1419284641742706,1.2673283815383911
3999499338.0,-0.4125025272369385,-0.1117346435785293,10.062000274658203,2.03072190284729,0.209575667977333,1.2210562229156494
3999507671.0,-0.4412479698657989,0.0004962609964422,9.918213844299316,2.156347274780273,0.698180079460144,1.3739092350006104
3999516004.0,-0.4368581771850586,-0.1247323006391525,9.79880142211914,2.0117037296295166,0.8090384006500244,1.2563397884368896
3999524337.0,-0.4065912365913391,-0.3023182451725006,9.867385864257812,1.957235097885132,0.1322719305753708,1.3515352010726929
3999532670.0,-0.3710359632968902,-0.2330828607082367,9.969005584716797,2.001317024230957,0.0559927187860012,1.3837834596633911
3999541003.0,-0.3908827602863312,-0.0036385303828865,9.95556640625,2.121562957763672,0.4456236362457275,1.401444435119629
3999549336.0,-0.4717248976230621,0.0057507073506712,9.86748504638672,2.078249454498291,0.9232011437416076,1.290278673171997
3999557669.0,-0.4978082478046417,-0.2430315613746643,9.825377464294434,2.016916275024414,0.6895608901977539,1.2325570583343506
3999566002.0,-0.4882590174674988,-0.3916395008563995,9.952421188354492,2.0348715782165527,0.0391385480761528,1.2789443731307983
3999574335.0,-0.4212250113487243,-0.2095387727022171,9.962193489074709,2.1363420486450195,0.091865450143814,1.1759623289108276
3999582668.0,-0.439311146736145,0.0843074470758438,9.953947067260742,2.152505159378052,0.6247952580451965,1.2733477354049685
3999591001.0,-0.4397933781147003,0.0368769727647304,9.821847915649414,2.0234220027923584,0.8237537741661072,1.2375006675720217
3999599334.0,-0.4182702004909515,-0.2764999568462372,9.877371788024902,1.846017837524414,0.4862349927425384,1.2326338291168213
3999607667.0,-0.4054780900478363,-0.3914535343647003,9.959311485290527,1.9503573179244995,0.004008627962321,1.2688651084899902
3999616000.0,-0.4012109637260437,-0.1677429676055908,9.962950706481934,2.130566596984864,0.401195764541626,1.2766135931015017
3999624333.0,-0.4882989823818207,0.0475010462105274,9.884583473205566,2.222329378128052,0.9025304317474364,1.2492445707321167
3999632666.0,-0.506466805934906,-0.0541460439562797,9.802233695983888,2.021616220474243,0.9285800457000732,1.2931987047195437
3999640999.0,-0.5095348954200745,-0.3006536364555359,9.935038566589355,1.8633074760437007,0.3040153384208679,1.227177977561951
3999649332.0,-0.47690349817276,-0.3147355914115906,9.978337287902832,1.9133319854736328,0.0834767818450927,1.2822741270065308
3999657665.0,-0.431216835975647,-0.1156801506876945,9.92615032196045,2.2003653049468994,0.36815345287323,1.273565411567688
3999665998.0,-0.45176962018013,-0.0268060509115457,9.855074882507324,2.0839226245880127,0.8382513523101807,1.3046866655349731
3999674331.0,-0.4171572029590606,-0.2054252326488495,9.836593627929688,2.0679523944854736,0.597234308719635,1.3083364963531494
3999682664.0,-0.4065576195716858,-0.3473348915576935,9.949801445007324,1.8968747854232788,0.168375164270401,1.1996042728424072
3999690997.0,-0.3864874541759491,-0.1727660298347473,9.990997314453123,2.141465187072754,0.1280327439308166,1.298372745513916
3999699330.0,-0.4363822638988495,0.0410969108343124,9.87449836730957,2.175839900970459,0.6370131969451904,1.156085729598999
3999707663.0,-0.5279834866523743,-0.0881964713335037,9.81552028656006,2.0920939445495605,0.7244730591773987,1.3546345233917236
3999715996.0,-0.4709547162055969,-0.3939845561981201,9.8609619140625,2.017108201980591,0.3467527329921722,1.2005521059036257
3999724329.0,-0.4694293439388275,-0.4195201694965362,10.03172206878662,2.1485092639923096,0.0379474870860576,1.187488675117493
3999732662.0,-0.4356394708156585,-0.0488252937793731,10.008166313171388,2.204591751098633,0.4302423000335693,1.2079417705535889
3999740995.0,-0.4510250985622406,0.1550958007574081,9.845726013183594,2.156705856323242,0.7371905446052551,1.2303158044815063
3999749328.0,-0.4199806451797485,-0.0635992810130119,9.74366855621338,1.929763674736023,0.4518991410732269,1.274858832359314
3999757661.0,-0.3676241040229797,-0.4194476902484894,9.92555809020996,1.7872716188430786,0.0631518959999084,1.3854098320007324
3999765994.0,-0.3591366708278656,-0.3396638631820678,10.080775260925291,2.0965638160705566,0.2022372037172317,1.185695767402649
3999774327.0,-0.4312559068202972,-0.0175349693745374,9.937370300292969,2.258599281311035,0.7989720106124878,1.246708869934082
3999782660.0,-0.4894427955150604,0.0561676956713199,9.768905639648438,2.170025110244751,0.9500447511672974,1.297220230102539
3999790993.0,-0.4957050383090973,-0.1665834188461303,9.791640281677246,1.8723621368408203,0.4204704463481903,1.3164818286895752
3999799326.0,-0.4815453886985779,-0.3272982537746429,10.009865760803224,1.8968236446380613,0.0248586144298315,1.1927653551101685
3999807659.0,-0.471795380115509,-0.1550329178571701,10.060851097106934,2.085037469863892,0.2914259731769562,1.3167637586593628
3999815992.0,-0.4982821643352508,-0.0001017827307805,9.869868278503418,2.143962860107422,0.8494449257850647,1.2764341831207275
3999824325.0,-0.4436377584934234,-0.1404252350330352,9.70808219909668,2.05061149597168,0.5821987390518188,1.156982183456421
3999832658.0,-0.3828774690628052,-0.345264732837677,9.88082504272461,1.9661870002746584,-0.0639331266283989,1.2772923707962036
3999840991.0,-0.3662170171737671,-0.2235354632139206,10.095455169677734,2.142003297805786,-0.0303272549062967,1.2742953300476074
3999849324.0,-0.4246978163719177,0.0556709095835685,9.974221229553224,2.244818925857544,0.7358072996139526,1.279597520828247
3999857657.0,-0.4961470365524292,0.0092767709866166,9.71988010406494,2.080132007598877,1.1295877695083618,1.3179036378860474
3999865990.0,-0.4621217250823974,-0.3182113468647003,9.696059226989746,1.896016955375672,0.4043719470500946,1.2895232439041138
3999874323.0,-0.4435927867889404,-0.4351234138011932,10.016779899597168,2.0020596981048584,-0.0864608436822891,1.193777084350586
3999882656.0,-0.4805344343185425,-0.1114105358719825,10.155223846435549,2.1607658863067627,0.1797607094049453,1.2617061138153076
3999890989.0,-0.4940763115882873,0.1419072300195694,9.863921165466309,2.120218276977539,0.8694239854812622,1.342390775680542
3999899322.0,-0.4459489583969116,-0.0271636024117469,9.60677433013916,1.9692353010177608,0.6799683570861816,1.3642781972885132
3999907655.0,-0.3685960173606872,-0.3521775901317596,9.789581298828123,1.807737708091736,-0.1143163442611694,1.295478343963623
3999915988.0,-0.3765783011913299,-0.3039840757846832,10.094703674316406,1.959181547164917,-0.0804414972662925,1.2490270137786863
3999924321.0,-0.4321440160274505,-0.0200719609856605,10.102581977844238,2.2899508476257324,0.6991021037101746,1.3010622262954712
3999932654.0,-0.4604308009147644,0.0231135934591293,9.76893711090088,2.1420798301696777,1.0466103553771973,1.29721999168396
3999940987.0,-0.4717303514480591,-0.1900227516889572,9.658408164978027,1.899193286895752,0.4831613302230835,1.2479768991470337
3999949320.0,-0.5005261301994324,-0.311248779296875,9.958772659301758,1.8790346384048464,0.0126278176903724,1.235451340675354
3999957653.0,-0.4988934993743896,-0.1170290783047676,10.165203094482422,2.0049285888671875,0.1614209115505218,1.2034335136413574
3999965986.0,-0.4915840327739715,-0.0117638725787401,9.959959983825684,2.106207609176636,0.8325138688087463,1.3041489124298096
3999974319.0,-0.4072931408882141,-0.2013833820819854,9.629196166992188,1.9709385633468628,0.601294219493866,1.2568137645721436
3999982652.0,-0.357577234506607,-0.329912394285202,9.8236083984375,1.9263442754745483,0.1185426861047744,1.2727971076965332
3999990985.0,-0.3823152780532837,-0.1551967412233352,10.144532203674316,2.085331439971924,0.1050183624029159,1.1850167512893677
3999999318.0,-0.4716781675815582,0.0109198046848177,10.052268028259276,2.098715305328369,0.7886494994163513,1.2931474447250366
4000007651.0,-0.45816171169281,-0.1466831564903259,9.712549209594728,1.9965654611587524,1.0421022176742554,1.3705281019210815
4000015984.0,-0.4455060064792633,-0.3833827078342438,9.69217300415039,1.951241374015808,0.3842135667800903,1.3054808378219604
4000024317.0,-0.4572298228740692,-0.3087574243545532,10.051219940185549,2.073728561401367,-0.1069778427481651,1.1618105173110962
4000032650.0,-0.4848228991031647,-0.0268849562853574,10.171969413757324,2.15529727935791,0.3787193298339844,1.142254114151001
4000040983.0,-0.4409171640872955,0.0127394897863268,9.87981414794922,2.154182910919189,0.780286431312561,1.2281769514083862
4000049316.0,-0.354627251625061,-0.2111271023750305,9.60439109802246,2.0591156482696533,0.4536921679973602,1.3457592725753784
4000057649.0,-0.3827761709690094,-0.3399998545646667,9.836490631103516,1.949307203292847,-0.0556085035204887,1.2863084077835083
4000065982.0,-0.4070729613304138,-0.1635335683822631,10.159384727478027,2.098228454589844,0.2793872952461242,1.1724531650543213
4000074315.0,-0.4720014333724975,-0.0509936995804309,10.053496360778809,2.217667579650879,0.8617268800735474,1.1764490604400637
4000082648.0,-0.4613472819328308,-0.1305075734853744,9.706284523010254,2.094757556915283,0.931692123413086,1.3199526071548462
4000090981.0,-0.4755632281303406,-0.222240999341011,9.742557525634766,2.00649094581604,0.1959488838911056,1.1735419034957886
4000099314.0,-0.4885570704936981,-0.1556064337491989,10.039813041687012,1.9467074871063232,0.1047622188925743,1.1956212520599363
4000107647.0,-0.4567618668079376,-0.0904500931501388,10.08747673034668,2.0709750652313232,0.6108354926109314,1.2218631505966189
4000115980.0,-0.3590518236160278,-0.1765804588794708,9.8074369430542,2.0160837173461914,0.6218239665031433,1.255340814590454
4000124313.0,-0.331161230802536,-0.2670858800411224,9.71353530883789,2.061433792114258,0.2355741411447525,1.3405722379684448
4000132646.0,-0.3928196132183075,-0.1639879196882248,9.94348430633545,2.03117036819458,0.2145320177078247,1.2961188554763794
4000140979.0,-0.4498455822467804,-0.0411422252655029,10.07373332977295,2.195101499557495,0.7465397119522095,1.205008864402771
4000149312.0,-0.4609545171260834,-0.0994514673948288,9.85464859008789,2.135023355484009,0.8309770226478577,1.386114478111267
4000157645.0,-0.4674487709999084,-0.3012947142124176,9.707962989807127,1.957030177116394,0.3721492290496826,1.2411633729934692
4000165978.0,-0.5230158567428589,-0.2693706154823303,9.885082244873049,2.0932977199554443,0.1850884705781936,1.2102981805801392
4000174311.0,-0.5138773322105408,-0.0852742195129394,10.058561325073242,2.2336254119873047,0.4713403582572937,1.223323106765747
4000182644.0,-0.44060218334198,-0.0101684993132948,9.924826622009276,2.186418294906616,0.5734387040138245,1.2897919416427612
4000190977.0,-0.3621290922164917,-0.168526291847229,9.786293983459473,2.0746889114379883,0.2909136712551117,1.169942855834961
4000199310.0,-0.3921374082565307,-0.254146933555603,9.852043151855469,2.041954278945923,0.1299538165330886,1.3236796855926514
4000207643.0,-0.4443717300891876,-0.1369054913520813,10.017898559570312,2.0894811153411865,0.4568042457103729,1.257966160774231
4000215976.0,-0.4447674751281738,-0.0529385209083557,9.950523376464844,2.206179618835449,0.7213481068611145,1.3541990518569946
4000224309.0,-0.452485978603363,-0.1608441770076751,9.845680236816406,2.092913627624512,0.5229914784431458,1.2888314723968506
4000232642.0,-0.4972338080406189,-0.2397382110357284,9.92100715637207,2.0364086627960205,0.2052724659442901,1.2141402959823608
4000240975.0,-0.5287693738937378,-0.1295260339975357,9.937350273132324,2.075432062149048,0.3884783387184143,1.2483738660812378
4000249308.0,-0.4787305295467376,-0.0228358190506696,9.904781341552734,1.91721260547638,0.6320696473121643,1.2574669122695925
4000257641.0,-0.4385532140731811,-0.1373087614774704,9.834035873413086,1.949537754058838,0.3430642485618591,1.2673282623291016
4000265974.0,-0.3809938430786133,-0.3024053871631622,9.89815902709961,1.999626636505127,0.0975390076637268,1.2961317300796509
4000274307.0,-0.3773500323295593,-0.2138058990240097,9.984440803527832,2.0908899307250977,0.2316551506519317,1.302714467048645
4000282640.0,-0.4345904290676117,-0.0303337145596742,9.92827320098877,2.093656301498413,0.7452206015586853,1.2027164697647097
4000290973.0,-0.4912246167659759,-0.1031544134020805,9.792121887207031,1.9526755809783936,0.7957318425178528,1.285860300064087
4000299306.0,-0.4936898648738861,-0.307090163230896,9.847663879394531,1.898130297660828,0.3852765560150146,1.247861623764038
4000307639.0,-0.4827568829059601,-0.2593671679496765,9.953604698181152,2.127428770065308,0.1831289678812027,1.3330544233322144
4000315972.0,-0.4679849445819855,-0.044566199183464,9.970382690429688,2.17870831489563,0.4686252176761627,1.2545467615127563
4000324305.0,-0.4399018585681915,-0.025720277801156,9.872640609741213,2.114737033843994,0.6035482287406921,1.3157776594161987
4000332638.0,-0.3844367563724518,-0.2712257206439972,9.802128791809082,1.971015214920044,0.3429490029811859,1.18681001663208
4000340971.0,-0.3545202314853668,-0.2854155302047729,9.966697692871094,2.101494550704956,0.0223356168717145,1.229841947555542
4000349304.0,-0.4219526350498199,-0.0897748172283172,9.980567932128906,2.131142854690552,0.5106838345527649,1.3064411878585815
4000357637.0,-0.4504775702953338,-0.0060682976618409,9.884984016418455,2.1052467823028564,0.8879815340042114,1.2645620107650757
4000365970.0,-0.4530255198478699,-0.182451069355011,9.768597602844238,2.0425946712493896,0.7502537965774536,1.2807502746582031
4000374303.0,-0.4667020440101623,-0.2525372803211212,9.89636516571045,2.0207841396331787,0.2937952876091003,1.2683913707733154
4000382636.0,-0.4935935735702514,-0.1452123522758484,10.0824613571167,2.178093671798706,0.2410939931869506,1.244454860687256
4000390969.0,-0.4776179492473602,-0.0719712674617767,9.933096885681152,2.125609874725342,0.7540702223777771,1.2954014539718628
4000399302.0,-0.3811095356941223,-0.198379784822464,9.701621055603027,2.025163650512696,0.5680981278419495,1.262986660003662
4000407635.0,-0.3430463969707489,-0.2623251676559448,9.836752891540527,1.9242948293685915,0.1336806714534759,1.3149322271347046
4000415968.0,-0.3920339047908783,-0.1047650426626205,10.106646537780762,2.129157781600952,0.2463833391666412,1.167496919631958
4000424301.0,-0.4379469454288482,-0.0288999248296022,9.991093635559082,2.0722298622131348,0.8371884226799011,1.265253663063049
4000432634.0,-0.4339978992938995,-0.2015507817268371,9.7318696975708,2.0256121158599854,0.7598334550857544,1.2590806484222412
4000440967.0,-0.4751839339733124,-0.3362465500831604,9.76171588897705,1.916264891624451,0.3145555853843689,1.2190197706222534
4000449300.0,-0.5237109661102295,-0.2181919366121292,10.028498649597168,2.22239351272583,0.3216123580932617,1.2674949169158936
4000457633.0,-0.5114902257919312,-0.0449046567082405,10.068733215332031,2.182640314102173,0.491024911403656,1.3090156316757202
4000465966.0,-0.4371795952320099,-0.0662164762616157,9.845525741577148,2.0771737098693848,0.7008695602416992,1.2114381790161133
4000474299.0,-0.3869017362594604,-0.2386052906513214,9.788731575012209,2.023012161254883,0.2263273894786834,1.2123472690582275
4000482632.0,-0.4137592613697052,-0.2436397075653076,9.933542251586914,1.9965527057647705,0.1511240005493164,1.274692416191101
4000490965.0,-0.4359943568706512,-0.0929886996746063,10.008305549621582,2.252848863601685,0.5597991347312927,1.1971068382263184
4000499298.0,-0.4430951774120331,-0.0604763105511665,9.898049354553224,2.1257381439208984,0.7041738033294678,1.2349263429641724
4000507631.0,-0.4515861570835113,-0.1733674108982086,9.817834854125977,2.018926858901977,0.5153712630271912,1.2172526121139526
4000515964.0,-0.4797437787055969,-0.2235019505023956,9.8900785446167,2.0289931297302246,0.1612287759780883,1.1586726903915403
4000524297.0,-0.5249055624008179,-0.0996959581971168,10.006340026855469,2.136457681655884,0.4431775212287903,1.2580944299697876
4000532630.0,-0.5033559203147888,-0.0735783353447914,9.94814109802246,2.061561822891236,0.6545462012290955,1.2997945547103882
4000540963.0,-0.4157454073429107,-0.2165795117616653,9.830477714538574,2.091427803039551,0.3860065042972564,1.3309413194656372
4000549296.0,-0.3761785924434662,-0.2725962102413177,9.847075462341309,2.0085527896881104,-0.0963863730430603,1.2063920497894287
4000557629.0,-0.4005918800830841,-0.117672175168991,10.006251335144045,2.185150384902954,0.2440011948347091,1.2021528482437134
4000565962.0,-0.4513435959815979,-0.033843208104372,9.99466323852539,2.150801658630371,0.8455002903938293,1.194366216659546
4000574295.0,-0.4332264065742492,-0.1943195164203643,9.829278945922852,2.0851526260375977,0.6649968028068542,1.341981053352356
4000582628.0,-0.4835765361785888,-0.3306303322315216,9.785608291625977,2.073997735977173,0.3087412416934967,1.1437140703201294
4000590961.0,-0.5295683145523071,-0.1933383494615554,9.964970588684082,2.0968966484069824,0.3059492707252502,1.2580047845840454
4000599294.0,-0.5176348090171814,0.0021640285849571,10.00071144104004,2.1444108486175537,0.7249212861061096,1.35180401802063
4000607627.0,-0.4295635819435119,-0.09235680103302,9.852304458618164,2.1641080379486084,0.4950335025787353,1.2617700099945068
4000615960.0,-0.356883704662323,-0.2764113843441009,9.80562686920166,1.9345790147781368,0.0792376324534416,1.281928300857544
4000624293.0,-0.3939098417758941,-0.2138347923755645,9.975341796875,2.16123914718628,0.3144018948078155,1.191407561302185
4000632626.0,-0.4031675159931183,-0.0506135523319244,9.93386459350586,2.189107894897461,0.7235381603240967,1.2396905422210691
4000640959.0,-0.4142012000083923,-0.0628148987889289,9.77585220336914,2.117836236953736,0.6900730729103088,1.2821717262268066
4000649292.0,-0.4506748914718628,-0.2239633798599243,9.848714828491213,1.9998571872711184,0.317949503660202,1.1810723543167114
4000657625.0,-0.5316435098648071,-0.2131386548280716,10.0304594039917,1.9040597677230835,0.2507889568805694,1.2644977569580078
4000665958.0,-0.5363868474960327,-0.0548110194504261,10.0064058303833,2.126147985458374,0.628201961517334,1.291866898536682
4000674291.0,-0.4749987423419952,-0.091196060180664,9.783013343811035,2.010371685028076,0.6304559707641602,1.3299294710159302
4000682624.0,-0.4267120957374573,-0.2566960752010345,9.765283584594728,2.01820969581604,0.2178106606006622,1.2893822193145752
4000690957.0,-0.3743046224117279,-0.2425230741500854,9.991028785705566,1.969478726387024,-0.0726547837257385,1.2365528345108032
4000699290.0,-0.3720419406890869,-0.0258152429014444,10.04776668548584,2.123702049255371,0.3452030420303345,1.2735397815704346
4000707623.0,-0.4124959707260132,-0.0313825644552707,9.851190567016602,2.053506374359131,0.8918237090110779,1.253214955329895
4000715956.0,-0.4198030829429626,-0.2631102800369262,9.749871253967283,2.0062096118927,0.6779831647872925,1.267366647720337
4000724289.0,-0.4703739583492279,-0.354631632566452,9.858587265014648,2.01842737197876,0.2480738908052444,1.216163992881775
4000732622.0,-0.5138120651245117,-0.1375784873962402,10.085067749023438,2.191553831100464,0.2957675457000732,1.2234381437301636
4000740955.0,-0.5183161497116089,-0.0062563954852521,9.971879005432127,2.1884546279907227,0.7574384808540344,1.2752302885055542
4000749288.0,-0.440229207277298,-0.1193570867180824,9.75126838684082,2.0628936290740967,0.637128472328186,1.3178012371063232
4000757621.0,-0.3686805665493011,-0.2818560898303985,9.825401306152344,1.9783282279968264,-0.0631647035479545,1.2698639631271362
4000765954.0,-0.4170915186405182,-0.1906129121780395,10.04478931427002,2.053787469863892,0.1616898477077484,1.2646387815475464
4000774287.0,-0.4343591630458832,-0.0547522902488708,9.993973731994627,2.144449472427368,0.8140717148780823,1.18916654586792
4000782620.0,-0.4006966650485992,-0.1113183498382568,9.73989486694336,2.055491209030152,0.6936590671539307,1.2833499908447266
4000790953.0,-0.4426274001598358,-0.2528947293758392,9.794876098632812,2.012446641921997,0.2139685302972793,1.2620261907577517
4000799286.0,-0.5310729742050171,-0.157068058848381,10.0459623336792,1.9533030986785889,0.3276700675487518,1.247169852256775
4000807619.0,-0.5105625987052917,-0.0520028211176395,10.007572174072266,2.1959593296051025,0.7240632176399231,1.3716423511505127
4000815952.0,-0.4370783269405365,-0.1349462568759918,9.799077987670898,2.063944101333618,0.6928907632827759,1.2775100469589231
4000824285.0,-0.4106862246990204,-0.3016569912433624,9.806536674499512,2.0544538497924805,0.0106171006336808,1.2227084636688232
4000832618.0,-0.3915399014949798,-0.2226460874080658,9.96529769897461,2.063687562942505,0.1371898502111435,1.2676998376846311
4000840951.0,-0.4022422730922699,-0.0359478667378425,10.043498039245604,2.0877652168273926,0.5218132138252258,1.332426905632019
4000849284.0,-0.4414310157299042,-0.0855067446827888,9.884559631347656,2.0144190788269043,0.8038131594657898,1.3396118879318235
4000857617.0,-0.4725255072116852,-0.2768590450286865,9.8145751953125,1.991135239601136,0.6502044796943665,1.354493498802185
4000865950.0,-0.4801742136478424,-0.2768276929855346,9.881986618041992,2.046474933624268,0.2264554649591446,1.254790186882019
4000874283.0,-0.5150598883628845,-0.0906485989689827,10.008116722106934,2.036280393600464,0.308497816324234,1.1623740196228027
4000882616.0,-0.4889233112335205,-0.0244260020554065,9.936922073364258,2.158563137054444,0.6767793297767639,1.3108854293823242
4000890949.0,-0.3991680443286896,-0.1886935830116272,9.811286926269531,1.9675062894821167,0.3160796463489532,1.2529971599578855
4000899282.0,-0.340407133102417,-0.2678097784519195,9.852246284484863,2.074343204498291,-0.111947014927864,1.2425978183746338
4000907615.0,-0.4177212417125702,-0.1413984149694442,9.990666389465332,2.0680806636810303,0.3216763734817505,1.2789827585220337
4000915948.0,-0.4364470243453979,-0.0226598866283893,9.93579387664795,2.12730073928833,0.9187442064285278,1.301728367805481
4000924281.0,-0.3833540081977844,-0.1298717260360717,9.75979709625244,2.03389835357666,0.7137150764465332,1.2953630685806274
4000932614.0,-0.468291163444519,-0.2538178861141205,9.891607284545898,1.9786227941513064,0.3047069311141968,1.252612829208374
4000940947.0,-0.5435001850128174,-0.1501645296812057,10.043350219726562,1.996975302696228,0.5227992534637451,1.2827224731445312
4000949280.0,-0.5144402980804443,-0.0354525707662105,9.902403831481934,2.217437267303467,0.8707943558692932,1.1862848997116089
4000957613.0,-0.4298551082611084,-0.1370469778776168,9.756192207336426,1.9757026433944704,0.5889225006103516,1.276126742362976
4000965946.0,-0.4077762067317962,-0.2798070311546325,9.868874549865724,1.966993927955628,-0.0170462746173143,1.3090155124664309
4000974279.0,-0.3934126198291778,-0.1577808409929275,10.036115646362305,2.1216015815734863,0.1368824690580368,1.233709692955017
4000982612.0,-0.3621920943260193,-0.01461395714432,9.983166694641112,2.0847809314727783,0.6655219197273254,1.207339644432068
4000990945.0,-0.4142289161682129,-0.1298970282077789,9.813873291015623,1.9664945602416992,0.8240996599197388,1.2924046516418457
4000999278.0,-0.4389733672142029,-0.3312043845653534,9.790584564208984,2.057783365249634,0.5343769192695618,1.2345165014266968
4001007611.0,-0.4770432114601135,-0.2492835074663162,9.958983421325684,2.1523001194000244,0.1729857325553894,1.2337480783462524
4001015944.0,-0.5311219096183777,-0.0489204041659832,9.995716094970703,2.186354398727417,0.485543429851532,1.284579515457153
4001024277.0,-0.4989412426948547,-0.042429219931364,9.85067653656006,2.0479352474212646,0.7491908073425293,1.255789041519165
4001032610.0,-0.4091567695140838,-0.2185043096542358,9.777154922485352,2.0087451934814453,0.3597519397735595,1.3156752586364746
4001040943.0,-0.3929371535778045,-0.2656925618648529,9.878291130065918,2.002943277359009,-0.1052232757210731,1.1942765712738037
4001049276.0,-0.4486989080905914,-0.1333100497722625,10.070938110351562,2.1329360008239746,0.4302807748317718,1.1019885540008545
4001057609.0,-0.4139415323734283,-0.0400036908686161,9.901707649230955,2.183178186416626,0.9177579879760742,1.293595790863037
4001065942.0,-0.3908068537712097,-0.1527637839317321,9.723956108093262,1.9866145849227903,0.4212005138397217,1.2816082239151
4001074275.0,-0.4789069890975952,-0.2446922212839126,9.913440704345703,1.94955050945282,0.2103697061538696,1.2521263360977173
4001082608.0,-0.5092408061027527,-0.1314698159694671,10.077375411987305,2.0523149967193604,0.4945597052574157,1.2377310991287231
4001090941.0,-0.4819942414760589,-0.0485491715371608,9.928239822387695,2.1074752807617188,0.6798914670944214,1.309386968612671
4001099274.0,-0.4535187780857086,-0.2195938825607299,9.769986152648926,2.069809675216675,0.4384901225566864,1.139321208000183
4001107607.0,-0.4007436633110046,-0.2798686623573303,9.894659996032717,1.966955542564392,0.0683515816926956,1.264305830001831
