SampleTimeFine,Acc_X,Acc_Y,Acc_Z,Gyr_X,Gyr_Y,Gyr_Z
2498159394.0,0.0,0.0,0.0,0.0,0.0,0.0
2498167727.0,-0.6143651008605957,-0.0675515979528427,9.909950256347656,1.050145149230957,0.7094759345054626,0.6721559762954712
2498176060.0,-0.5973982810974121,-0.0846252813935279,9.913433074951172,1.1580324172973633,0.439834862947464,0.5841454863548279
2498184393.0,-0.6037743091583252,0.2071245461702346,9.756231307983398,1.483806848526001,0.698986828327179,0.6076976656913757
2498192726.0,-0.5748379826545715,0.334203690290451,9.775832176208496,1.3902767896652222,1.175014615058899,0.5353760123252869
2498201059.0,-0.5325148701667786,0.1239086985588073,9.77064037322998,1.1364139318466189,0.8540169596672058,0.5861945152282715
2498209392.0,-0.4992186725139618,-0.0383465141057968,9.86957836151123,1.06880521774292,0.4662302732467651,0.7795948386192322
2498217725.0,-0.5335880517959595,0.0363148897886276,9.812256813049316,1.2285226583480835,0.4174223840236664,0.7518930435180664
2498226058.0,-0.5676931738853455,0.2336401790380478,9.737504005432127,1.4603060483932495,1.086389422416687,0.6474382281303406
2498234391.0,-0.5792977809906006,0.2095890790224075,9.76316738128662,1.343863606452942,1.1651018857955933,0.5606571435928345
2498242724.0,-0.6024839878082275,0.0527665242552757,9.864234924316406,1.0942015647888184,0.8036593794822693,0.6251025199890137
2498251057.0,-0.6278911232948303,0.0906550586223602,9.940906524658203,1.121147871017456,0.3791034817695617,0.6772275567054749
2498259390.0,-0.5842799544334412,0.2378820925951004,9.79818630218506,1.1480427980422974,0.515345573425293,0.6312243938446045
2498267723.0,-0.5177943110466003,0.1647943556308746,9.737852096557615,1.2290350198745728,0.6835286021232605,0.5476963520050049
2498276056.0,-0.4513300955295563,-0.0221809651702642,9.77521800994873,1.1032434701919556,0.596363365650177,0.5991809368133545
2498284389.0,-0.4838542938232422,0.026579899713397,9.844436645507812,1.1265140771865845,0.3213561773300171,0.651088297367096
2498292722.0,-0.5456116795539856,0.1774119585752487,9.76506805419922,1.1346336603164673,0.5656903982162476,0.6683010458946228
2498301055.0,-0.586912214756012,0.2496485263109207,9.735112190246582,1.1049212217330933,0.7458609342575073,0.637999415397644
2498309388.0,-0.569416344165802,0.0065877684392035,9.76685619354248,1.0402454137802124,0.7965258359909058,0.6783417463302612
2498317721.0,-0.5778495669364929,-0.1468264013528823,9.89133071899414,0.9533233642578124,0.4410898685455322,0.6443900465965271
2498326054.0,-0.5993154644966125,0.0250563565641641,9.9013090133667,1.1296132802963257,0.2730989456176758,0.6384859681129456
2498334387.0,-0.5543381571769714,0.2547914087772369,9.81173324584961,1.3514453172683716,0.5113241076469421,0.6133713126182556
2498342720.0,-0.4836039841175079,0.1905445158481598,9.684684753417969,1.1426382064819336,0.3968029618263244,0.6658292412757874
2498351053.0,-0.4697271883487701,-0.0417654514312744,9.737873077392578,0.9351115822792052,0.3284641206264496,0.6859877109527588
2498359386.0,-0.520004153251648,-0.0754052847623825,9.85551643371582,0.8636991381645203,-0.0397789031267166,0.735986590385437
2498367719.0,-0.5441024303436279,0.1393445283174514,9.787650108337402,1.142971158027649,0.1103589460253715,0.6700811386108398
2498376052.0,-0.560053288936615,0.2187840044498443,9.730291366577148,1.2299314737319946,0.4023611843585968,0.7227952480316162
2498384385.0,-0.5554826259613037,0.011902330443263,9.81481647491455,0.9076019525527954,0.3849947452545166,0.7524052858352661
2498392718.0,-0.5811178684234619,0.0583600737154483,9.944839477539062,0.9511206150054932,0.0738842710852623,0.7997404932975769
2498401051.0,-0.5919478535652161,0.115167923271656,9.852890968322754,1.008893609046936,-0.0578753687441349,0.7012665271759033
2498409384.0,-0.5312774181365967,0.1948792040348053,9.836296081542969,0.9905408024787904,-0.1191574111580848,0.7571951746940613
2498417717.0,-0.4199291169643402,0.0348772630095481,9.74417495727539,0.9480468034744264,0.0253965128213167,0.8330389261245728
2498426050.0,-0.4323249757289886,-0.0402490459382534,9.835423469543455,0.7973070740699768,-0.1475123763084411,0.9136468768119812
2498434383.0,-0.5111068487167358,0.0725085362792015,9.901581764221191,0.8667984008789062,-0.3028883039951324,0.7991000413894653
2498442716.0,-0.5870552659034729,0.2713001668453216,9.73973274230957,1.0093928575515747,-0.0896242037415504,0.8330901265144348
2498451049.0,-0.5779640078544617,0.1200747713446617,9.81180477142334,0.9054504632949828,0.0602318756282329,0.92274010181427
2498459382.0,-0.5506476163864136,-0.1242304742336273,9.873784065246582,0.8720750212669373,-0.3490195870399475,0.969357967376709
2498467715.0,-0.5473713278770447,-0.061020903289318,9.972723007202148,0.8175935745239258,-0.5019364953041077,0.8597545623779297
2498476048.0,-0.519911527633667,0.1788282245397567,9.811683654785156,1.280173897743225,-0.339785635471344,0.8266482353210449
2498484381.0,-0.4439769685268402,0.2554208636283874,9.723782539367676,1.3753818273544312,0.2586013078689575,0.7908651232719421
2498492714.0,-0.4018685221672058,0.0522084459662437,9.706058502197266,1.2118476629257202,0.5654213428497314,0.899635910987854
2498501047.0,-0.4725672602653503,-0.0655988678336143,9.861209869384766,1.1580066680908203,0.4510026276111603,0.950403332710266
2498509380.0,-0.5401970148086548,0.0434678271412849,9.921672821044922,1.2648948431015017,0.055979911237955,0.937083899974823
2498517713.0,-0.546684205532074,0.190773531794548,9.790295600891112,1.388124942779541,0.2382251769304275,0.9072945713996888
2498526046.0,-0.5174145102500916,0.1367489546537399,9.738824844360352,1.445296049118042,0.6444668769836426,0.941182255744934
2498534379.0,-0.5172110199928284,-0.0171992648392915,9.798189163208008,1.213538646697998,0.8104472756385803,0.9172842502593994
2498542712.0,-0.5806989073753357,0.0227964837104082,9.938121795654297,1.327111840248108,0.6466185450553894,0.9732512831687928
2498551045.0,-0.5375113487243652,0.1693060845136642,9.86755084991455,1.4530954360961914,0.568815290927887,0.9511589407920836
2498559378.0,-0.4240256547927856,0.1095007210969924,9.722212791442873,1.5618791580200195,0.5449684262275696,0.906539022922516
2498567711.0,-0.3795012235641479,-0.0689748674631118,9.697602272033691,1.3081063032150269,0.5343001484870911,0.709219753742218
2498576044.0,-0.4265594780445099,-0.0250634215772151,9.846580505371094,1.257851004600525,0.6012300848960876,0.7224109768867493
2498584377.0,-0.4981237947940826,0.1536257416009903,9.695394515991213,1.5686925649642944,0.9684998393058776,0.6954777240753174
2498592710.0,-0.5054910778999329,0.1272945553064346,9.64633083343506,1.519039273262024,1.5010581016540527,0.5943398475646973
2498601043.0,-0.4905972182750702,-0.046696662902832,9.722857475280762,1.431105613708496,1.5643508434295654,0.6022546291351318
2498609376.0,-0.5599744319915771,-0.1166090369224548,9.981298446655272,1.5039012432098389,1.290534734725952,0.7223342061042786
2498617709.0,-0.5622247457504272,0.110218234360218,9.949691772460938,1.7961854934692385,1.0582393407821655,0.5936484336853027
2498626042.0,-0.475416898727417,0.292969137430191,9.63474941253662,1.875717639923096,1.3729870319366455,0.5051512122154236
2498634375.0,-0.3854435086250305,0.1055818945169448,9.548890113830566,1.714885950088501,1.585431694984436,0.5937508344650269
2498642708.0,-0.3931173682212829,-0.0667885318398475,9.779097557067873,1.5683467388153076,1.5749807357788086,0.4935990869998932
2498651041.0,-0.4586856067180633,0.0479758381843566,9.824052810668944,1.7837111949920654,1.74434232711792,0.5840173363685608
2498659374.0,-0.5108237862586975,0.2482994794845581,9.75328254699707,1.9239490032196045,1.9973338842391968,0.5578652024269104
2498667707.0,-0.5131767392158508,0.2375565320253372,9.777569770812988,1.6954060792922974,2.1258277893066406,0.4754258394241333
2498676040.0,-0.5646920204162598,0.0702087432146072,9.962774276733398,1.38237464427948,1.7224547863006592,0.5216339230537415
2498684373.0,-0.6006773114204407,0.0644832998514175,10.053874015808104,1.318710446357727,1.3723976612091064,0.3820235133171081
2498692706.0,-0.6076698303222656,0.1720723211765289,9.82154369354248,1.5875061750411987,1.2466576099395752,0.5267695784568787
2498701039.0,-0.4974033236503601,0.1039528027176857,9.693059921264648,1.431003451347351,1.48300039768219,0.5515128970146179
2498709372.0,-0.4354997277259826,-0.0650387182831764,9.836081504821776,1.437893629074097,1.3221172094345093,0.3403491377830505
2498717705.0,-0.497347354888916,-0.0591599084436893,9.86184787750244,1.508947491645813,1.034725546836853,0.442601203918457
2498726038.0,-0.5341747999191284,0.1232133284211158,9.74313259124756,1.7134003639221191,1.437509536743164,0.3941390514373779
2498734371.0,-0.5589250922203064,0.1755892634391784,9.753888130187988,1.6635035276412964,1.7195987701416016,0.4551777243614197
2498742704.0,-0.550693690776825,-0.0127458125352859,9.902430534362791,1.5869683027267456,1.4234213829040527,0.5006173849105835
2498751037.0,-0.5658698081970215,-0.0488267578184604,10.055931091308594,1.432181477546692,1.0795503854751587,0.4085342288017273
2498759370.0,-0.5940915942192078,0.1311260312795639,9.906879425048828,1.6128642559051514,1.0561134815216064,0.4604798853397369
2498767703.0,-0.542448103427887,0.3256201446056366,9.767544746398926,1.577760100364685,1.4117286205291748,0.4255805015563965
2498776036.0,-0.4393747448921203,0.2059032768011093,9.819266319274902,1.347628831863403,1.3725770711898804,0.4487997889518738
2498784369.0,-0.4417881965637207,-0.0021100887097418,9.927717208862305,1.200244665145874,0.9521963596343994,0.4762327075004577
2498792702.0,-0.4806855618953705,0.0272808484733104,9.850696563720703,1.3271887302398682,0.7492035031318665,0.4490815699100494
2498801035.0,-0.5444290041923523,0.1638959795236587,9.69867706298828,1.387177348136902,1.1920480728149414,0.5060732364654541
2498809368.0,-0.5291531682014465,0.1530826687812805,9.690842628479004,1.2568265199661257,1.4817707538604736,0.4253115952014923
2498817701.0,-0.5458261370658875,0.0511424355208873,9.892130851745604,1.173849105834961,1.434473991394043,0.470302939414978
2498826034.0,-0.5881069898605347,0.0510997585952281,9.969805717468262,1.1615030765533447,0.9771061539649964,0.5270384550094604
2498834367.0,-0.5993980169296265,0.1926729530096054,9.811407089233398,1.3707330226898191,1.00281023979187,0.524797260761261
2498842700.0,-0.5086290240287781,0.2010002434253692,9.700554847717283,1.3254982233047483,1.3148428201675415,0.5077381730079651
2498851033.0,-0.4058903455734253,0.0351814739406108,9.781330108642578,1.267763614654541,1.2147676944732666,0.3878635168075561
2498859366.0,-0.4083900451660156,0.039082758128643,9.816365242004396,1.2680968046188354,1.174271821975708,0.4494914412498474
2498867699.0,-0.4739289581775665,0.1818279922008514,9.686582565307615,1.5128153562545776,1.5533626079559326,0.4619399607181549
2498876032.0,-0.5550735592842102,0.2062307745218277,9.675917625427246,1.4893014430999756,2.046795129776001,0.3660146296024322
2498884365.0,-0.561914324760437,0.0256984736770391,9.847235679626465,1.302035570144653,1.8515633344650269,0.3805378675460815
2498892698.0,-0.5973124504089355,-0.0895678997039794,10.022956848144531,1.0338032245635986,1.1015018224716189,0.4043335020542145
2498901031.0,-0.5990647077560425,0.0322880111634731,9.92031955718994,1.239344835281372,0.6775733828544617,0.4347760677337646
2498909364.0,-0.5453842282295227,0.2136248499155044,9.681879997253418,1.374101161956787,0.8517501354217529,0.5108246803283691
2498917697.0,-0.4392703771591186,0.1466404348611831,9.642104148864746,1.1206868886947632,1.1521668434143066,0.4633486866950989
2498926030.0,-0.4027767777442932,-0.0652269423007965,9.765633583068848,0.9984045028686525,0.9136468768119812,0.5698270797729492
2498934363.0,-0.4539194107055664,-0.0246486961841583,9.806347846984863,1.2447876930236816,0.6335553526878357,0.4765656888484955
2498942696.0,-0.4801994860172272,0.0896448716521263,9.645374298095703,1.4554007053375244,1.2160358428955078,0.4065234959125519
2498951029.0,-0.4949942231178283,0.1468068361282348,9.63509750366211,1.427212476730347,1.7599923610687256,0.381024569272995
2498959362.0,-0.5309745073318481,0.0391356721520423,9.863425254821776,1.1917662620544434,1.5581779479980469,0.4599163830280304
2498967695.0,-0.5527788400650024,0.0292050577700138,9.998193740844728,1.2037153244018557,0.9352268576622008,0.396662026643753
2498976028.0,-0.5507795214653015,0.1061897575855255,9.782358169555664,1.4465000629425049,0.922791302204132,0.4707512557506561
2498984361.0,-0.5107988715171814,0.0836464762687683,9.662528038024902,1.3650721311569214,1.1851577758789062,0.5328145027160645
2498992694.0,-0.4184030294418335,-0.047081109136343,9.797083854675291,1.2084155082702637,1.2018839120864868,0.4482619166374206
2499001027.0,-0.4025259912014007,-0.0923931077122688,9.900978088378906,1.129113793373108,0.8487404584884644,0.586501955986023
2499009360.0,-0.4405080676078796,0.0169664099812507,9.7625732421875,1.2974249124526978,0.7740493416786194,0.5696477890014648
2499017693.0,-0.50770103931427,0.0756185799837112,9.560033798217772,1.32985258102417,1.2620004415512085,0.4983889162540436
2499026026.0,-0.4950044751167297,-0.0637506246566772,9.681442260742188,1.406054973602295,1.5109195709228516,0.4586356878280639
2499034359.0,-0.5122843384742737,-0.1688187271356582,9.93538761138916,1.3378698825836182,1.286539077758789,0.5529472827911377
2499042692.0,-0.5515204071998596,-0.0442978031933307,9.96719455718994,1.552209973335266,1.0729418992996216,0.4773597419261932
2499051025.0,-0.5332522988319397,0.2028692364692688,9.812846183776855,1.648339867591858,1.2828503847122192,0.5787919759750366
2499059358.0,-0.4865599870681762,0.2127587795257568,9.816201210021973,1.3477569818496704,1.1365163326263428,0.4698546826839447
2499067691.0,-0.4247429668903351,-0.0121955974027514,9.951908111572266,0.9151453375816344,0.2542212903499603,0.5227097272872925
2499076024.0,-0.4424459040164947,-0.0679305866360664,9.981399536132812,0.8541578650474548,-0.0894320979714393,0.6600276231765747
2499084357.0,-0.472123384475708,0.1266053169965744,9.742758750915527,1.0603653192520142,0.2565906345844269,0.6425715088844299
2499092690.0,-0.5090175867080688,0.1717541962862014,9.706672668457031,0.9409517645835876,0.681146502494812,0.6287397146224976
2499101023.0,-0.5421497225761414,0.0444835312664508,9.916958808898926,0.8646214008331299,0.292143166065216,0.65266352891922
2499109356.0,-0.6104236245155334,0.0060012354515492,10.07530117034912,0.5629752278327942,-0.1557217389345169,0.6312372088432312
2499117689.0,-0.6277979016304016,0.0893890783190727,10.091924667358398,0.9145562648773192,-0.7108846306800842,0.7291091084480286
2499126022.0,-0.5970478057861328,0.1996215432882309,9.72614288330078,1.2685065269470217,-0.4818549752235412,0.7836546897888184
2499134355.0,-0.4858997762203216,0.1544298827648162,9.63945770263672,1.2011538743972778,-0.045452456921339,0.9527470469474792
2499142688.0,-0.4848836660385132,0.0778518393635749,9.851841926574709,1.0802931785583496,0.1405068784952163,1.4596655368804932
2499151021.0,-0.3185268640518188,-0.0613792352378368,9.888739585876465,1.3560559749603271,0.2934494614601135,1.4530826807022097
2499159354.0,-0.4476763010025024,0.1610227674245834,9.75933074951172,1.3271119594573977,0.9360594153404236,1.141639232635498
2499167687.0,-0.5242208242416382,0.079341635107994,9.649481773376465,1.3458999395370483,1.3161873817443848,0.8818212151527405
2499176020.0,-0.5219864249229431,-0.1037796735763549,9.797351837158203,1.04442036151886,1.1841204166412354,0.9165029525756836
2499184353.0,-0.5755606889724731,-0.0503488630056381,10.081381797790527,1.1726068258285522,0.8039668202400208,0.8737399578094482
2499192686.0,-0.5433454513549805,0.2156078219413757,9.920502662658691,1.5133275985717771,0.9137494564056396,0.5767173171043396
2499201019.0,-0.5422212481498718,0.3014422655105591,9.905349731445312,1.038055419921875,1.0542948246002195,0.6295083165168762
2499209352.0,-0.405416190624237,0.1009264662861824,9.814579963684082,0.997277557849884,0.7374722957611084,0.6071726679801941
2499217685.0,-0.4235698878765106,-0.0004148648877162,9.858098030090332,0.7186201810836792,0.7595260739326477,0.692672848701477
2499226018.0,-0.4729892611503601,0.1518331468105316,9.926122665405272,0.9095742702484132,0.7489985823631287,0.538424015045166
2499234351.0,-0.4819813072681427,0.1987844258546829,9.804237365722656,1.1150132417678833,1.2874995470046997,0.5206605792045593
2499242684.0,-0.4803609549999237,0.1216911375522613,9.872608184814451,0.9822418093681335,1.5928339958190918,0.4933429658412933
2499251017.0,-0.5891162753105164,0.1024957224726677,10.040616035461426,0.7904039621353149,1.4212570190429688,0.5127713084220886
2499259350.0,-0.6006313562393188,0.1691361218690872,10.02600383758545,0.9275170564651488,1.1649866104125977,0.5333651900291443
2499267683.0,-0.582234263420105,0.1654094904661178,9.881810188293455,0.9362643361091614,0.888237714767456,0.5972599983215332
2499276016.0,-0.4505788683891296,0.0015594862634316,9.767428398132324,0.8073991537094116,0.8021737933158875,0.6464393138885498
2499284349.0,-0.4211951494216919,-0.0429742820560932,9.868727684020996,0.7664674520492554,0.8477157354354858,0.59866863489151
2499292682.0,-0.47464120388031,0.0832733958959579,9.85949993133545,1.1340701580047607,1.082483172416687,0.5794708132743835
2499301015.0,-0.5258249044418335,0.1582773476839065,9.651559829711914,1.2637423276901243,1.3257544040679932,0.5240032076835632
2499309348.0,-0.5737538933753967,0.0100419735535979,9.69268798828125,1.0030150413513184,1.5358935594558716,0.4918829500675201
2499317681.0,-0.6211816072463989,-0.1497520506381988,9.917074203491213,0.9545144438743592,1.0712896585464478,0.3835475742816925
2499326014.0,-0.5987430214881897,-0.11452417075634,9.937981605529783,1.288959503173828,0.7389194965362549,0.4746062159538269
2499334347.0,-0.5837622880935669,0.1284132748842239,9.68148708343506,1.4701931476593018,0.9904128909111024,0.4420633018016815
2499342680.0,-0.5405086278915405,0.1139755323529243,9.615132331848145,1.3170713186264038,1.07455575466156,0.3945488929748535
2499351013.0,-0.4533471763134002,-0.0595116540789604,9.798086166381836,1.1197775602340698,0.9758256077766418,0.4764760434627533
2499359346.0,-0.4595701694488525,-0.0807198360562324,9.822484016418455,1.0692150592803955,0.6316726803779602,0.529702365398407
2499367679.0,-0.5210774540901184,-0.0613713935017585,9.560897827148438,1.3143430948257446,0.8006753325462341,0.4868753552436828
2499376012.0,-0.5104796886444092,0.031862985342741,9.651328086853027,1.3670828342437744,1.2355793714523315,0.5153071284294128
2499384345.0,-0.4846459329128265,-0.0361724756658077,9.717270851135254,1.21987783908844,1.1336349248886108,0.5618994235992432
2499392678.0,-0.5528149008750916,-0.0757702738046646,9.877848625183104,1.2166633605957031,0.8436176180839539,0.7699510455131531
2499401011.0,-0.5129661560058594,0.0070455502718687,9.746099472045898,1.2066738605499268,0.7816824316978455,0.5424198508262634
2499409344.0,-0.4960854351520538,0.0189478807151317,9.627440452575684,1.295760154724121,0.7961544394493103,0.5513079762458801
2499417677.0,-0.4208661317825317,-0.1054972782731056,9.679906845092772,1.1689952611923218,0.8705894947052002,0.5863738656044006
2499426010.0,-0.3725412786006927,-0.1685923784971237,9.799736976623535,1.1697123050689695,0.6085044741630554,0.5837355852127075
2499434343.0,-0.3510186076164245,-0.047265987843275,9.714025497436523,1.302906513214111,0.6054564714431763,0.6247952580451965
2499442676.0,-0.3951344490051269,0.0380877628922462,9.525286674499512,1.462022066116333,1.0182043313980105,0.5076612830162048
2499451009.0,-0.4160937964916229,-0.0906528010964393,9.605175018310549,1.3964239358901978,1.214639663696289,0.5740534067153931
2499459342.0,-0.4241586923599243,-0.2569450139999389,9.816444396972656,1.3143304586410522,0.9496350288391112,0.5591715574264526
2499467675.0,-0.432282954454422,-0.2300011664628982,9.939336776733398,1.5054383277893066,0.6337858438491821,0.592828631401062
2499476008.0,-0.4424435198307037,-0.0286174975335598,9.741765022277832,1.7783833742141724,0.9768884778022766,0.479639321565628
2499484341.0,-0.3740598559379577,0.0225066989660263,9.64926528930664,1.676029086112976,1.0403605699539185,0.4532310962677002
2499492674.0,-0.2802926003932953,-0.0962040647864341,9.779726028442385,1.439916968345642,0.8090384006500244,0.4572525024414062
2499501007.0,-0.293538361787796,-0.2161016911268234,9.798629760742188,1.4110625982284546,0.7248059511184692,0.4993751049041748
2499509340.0,-0.3357291519641876,-0.1139391884207725,9.675557136535645,1.7542420625686646,0.8692190051078796,0.5136423110961914
2499517673.0,-0.3489077687263489,0.0132630616426467,9.605439186096191,1.8358105421066284,1.359744429588318,0.5712614059448242
2499526006.0,-0.3984862267971039,-0.044583112001419,9.804986953735352,1.7972612380981443,1.5630191564559937,0.549540638923645
2499534339.0,-0.4182024896144867,-0.1121139824390411,9.974624633789062,1.6781678199768066,1.2735652923583984,0.4783970713615417
2499542672.0,-0.4330312311649322,-0.0471925027668476,9.88942813873291,1.846671223640442,0.9491996169090272,0.5184705257415771
2499551005.0,-0.4214241802692413,0.1099054887890815,9.669933319091797,1.79641592502594,1.2972712516784668,0.5559441447257996
2499559338.0,-0.3661898076534271,0.0542806759476661,9.729528427124023,1.7171909809112549,1.2771384716033936,0.5922139286994934
2499567671.0,-0.3312954604625702,-0.1054897308349609,9.880081176757812,1.7103776931762695,1.2124625444412231,0.5558160543441772
2499576004.0,-0.3383920192718506,-0.0519302487373352,9.844694137573242,1.8194817304611208,1.0529755353927612,0.5643841028213501
2499584337.0,-0.391650378704071,0.1677155196666717,9.633628845214844,1.7791006565093994,1.4327448606491089,0.4732101857662201
2499592670.0,-0.4635247886180877,0.1791571378707885,9.636521339416504,1.6707525253295898,1.7427798509597778,0.5867325067520142
2499601003.0,-0.4889899790287018,0.0014088477473706,9.880297660827637,1.535752773284912,1.6803964376449585,0.5622068643569946
2499609336.0,-0.5314255356788635,-0.0943370014429092,9.958331108093262,1.637389898300171,1.1813796758651731,0.5476579070091248
2499617669.0,-0.5506260991096497,0.0843233689665794,9.846921920776367,1.9308140277862549,1.170967698097229,0.5795860886573792
2499626002.0,-0.5124847888946533,0.2454337179660797,9.693737983703612,1.868340849876404,1.4007272720336914,0.6238987445831299
2499634335.0,-0.4681986570358276,0.1568577289581298,9.758697509765623,1.6297696828842163,1.4696038961410522,0.470008373260498
2499642668.0,-0.4329273700714111,0.0086779445409774,9.87648582458496,1.5285934209823608,1.1064709424972534,0.5003868937492371
2499651001.0,-0.4525996744632721,0.0075899353250861,9.824156761169434,1.588044047355652,1.0638999938964844,0.5915735960006714
2499659334.0,-0.5176225304603577,0.1422914713621139,9.674010276794434,1.7424466609954834,1.4299274682998655,0.5937763452529907
2499667667.0,-0.558310866355896,0.1257506310939788,9.75533390045166,1.6383121013641355,1.7941235303878784,0.6317494511604309
2499676000.0,-0.5988092422485352,0.0309122074395418,9.948171615600586,1.6551278829574585,1.332542061805725,0.4680361151695251
2499684333.0,-0.5898577570915222,0.0397948883473873,9.913145065307615,1.5934741497039795,0.9179245233535768,0.6253331303596497
2499692666.0,-0.5917860269546509,0.1737934052944183,9.79750633239746,1.6007105112075806,1.030998468399048,0.5398200154304504
2499700999.0,-0.5578995943069458,0.1873739510774612,9.75283432006836,1.6360450983047483,1.2201212644577026,0.6314036846160889
2499709332.0,-0.4655520319938659,0.0102460095658898,9.907673835754396,1.5242135524749756,1.2469136714935305,0.5709284543991089
2499717665.0,-0.4291796088218689,0.0224969051778316,9.85573387145996,1.506744623184204,0.7697718143463135,0.5255657434463501
2499725998.0,-0.4759146869182586,0.1389209032058715,9.700053215026855,1.567347764968872,0.9877489805221558,0.5886278748512268
2499734331.0,-0.5251513123512268,0.1873799562454223,9.7036714553833,1.5460880994796753,1.485971450805664,0.4937784373760223
2499742664.0,-0.558529794216156,0.0357340648770332,9.788116455078123,1.5032483339309692,1.5596508979797363,0.4650008380413055
2499750997.0,-0.5800963044166565,-0.1348680108785629,9.92495346069336,1.476045846939087,1.008176326751709,0.5097233057022095
2499759330.0,-0.5531797409057617,0.01758130826056,9.903388023376465,1.540427327156067,0.8170812726020813,0.4930868446826935
2499767663.0,-0.5239287614822388,0.2470313906669616,9.752864837646484,1.686479568481445,1.1450713872909546,0.5278453230857849
2499775996.0,-0.4251792132854461,0.2145076841115951,9.754206657409668,1.592782735824585,1.2833116054534912,0.4839937686920166
2499784329.0,-0.3679826259613037,-0.0199220553040504,9.843024253845217,1.323487401008606,0.9627878665924072,0.4832637012004852
2499792662.0,-0.3550673723220825,-0.0315369963645935,9.85201930999756,1.3651875257492063,0.7040840983390808,0.4996312260627746
2499800995.0,-0.4018594026565552,0.1360637843608856,9.661322593688965,1.5002256631851196,1.1134507656097412,0.4768601655960083
2499809328.0,-0.4192835688591003,0.0941035002470016,9.67620849609375,1.4082577228546145,1.567091464996338,0.3906042575836181
2499817661.0,-0.451382577419281,-0.0480289421975612,9.88392162322998,1.4014700651168823,1.4674524068832395,0.4820471107959747
2499825994.0,-0.4609268307685852,-0.1165547370910644,9.919483184814451,1.303585171699524,1.0390413999557495,0.440206229686737
2499834327.0,-0.4494742453098297,0.0198071766644716,9.791513442993164,1.4415178298950195,0.9882484674453736,0.5764739513397217
2499842660.0,-0.4076326191425323,0.0720553994178772,9.72021484375,1.5199358463287354,1.1682524681091309,0.4353266954421997
2499850993.0,-0.3551662862300873,-0.0973406508564949,9.823777198791504,1.4454368352890017,1.2005136013031006,0.4915115237236023
2499859326.0,-0.3330642879009247,-0.1789461821317672,9.880826950073242,1.4755592346191406,0.859741747379303,0.4647702574729919
2499867659.0,-0.3653931617736816,-0.0566801615059375,9.744417190551758,1.702475666999817,0.8570778965950012,0.6196339726448059
2499875992.0,-0.4200873374938965,0.0730930566787719,9.6312255859375,1.707521677017212,1.5846247673034668,0.5861049294471741
2499884325.0,-0.4851434230804443,-0.0160390827804803,9.768739700317385,1.6220088005065918,1.7890903949737549,0.5856310725212097
2499892658.0,-0.5051246881484985,-0.1819554269313812,9.945088386535645,1.522907018661499,1.3814139366149902,0.5062012672424316
2499900991.0,-0.5374929308891296,-0.0944831371307373,9.927783966064451,1.7993743419647217,1.0094057321548462,0.5371561050415039
2499909324.0,-0.5320656299591064,0.1633558571338653,9.736944198608398,1.762476921081543,1.1800861358642578,0.4827899038791656
2499917657.0,-0.4860121607780456,0.2450685203075409,9.760061264038086,1.7128366231918335,1.4084372520446775,0.5417538285255432
2499925990.0,-0.4377532303333282,0.0480799041688442,9.859634399414062,1.5574735403060913,1.1913179159164429,0.5028074383735657
2499934323.0,-0.4315773546695709,-0.0846598669886589,9.813989639282228,1.584253191947937,0.8225114345550537,0.4951615631580353
2499942656.0,-0.488855630159378,0.0755768716335296,9.688556671142578,1.5562824010849,1.154907464981079,0.4820982813835144
2499950989.0,-0.5375126600265503,0.1462932825088501,9.660689353942873,1.6169883012771606,1.6525408029556274,0.4665248692035675
2499959322.0,-0.5825843214988708,0.0877152606844902,9.866045951843262,1.5178101062774658,1.840959310531616,0.4563048183917999
2499967655.0,-0.5857967734336853,-0.0178763978183269,9.94597053527832,1.4668375253677368,1.2775484323501587,0.5128865838050842
2499975988.0,-0.5766192674636841,0.0248195603489875,9.843420028686523,1.46148419380188,0.7527895569801331,0.4492608606815338
2499984321.0,-0.5498791337013245,0.0909356251358985,9.705485343933104,1.5280556678771973,1.241970181465149,0.6342980861663818
2499992654.0,-0.4646333754062652,0.0067019937559962,9.789627075195312,1.5106122493743896,1.3135619163513184,0.3971102833747864
2500000987.0,-0.3896630704402923,-0.1238097921013832,9.893593788146973,1.4698472023010254,1.0230836868286133,0.4581874012947082
2500009320.0,-0.428076297044754,-0.0335362814366817,9.80791187286377,1.5620330572128296,0.8523905873298645,0.4061137437820434
2500017653.0,-0.4683266580104828,0.1293069571256637,9.680800437927246,1.6246596574783323,1.3090922832489014,0.5979642868041992
2500025986.0,-0.5229843258857727,0.0674001947045326,9.724849700927734,1.6177438497543335,1.6417443752288818,0.6076720952987671
2500034319.0,-0.5280247926712036,-0.1048611402511596,9.92394733428955,1.5918092727661133,1.384539008140564,0.3995948731899261
2500042652.0,-0.5197927355766296,-0.1355184763669967,9.970542907714844,1.6189347505569458,0.9104963541030884,0.4494913816452026
2500050985.0,-0.4932988286018371,0.0840329751372337,9.788078308105469,1.8052399158477783,0.9018515944480896,0.4640530347824096
2500059318.0,-0.4518982470035553,0.2680758833885193,9.70938777923584,1.8775874376297,1.3848720788955688,0.482328861951828
2500067651.0,-0.378788024187088,0.1166685745120048,9.813362121582031,1.6783854961395264,1.388662815093994,0.4790758192539215
2500075984.0,-0.376464307308197,-0.074002519249916,9.860974311828612,1.5560773611068726,0.9457159042358398,0.4756434857845306
2500084317.0,-0.4055346548557281,-0.0094580091536045,9.784797668457031,1.5466771125793457,0.9092413187026978,0.4622984826564789
2500092650.0,-0.4439140558242798,0.1869235932826995,9.645523071289062,1.605974197387695,1.3123325109481812,0.5262060165405273
2500100983.0,-0.453793317079544,0.1569864153861999,9.776549339294434,1.4964220523834229,1.6559473276138306,0.4730821251869201
2500109316.0,-0.4656343162059784,0.0135645158588886,9.894523620605469,1.428236961364746,1.2076983451843262,0.6269725561141968
2500117649.0,-0.4924429357051849,0.001147297443822,9.868086814880373,1.5264290571212769,0.9698829054832458,0.5855414271354675
2500125982.0,-0.4692741930484772,0.1334791183471679,9.713414192199709,1.537251114845276,1.1121060848236084,0.5682133436203003
2500134315.0,-0.4192540049552917,0.0713825896382331,9.764185905456545,1.5693713426589966,1.3949896097183228,0.5883973836898804
2500142648.0,-0.358900636434555,-0.0925007089972496,9.89515495300293,1.4475243091583252,1.2060846090316772,0.4938552379608154
2500150981.0,-0.3451986908912658,-0.1084936633706092,9.838751792907717,1.527645707130432,0.9639276266098022,0.5281527042388916
2500159314.0,-0.3806840479373932,0.0713756531476974,9.699949264526367,1.5073848962783811,1.0980693101882937,0.5177532434463501
2500167647.0,-0.441464364528656,0.1081745028495788,9.630975723266602,1.4541840553283691,1.6468287706375122,0.5449299812316895
2500175980.0,-0.4624050855636596,-0.1037367805838584,9.864740371704102,1.5436545610427856,1.6122493743896484,0.5414208769798279
2500184313.0,-0.5097225904464722,-0.225768893957138,10.010653495788574,1.6175005435943604,1.0039371252059937,0.5478757619857788
2500192646.0,-0.5462950468063354,-0.040883868932724,9.874058723449709,1.674902081489563,0.9601112604141236,0.4797930419445038
2500200979.0,-0.5041955709457397,0.2025209218263626,9.729625701904297,1.67414653301239,1.2779711484909058,0.469457745552063
2500209312.0,-0.4535002112388611,0.1455539464950561,9.73762321472168,1.6505043506622314,1.472306251525879,0.516767144203186
2500217645.0,-0.4414945840835571,-0.1048180386424064,9.848626136779783,1.454530119895935,1.0913201570510864,0.4342125654220581
2500225978.0,-0.4367730617523193,-0.147180289030075,9.793289184570312,1.6031183004379272,0.9191924333572388,0.4721472263336181
2500234311.0,-0.4901256561279297,0.058571483939886,9.705795288085938,1.6379408836364746,1.199117660522461,0.5894476175308228
2500242644.0,-0.5030323266983032,0.1503497064113617,9.77297592163086,1.658688187599182,1.792650580406189,0.5568662881851196
2500250977.0,-0.5387276411056519,0.0512959286570549,9.951793670654297,1.6070497035980225,1.5043623447418213,0.514320969581604
2500259310.0,-0.5409004092216492,-0.0847240984439849,9.91792106628418,1.4332318305969238,1.0501708984375,0.4904998540878296
2500267643.0,-0.5546764135360718,0.0352168455719947,9.812806129455566,1.5805903673171997,0.9532210230827332,0.5471329092979431
2500275976.0,-0.5232369899749756,0.062105905264616,9.742109298706056,1.5757747888565063,1.219532132148743,0.5717225074768066
2500284309.0,-0.4573149383068084,-0.0595381967723369,9.834368705749512,1.5777215957641602,1.3438379764556885,0.4497731328010559
2500292642.0,-0.4144926965236664,-0.1276371926069259,9.891511917114258,1.63937509059906,0.943205714225769,0.4287950992584228
2500300975.0,-0.4262606799602508,0.0048333564773201,9.74937343597412,1.5756980180740356,0.954271137714386,0.5953644514083862
2500309308.0,-0.4750369191169739,0.1874113827943802,9.659127235412598,1.6727633476257324,1.3790193796157837,0.4938680827617645
2500317641.0,-0.517301082611084,0.0509459599852561,9.7992582321167,1.7069326639175415,1.6394391059875488,0.5354399681091309
2500325974.0,-0.5228148102760315,-0.1870626956224441,9.958938598632812,1.5547200441360474,1.059263825416565,0.4482362866401672
2500334307.0,-0.5287469625473022,-0.1430116593837738,9.892842292785645,1.751616597175598,0.8225370645523071,0.48191899061203
2500342640.0,-0.5266909003257751,0.1738160550594329,9.736929893493652,1.7990797758102417,1.1255534887313845,0.4746702015399933
2500350973.0,-0.4651819765567779,0.3093005120754242,9.714091300964355,1.754664659500122,1.501442313194275,0.4486973285675049
2500359306.0,-0.430109441280365,0.0778217166662216,9.83566188812256,1.604590892791748,1.2395880222320557,0.484044998884201
2500367639.0,-0.3988935053348541,-0.1012714579701423,9.830982208251951,1.5124181509017944,0.7874072194099426,0.4826234579086303
2500375972.0,-0.4048272669315338,0.0320789255201816,9.735482215881348,1.5336779356002808,1.0410137176513672,0.4906406700611114
2500384305.0,-0.4361211955547333,0.1983009725809097,9.656973838806152,1.7703789472579956,1.5833439826965332,0.5006814002990723
2500392638.0,-0.4669512212276459,0.158289834856987,9.856878280639648,1.6019269227981567,1.637197732925415,0.5150381922721863
2500400971.0,-0.4986182749271393,0.01007566973567,9.947565078735352,1.4628416299819946,1.3118714094161987,0.5585824251174927
2500409304.0,-0.5056895613670349,0.0355684980750083,9.84186840057373,1.3818495273590088,0.91761714220047,0.4148353636264801
2500417637.0,-0.4588040113449096,0.1516773700714111,9.685128211975098,1.5818966627120972,1.2411761283874512,0.4335080981254577
2500425970.0,-0.4147569239139557,0.0953155383467674,9.757407188415527,1.3695034980773926,1.4194002151489258,0.4807151854038238
2500434303.0,-0.3679113090038299,-0.0915035828948021,9.867151260375977,1.4434133768081665,1.122620701789856,0.4932277500629425
2500442636.0,-0.3633438050746918,-0.0449814312160015,9.80540943145752,1.5429372787475586,0.8700002431869507,0.4643988609313965
2500450969.0,-0.4440779983997345,0.1552534997463226,9.676300048828123,1.6397335529327393,1.2754223346710205,0.4938552379608154
2500459302.0,-0.4964198172092438,0.1493345201015472,9.664337158203123,1.5656956434249878,1.7699179649353027,0.5176635980606079
2500467635.0,-0.5019691586494446,-0.0795099139213562,9.936291694641112,1.4223840236663818,1.4819626808166504,0.4139003753662109
2500475968.0,-0.5135592818260193,-0.2079997956752777,9.985065460205078,1.5496611595153809,0.929591715335846,0.5255528688430786
2500484301.0,-0.5188174843788147,0.0255648549646139,9.825133323669434,1.730869174003601,1.001657485961914,0.4499780535697937
2500492634.0,-0.4784867763519287,0.2233061343431472,9.669599533081056,1.6836364269256592,1.350907564163208,0.4214950799942016
2500500967.0,-0.4224948287010193,0.1208265125751495,9.75840187072754,1.5092803239822388,1.3963472843170166,0.4452906847000122
2500509300.0,-0.4299864768981933,-0.1357950866222381,9.87137508392334,1.310206651687622,1.0074975490570068,0.5055866241455078
2500517633.0,-0.4616849422454834,-0.0847145393490791,9.769830703735352,1.648186445236206,0.8645700216293335,0.5077124834060669
2500525966.0,-0.5264570116996765,0.087442360818386,9.698077201843262,1.6681911945343018,1.4449374675750732,0.6495898365974426
2500534299.0,-0.5182576775550842,0.1127862781286239,9.768491744995115,1.6012738943099976,1.7530637979507446,0.5750139951705933
2500542632.0,-0.5356351137161255,-0.0462293252348899,9.964951515197754,1.5372765064239502,1.4107422828674316,0.5015138983726501
2500550965.0,-0.5241127610206604,-0.0777346268296241,9.891461372375488,1.5103306770324707,0.8909784555435181,0.5886023640632629
2500559298.0,-0.5156174302101135,0.0497062616050243,9.736611366271973,1.47430419921875,0.9896060824394226,0.6001671552658081
2500567631.0,-0.4599567651748657,0.1031180322170257,9.705005645751951,1.559292197227478,1.2633196115493774,0.4608768820762634
2500575964.0,-0.4190588891506195,-0.092533990740776,9.857508659362791,1.516106367111206,1.3471806049346924,0.5163317322731018
2500584297.0,-0.4012428820133209,-0.1391435861587524,9.914176940917969,1.6172059774398804,0.8968567848205566,0.536464512348175
2500592630.0,-0.445700854063034,0.0183558631688356,9.745168685913086,1.6093294620513916,1.0685875415802002,0.4927794337272644
2500600963.0,-0.4698487818241119,0.1411030143499374,9.620100021362305,1.630154013633728,1.4714736938476562,0.5609388947486877
2500609296.0,-0.5288150906562805,0.0088239340111613,9.811667442321776,1.5949857234954834,1.7186000347137451,0.3994155824184418
2500617629.0,-0.5152285695075989,-0.2404133379459381,10.006425857543944,1.5668611526489258,1.0034760236740112,0.5628343820571899
2500625962.0,-0.4881316721439361,-0.1247449740767479,9.903971672058104,1.6227000951766968,0.7534555196762085,0.4972107112407684
2500634295.0,-0.5170599222183228,0.1921384930610656,9.719268798828123,1.8213896751403809,1.0975828170776367,0.5204172730445862
2500642628.0,-0.415887713432312,0.1593254953622818,9.75441551208496,1.6732372045516968,1.5913996696472168,0.5792787671089172
2500650961.0,-0.3683154881000519,-0.0253628604114055,9.846842765808104,1.5706264972686768,1.2110025882720947,0.4820470511913299
2500659294.0,-0.3867439329624176,-0.1722434759140014,9.761051177978516,1.583228588104248,0.8222296833992004,0.52254319190979
2500667627.0,-0.4309101700782776,0.035977303981781,9.733399391174316,1.6225464344024658,1.1795995235443115,0.5392948389053345
2500675960.0,-0.4590411186218261,0.1769214868545532,9.698319435119627,1.7840955257415771,1.6996452808380127,0.5219541192054749
2500684293.0,-0.5109726190567017,0.0685063824057579,9.846290588378906,1.6146191358566284,1.5677449703216553,0.5228121876716614
2500692626.0,-0.5081015825271606,-0.0829009935259819,9.96700954437256,1.4947314262390137,1.0646684169769287,0.4248248934745788
2500700959.0,-0.5074312686920166,0.0465765744447708,9.801738739013672,1.5735210180282593,0.8504054546356201,0.497031420469284
2500709292.0,-0.4588697254657745,0.1467427015304565,9.658185958862305,1.7402950525283811,1.3240123987197876,0.490909606218338
2500717625.0,-0.4291068017482757,0.0933747887611389,9.79807949066162,1.437778115272522,1.3528413772583008,0.5085706114768982
2500725958.0,-0.3880928158760071,-0.0761350318789482,9.898880004882812,1.4462436437606812,0.948405385017395,0.5475170016288757
2500734291.0,-0.3963798582553863,-0.0072557120583951,9.79792022705078,1.6137351989746094,0.908985197544098,0.5997188687324524
2500742624.0,-0.4744093418121338,0.1742657870054245,9.666044235229492,1.6345596313476562,1.3394582271575928,0.545570433139801
2500750957.0,-0.4758277237415313,0.1276034712791443,9.698566436767578,1.5504041910171509,1.785901427268982,0.5109015703201294
2500759290.0,-0.5438058376312256,-0.0996905118227005,9.996856689453123,1.4964863061904907,1.4204630851745603,0.4352883398532867
2500767623.0,-0.5135529637336731,-0.1475028991699218,9.90589427947998,1.586827516555786,0.7984470129013062,0.5328017473220825
2500775956.0,-0.5107584595680237,0.1198950931429863,9.770108222961426,1.791062593460083,1.0547044277191162,0.4682666361331939
2500784289.0,-0.4864636659622192,0.3117028474807739,9.675138473510742,1.566989183425903,1.3076963424682615,0.4575086534023285
2500792622.0,-0.4282641410827636,0.087214395403862,9.809785842895508,1.5241494178771973,1.3562992811203003,0.4725057780742645
2500800955.0,-0.4090966880321502,-0.1209537908434867,9.871051788330078,1.4223198890686035,0.9597780704498292,0.4482619166374206
2500809288.0,-0.4523048996925354,-0.0185621567070484,9.74013614654541,1.5514925718307495,0.9673087000846864,0.477923184633255
2500817621.0,-0.4791641533374786,0.1673709750175476,9.68857479095459,1.6036944389343262,1.3530845642089844,0.5288954973220825
2500825954.0,-0.4966376721858978,0.1450536400079727,9.748987197875977,1.5118032693862915,1.7404872179031372,0.4606207609176636
2500834287.0,-0.5175974369049072,-0.0432127490639686,9.984402656555176,1.3677361011505127,1.3371270895004272,0.549694299697876
2500842620.0,-0.534894585609436,-0.0385097377002239,9.908687591552734,1.5490591526031494,0.8130085468292236,0.5015395283699036
2500850953.0,-0.5134411454200745,0.1207667961716651,9.711109161376951,1.464314579963684,1.079588770866394,0.4870034456253052
2500859286.0,-0.4526149928569793,0.1087653189897537,9.736021041870115,1.489429235458374,1.4560539722442627,0.6309426426887512
2500867619.0,-0.4022495448589325,-0.0818656235933303,9.862268447875977,1.3979096412658691,1.3068510293960571,0.5011041164398193
2500875952.0,-0.3801634907722473,-0.0877291783690452,9.853650093078612,1.4969855546951294,0.7804786562919617,0.5923420190811157
2500884285.0,-0.4272440969944,0.0719161182641983,9.664102554321287,1.5048874616622925,0.9752618074417114,0.5118492841720581
2500892618.0,-0.4790744483470917,0.1422870904207229,9.674683570861816,1.6328177452087402,1.7439322471618652,0.4928306937217712
2500900951.0,-0.4708165228366852,-0.0613437741994857,9.89891242980957,1.3794418573379517,1.525545358657837,0.550565242767334
2500909284.0,-0.4868725836277008,-0.2225939482450485,9.991880416870115,1.5338062047958374,0.9060523509979248,0.5987072587013245
2500917617.0,-0.4779539704322815,-0.0764640569686889,9.814481735229492,1.6781678199768066,0.8153266906738281,0.5411263108253479
2500925950.0,-0.4542510509490967,0.1961796134710312,9.68131160736084,1.7466089725494385,1.296899914741516,0.5877441763877869
2500934283.0,-0.4261122643947601,0.1329440027475357,9.759096145629885,1.58088481426239,1.445846676826477,0.4360311031341553
2500942616.0,-0.4204040169715881,-0.1123981401324272,9.867191314697266,1.3932349681854248,1.0502092838287354,0.5513463020324707
2500950949.0,-0.4154263138771057,-0.1398942172527313,9.77384090423584,1.538647174835205,0.8862782120704651,0.4631054103374481
2500959282.0,-0.4589002430438995,0.0223966781049966,9.677196502685549,1.5934486389160156,1.2620773315429688,0.557685911655426
2500967615.0,-0.4718495607376098,0.1319489777088165,9.74327278137207,1.649633765220642,1.6918716430664062,0.4080604016780853
2500975948.0,-0.5064529180526733,-0.0259491559118032,9.908576965332031,1.4418636560440063,1.503978252410889,0.5645248293876648
2500984281.0,-0.5192296504974365,-0.0956803634762764,9.932703018188477,1.5220361948013306,0.9907201528549194,0.5449044108390808
2500992614.0,-0.4944946765899658,0.0389416813850402,9.7385892868042,1.6309990882873535,0.9498142004013062,0.5548170804977417
2501000947.0,-0.4641738831996918,0.126851886510849,9.66115379333496,1.6602506637573242,1.4203989505767822,0.6175719499588013
2501009280.0,-0.4237050116062164,-0.0078218169510364,9.815650939941406,1.525417447090149,1.4193487167358398,0.5003868937492371
2501017613.0,-0.3928481638431549,-0.1301387101411819,9.916021347045898,1.6125569343566897,0.8919772505760193,0.4734919369220733
2501025946.0,-0.4141047298908233,0.0007980442605912,9.770146369934082,1.6637084484100342,0.812342643737793,0.4980047345161438
2501034279.0,-0.4953304827213287,0.1725603193044662,9.61672306060791,1.6016452312469482,1.5488286018371582,0.5086602568626404
2501042612.0,-0.518258810043335,0.0589385516941547,9.792038917541504,1.6233916282653809,1.7819693088531494,0.49154993891716
2501050945.0,-0.5336931943893433,-0.1764754652976989,9.967405319213867,1.5924755334854126,1.310385823249817,0.4577904045581817
2501059278.0,-0.5093353986740112,-0.1351504325866699,9.903390884399414,1.64821195602417,0.7936698794364929,0.4961093068122864
2501067611.0,-0.4984779953956604,0.1435644626617431,9.72923183441162,1.6837517023086548,1.028052806854248,0.5785230398178101
2501075944.0,-0.4723118245601654,0.2433873862028122,9.67727279663086,1.6173725128173828,1.504516363143921,0.5267183780670166
2501084277.0,-0.4196118414402008,0.0007271523354575,9.826967239379885,1.511508584022522,1.2868462800979614,0.506380558013916
2501092610.0,-0.4113016724586487,-0.1519736498594284,9.858963966369627,1.5533497333526611,0.8830252289772034,0.5551117062568665
2501100943.0,-0.454132080078125,-0.0009552699048072,9.722878456115724,1.631421685218811,1.0010040998458862,0.5722731947898865
2501109276.0,-0.502040684223175,0.1934652775526046,9.669334411621094,1.717460036277771,1.661083102226257,0.533032238483429
2501117609.0,-0.5310001969337463,0.1540388464927673,9.83994483947754,1.5768762826919556,1.563172698020935,0.4714939892292022
2501125942.0,-0.5271491408348083,-0.0135798705741763,9.947793006896973,1.458589792251587,1.2168939113616943,0.4325348138809204
2501134275.0,-0.5551692247390747,-0.0007229769835248,9.850847244262695,1.518578290939331,0.7727429866790771,0.5246691703796387
2501142608.0,-0.5039126873016357,0.1481363773345947,9.709674835205078,1.6245700120925903,1.2579022645950315,0.4795624613761902
2501150941.0,-0.4443506002426147,0.0996072962880134,9.720359802246094,1.5634033679962158,1.4924006462097168,0.529638409614563
2501159274.0,-0.3982791304588318,-0.0730171650648117,9.873011589050291,1.546472191810608,1.195301175117493,0.5572248697280884
2501167607.0,-0.3789072036743164,-0.0589643009006977,9.841912269592283,1.5653499364852903,0.8946667313575745,0.5396022796630859
2501175940.0,-0.4086194336414337,0.155188575387001,9.655674934387209,1.6388627290725708,1.1386935710906982,0.4981071949005127
2501184273.0,-0.4558417201042175,0.177397683262825,9.688849449157717,1.5658111572265625,1.6731603145599363,0.4738248884677887
2501192606.0,-0.4885713160037994,-0.066604770720005,9.924699783325195,1.4628417491912842,1.592501163482666,0.5452118515968323
2501200939.0,-0.511593222618103,-0.178210824728012,9.999743461608888,1.4785687923431396,0.9015570282936096,0.552050769329071
2501209272.0,-0.4970950782299042,0.0367682501673698,9.818760871887209,1.8023585081100464,0.8411329984664917,0.5393717885017395
2501217605.0,-0.4922301471233368,0.2460221052169799,9.699735641479492,1.6292316913604736,1.374882459640503,0.5501809120178223
2501225938.0,-0.4224352240562439,0.1335317939519882,9.762303352355955,1.4675291776657104,1.391710877418518,0.401387870311737
2501234271.0,-0.3919668197631836,-0.1132658496499061,9.833521842956545,1.3868956565856934,0.9165412783622742,0.4758228361606598
2501242604.0,-0.3870559334754944,-0.1155113354325294,9.778023719787598,1.4978564977645874,0.8618294596672058,0.5228762030601501
2501250937.0,-0.4214594662189483,0.0866218656301498,9.681574821472168,1.566656231880188,1.39083993434906,0.5222870111465454
2501259270.0,-0.4617952704429626,0.1635298877954483,9.771798133850098,1.5970603227615356,1.91155207157135,0.4620680212974548
2501267603.0,-0.5068308711051941,-0.0068588056601583,9.945717811584473,1.4383544921875,1.496498703956604,0.4966727793216705
2501275936.0,-0.5089434385299683,-0.0625521466135978,9.909730911254885,1.5034658908843994,0.9862633347511292,0.535965085029602
2501284269.0,-0.5294378995895386,0.0678053796291351,9.747502326965332,1.535457968711853,1.0406678915023804,0.6293289661407471
2501292602.0,-0.4830700755119324,0.1094957962632179,9.68799114227295,1.51371169090271,1.371296525001526,0.4761301875114441
2501300935.0,-0.4002790153026581,-0.0495249330997467,9.847600936889648,1.6195238828659058,1.3449649810791016,0.4563303887844085
2501309268.0,-0.383871853351593,-0.1235673651099205,9.850153923034668,1.4476524591445925,0.8477926850318909,0.4414741396903991
2501317601.0,-0.4267567098140716,0.0319784954190254,9.736682891845703,1.5333704948425293,1.0565872192382812,0.5618225932121277
2501325934.0,-0.47553151845932,0.1845152676105499,9.658555030822754,1.6342264413833618,1.5493922233581543,0.5502065420150757
2501334267.0,-0.5050762891769409,-0.0314510352909565,9.83285140991211,1.4946290254592896,1.7082006931304932,0.4804590344429016
2501342600.0,-0.535151481628418,-0.2185017466545105,9.994423866271973,1.379954218864441,1.15800678730011,0.5173435807228088
2501350933.0,-0.5270299315452576,-0.0913330763578414,9.864686012268066,1.7225699424743652,0.8154675364494324,0.4725697934627533
2501359266.0,-0.520033061504364,0.1684002876281738,9.719470977783203,1.807007431983948,1.2210818529129028,0.4957892000675201
2501367599.0,-0.4616356492042541,0.1785314828157425,9.705799102783203,1.5976238250732422,1.5651448965072632,0.4687532782554626
2501375932.0,-0.4428852498531341,-0.0608556158840656,9.852453231811523,1.442529797554016,1.0861846208572388,0.5550989508628845
2501384265.0,-0.4247222542762756,-0.1481121033430099,9.824427604675291,1.5173102617263794,0.8409408926963806,0.4360823333263397
2501392598.0,-0.4652923941612243,0.0357729382812976,9.67603874206543,1.6459965705871582,1.0518487691879272,0.4470196664333343
2501400931.0,-0.490752249956131,0.1462788134813308,9.705122947692873,1.6843154430389404,1.607882380485535,0.3645673990249634
2501409264.0,-0.5067712664604187,0.0162697583436965,9.88651180267334,1.6312553882598877,1.56762957572937,0.5437774062156677
2501417597.0,-0.5126143097877502,-0.0523910261690616,9.95667839050293,1.460997462272644,0.9852643013000488,0.5039471983909607
2501425930.0,-0.5039342641830444,0.045506801456213,9.771384239196776,1.7048964500427246,0.7919793128967285,0.5166007280349731
2501434263.0,-0.4970555007457733,0.1444088816642761,9.702852249145508,1.6387730836868286,1.255789041519165,0.4468659460544586
2501442596.0,-0.4108825623989105,0.042532131075859,9.775766372680664,1.645304799079895,1.4602930545806885,0.5659465193748474
2501450929.0,-0.3970088064670563,-0.1173968091607093,9.877111434936523,1.6027979850769043,0.9612125158309937,0.5161908864974976
2501459262.0,-0.3778061270713806,-0.0098920967429876,9.773971557617188,1.5458317995071411,0.8896976113319397,0.5061756372451782
2501467595.0,-0.4578612744808197,0.1833734661340713,9.593104362487791,1.577542424201965,1.4479087591171265,0.4545886814594269
2501475928.0,-0.5050235986709595,0.080968476831913,9.763493537902832,1.5411444902420044,1.7420114278793335,0.5054585337638855
2501484261.0,-0.5059849619865417,-0.1341440230607986,9.984886169433594,1.4751365184783936,1.3314406871795654,0.4044871628284454
2501492594.0,-0.5113673210144043,-0.1182422414422035,9.938505172729492,1.668997883796692,0.8825896382331848,0.4421785175800323
2501500927.0,-0.4908899962902069,0.1211590617895126,9.742417335510254,1.7143094539642334,1.094470500946045,0.4945084154605865
2501509260.0,-0.4523387849330902,0.2559276223182678,9.713863372802734,1.731432557106018,1.5538746118545532,0.4438050091266632
2501517593.0,-0.384720891714096,0.0361964553594589,9.81094741821289,1.463302731513977,1.422089457511902,0.4272582232952118
2501525926.0,-0.396822452545166,-0.1430583298206329,9.856651306152344,1.4922981262207031,0.8889803886413574,0.6671099066734314
2501534259.0,-0.4441001713275909,-0.008111709728837,9.719654083251951,1.6545385122299194,0.9628775119781494,0.4942394196987152
2501542592.0,-0.4886496961116791,0.1679052263498306,9.7054443359375,1.709186553955078,1.5026077032089231,0.4508873224258423
2501550925.0,-0.4975393414497375,0.137712612748146,9.835307121276855,1.6007232666015625,1.7739012241363523,0.4950591623783111
2501559258.0,-0.5186865925788879,-0.0261157061904668,9.921088218688965,1.489711046218872,1.2945817708969116,0.4992085993289947
2501567591.0,-0.5434229969978333,0.0063573364168405,9.79736042022705,1.523035168647766,0.7863185405731201,0.553920567035675
2501575924.0,-0.4942759275436401,0.1266559660434723,9.741375923156738,1.4680670499801636,1.1842613220214844,0.5538181662559509
2501584257.0,-0.4167033731937408,0.0884050279855728,9.782044410705566,1.5965478420257568,1.5362521409988403,0.5112729072570801
2501592590.0,-0.3874123394489288,-0.0830051749944686,9.87349796295166,1.4512513875961304,1.20035982131958,0.5309062600135803
2501600923.0,-0.3771095275878906,-0.0418651923537254,9.811288833618164,1.5778111219406128,0.8558996319770813,0.5074691772460938
2501609256.0,-0.4369127154350281,0.1284118890762329,9.65068531036377,1.4779925346374512,1.110223412513733,0.5805721879005432
2501617589.0,-0.4924716353416443,0.1418609768152237,9.665844917297363,1.46391761302948,1.779741287231445,0.5230042934417725
2501625922.0,-0.5319856405258179,-0.0734803229570388,9.92336368560791,1.4502650499343872,1.5030304193496704,0.4668834507465362
2501634255.0,-0.5223475694656372,-0.1860268265008926,9.972468376159668,1.534471869468689,0.9545400738716124,0.3966107964515686
2501642588.0,-0.525833010673523,0.0032913498580455,9.80239200592041,1.6683318614959717,0.8708840012550354,0.5323918461799622
2501650921.0,-0.4825581014156341,0.2301024347543716,9.682690620422363,1.7608249187469482,1.3688759803771973,0.4756563007831573
2501659254.0,-0.4284298121929168,0.099654883146286,9.799456596374512,1.5453453063964844,1.5025694370269775,0.4511819779872894
2501667587.0,-0.406910091638565,-0.143527016043663,9.896130561828612,1.4951156377792358,0.9731488227844238,0.5452117919921875
2501675920.0,-0.4008727073669433,-0.1043693348765373,9.769227981567385,1.5723168849945068,0.7672871947288513,0.4944444000720978
2501684253.0,-0.4466768205165863,0.0856075957417488,9.65003776550293,1.660929560661316,1.348768949508667,0.5152303576469421
2501692586.0,-0.4741926491260528,0.1353431344032287,9.746566772460938,1.7045505046844482,1.748786211013794,0.5802392363548279
2501700919.0,-0.5201558470726013,-0.043612103909254,9.929022789001465,1.4940400123596191,1.427545428276062,0.5905490517616272
2501709252.0,-0.5311270356178284,-0.063870869576931,9.914839744567873,1.5277224779129028,0.857577383518219,0.5069441199302673
2501717585.0,-0.5060555934906006,0.0769066885113716,9.730287551879885,1.5765947103500366,1.0268874168395996,0.5147565007209778
2501725918.0,-0.4700297117233276,0.106593407690525,9.746167182922363,1.4739583730697632,1.4096410274505615,0.512451171875
2501734251.0,-0.4090511500835418,-0.077504463493824,9.868193626403809,1.4481903314590454,1.2479894161224363,0.5234909057617188
2501742584.0,-0.3773500621318817,-0.1224944815039634,9.88438606262207,1.5359193086624146,0.79379802942276,0.5148590207099915
2501750917.0,-0.4126662611961365,0.0504237674176692,9.673173904418944,1.5701781511306765,0.97603040933609,0.6235016584396362
2501759250.0,-0.4471957683563232,0.191781461238861,9.596223831176758,1.6940232515335083,1.6262991428375244,0.5723757147789001
2501767583.0,-0.5022695064544678,-0.0078334724530577,9.844647407531738,1.5459343194961548,1.845031976699829,0.4891422986984253
2501775916.0,-0.5189027786254883,-0.2330499291419983,10.020756721496582,1.521933674812317,1.2171756029129028,0.5792274475097656
2501784249.0,-0.5220143795013428,-0.0890718922019004,9.849661827087402,1.6257226467132568,0.8267122507095337,0.5055609345436096
2501792582.0,-0.4892183542251587,0.1949662864208221,9.702746391296388,1.723940372467041,1.1670613288879397,0.5690457820892334
2501800915.0,-0.4488572180271148,0.2129795104265213,9.730074882507324,1.6551790237426758,1.532077074050903,0.4553827047348022
2501809248.0,-0.4270690381526947,-0.0400941148400306,9.87142848968506,1.480797529220581,1.0720710754394531,0.4056654870510101
2501817581.0,-0.4017322659492492,-0.1460659503936767,9.815228462219238,1.499905347824097,0.8691805601119995,0.5313799977302551
2501825914.0,-0.4079649746417999,0.0384313091635704,9.68853759765625,1.533485770225525,1.1222747564315796,0.5833257436752319
2501834247.0,-0.4890018105506897,0.1660952121019363,9.709271430969238,1.6435374021530151,1.6594438552856443,0.573067307472229
2501842580.0,-0.5116691589355469,0.0575561411678791,9.911442756652832,1.501583218574524,1.6242754459381104,0.5370792150497437
2501850913.0,-0.5032501816749573,-0.0574749521911144,9.943434715270996,1.5715742111206057,1.071686863899231,0.5615280866622925
2501859246.0,-0.4975111782550812,0.0325770489871501,9.796571731567385,1.6029516458511353,0.8840880990028381,0.5060988068580627
2501867579.0,-0.4784079492092132,0.1545369625091552,9.701632499694824,1.621649980545044,1.275806546211243,0.5958511233329773
2501875912.0,-0.4294126331806183,0.0203867591917514,9.797664642333984,1.5377761125564575,1.3736915588378906,0.5086474418640137
2501884245.0,-0.4053529500961303,-0.1368073523044586,9.937504768371582,1.493335485458374,1.0479551553726196,0.4690222144126892
2501892578.0,-0.3791435360908508,-0.0354418605566024,9.761652946472168,1.6559345722198486,0.7305435538291931,0.5646145343780518
2501900911.0,-0.4570873081684112,0.2156031876802444,9.59190845489502,1.610533356666565,1.338382124900818,0.5646785497665405
2501909244.0,-0.534559428691864,0.1254324167966842,9.731521606445312,1.589119791984558,1.743445634841919,0.5852980613708496
2501917577.0,-0.5083597898483276,-0.1534529626369476,9.94721794128418,1.5600988864898682,1.394169807434082,0.545288622379303
2501925910.0,-0.5254552960395813,-0.1152780652046203,9.93666172027588,1.5691407918930054,0.7194653749465942,0.5209293961524963
2501934243.0,-0.5079740285873413,0.0493312664330005,9.749862670898438,1.717485785484314,0.9071282148361206,0.3806531429290771
2501942576.0,-0.4538047313690185,0.2814242243766784,9.744444847106934,1.7192785739898682,1.5506343841552734,0.4620295464992523
2501950909.0,-0.4017239212989807,0.0927505940198898,9.746334075927734,1.453338861465454,1.3364354372024536,0.4871442914009094
2501959242.0,-0.4017875790596008,-0.117007702589035,9.89930820465088,1.4411208629608154,0.9434106945991516,0.5512311458587646
2501967575.0,-0.4040230214595794,-0.0651996582746505,9.758012771606444,1.576312780380249,0.7617033123970032,0.4940088987350464
2501975908.0,-0.4833917617797851,0.151168018579483,9.642601013183594,1.6406300067901611,1.4419660568237305,0.5698782801628113
2501984241.0,-0.5029513239860535,0.1142662167549133,9.84871768951416,1.5641590356826782,1.793099045753479,0.4903333187103271
2501992574.0,-0.5126563310623169,-0.0254361107945442,9.981812477111816,1.5374431610107422,1.2221063375473022,0.5159218907356262
2502000907.0,-0.5041968822479248,-0.06179004535079,9.852989196777344,1.5685516595840454,0.8122145533561707,0.561809778213501
2502009240.0,-0.4855861961841583,0.1106189861893653,9.729130744934082,1.5782465934753418,1.0992861986160278,0.5050102472305298
2502017573.0,-0.4159439206123352,0.1164121404290199,9.701735496520996,1.5675653219223022,1.4872392416000366,0.4871058762073517
2502025906.0,-0.3868838846683502,-0.0808936730027198,9.849842071533203,1.4632515907287598,1.2262687683105469,0.5034350156784058
2502034239.0,-0.3972982764244079,-0.1147798150777816,9.910841941833496,1.6144139766693115,0.7958598136901855,0.4810609519481659
2502042572.0,-0.437880665063858,0.0817793980240821,9.68765354156494,1.5484317541122437,1.0326122045516968,0.4758612513542175
2502050905.0,-0.4953942894935608,0.178365483880043,9.713698387145996,1.5708441734313965,1.5860589742660522,0.4799339175224304
2502059238.0,-0.4932105243206024,-0.0382423102855682,9.847123146057127,1.4956152439117432,1.6189990043640137,0.4379265606403351
2502067571.0,-0.4917696118354797,-0.2220831364393234,10.005470275878906,1.6081770658493042,0.9478931427001952,0.5145772099494934
2502075904.0,-0.4924112260341644,-0.0773559287190437,9.814258575439451,1.6238014698028564,0.6204151511192322,0.4334824979305267
2502084237.0,-0.4414083063602447,0.1973939687013626,9.7280855178833,1.7431256771087646,1.240983963012695,0.5067776441574097
2502092570.0,-0.3957063853740692,0.1897201538085937,9.728087425231934,1.5782082080841064,1.5852009057998655,0.4572781324386596
2502100903.0,-0.3994694650173187,-0.0766809582710266,9.856707572937012,1.3746006488800049,1.038618803024292,0.4871186912059784
2502109236.0,-0.410174012184143,-0.1636441946029663,9.829497337341309,1.4622526168823242,0.7876504063606262,0.4738248586654663
2502117569.0,-0.4906591773033142,0.0249914843589067,9.689230918884276,1.6368135213851929,1.321707248687744,0.5111704468727112
2502125902.0,-0.5192911624908447,0.1334975510835647,9.734951972961426,1.6866590976715088,1.8632689714431765,0.5529984831809998
2502134235.0,-0.5255073308944702,0.0143598457798361,9.91585922241211,1.4753289222717283,1.5475353002548218,0.573451578617096
2502142568.0,-0.5301610231399536,-0.0576073080301284,9.965632438659668,1.5636720657348633,0.9131474494934082,0.5312903523445129
2502150901.0,-0.4868375360965729,0.052079688757658,9.73238754272461,1.5573326349258425,0.7767131924629211,0.603023111820221
2502159234.0,-0.4430514574050903,0.1243319511413574,9.689916610717772,1.6485450267791748,1.3752665519714355,0.550923764705658
2502167567.0,-0.3882517218589782,0.020672857761383,9.798527717590332,1.5114189386367798,1.460165023803711,0.530189037322998
2502175900.0,-0.3839525878429413,-0.1504133343696594,9.905409812927246,1.482961893081665,1.0246206521987915,0.5023207664489746
2502184233.0,-0.4433363676071167,-0.0140373352915048,9.782020568847656,1.5937305688858032,0.906372606754303,0.4555619955062866
2502192566.0,-0.4992264807224273,0.1936789602041244,9.625616073608398,1.73432719707489,1.407976150512695,0.621721625328064
2502200899.0,-0.5378926396369934,0.1045583486557006,9.75798511505127,1.4594861268997192,1.743291974067688,0.4850695729255676
2502209232.0,-0.5424748063087463,-0.1607793718576431,9.963337898254396,1.5769401788711548,1.323180079460144,0.4378753304481506
2502217565.0,-0.4959660768508911,-0.1425492763519287,9.961668968200684,1.6533474922180176,0.7776737809181213,0.4526035189628601
2502225898.0,-0.4963375031948089,0.1089264824986457,9.73549747467041,1.7376439571380615,0.9809995889663696,0.4785763621330261
2502234231.0,-0.4247773885726928,0.2722523510456085,9.73799991607666,1.646636724472046,1.382656455039978,0.4675366580486297
2502242564.0,-0.3649817705154419,0.076093889772892,9.842658996582031,1.3871772289276123,1.4205269813537598,0.4429341554641723
2502250897.0,-0.3801806569099426,-0.1353383809328079,9.872797966003418,1.4136751890182495,0.9239567518234252,0.4344686269760132
2502259230.0,-0.4424760043621063,-0.0208376124501228,9.709653854370115,1.5889536142349243,0.9876593351364136,0.4872852265834808
2502267563.0,-0.5046945810317993,0.137945756316185,9.675941467285156,1.6666028499603271,1.5034658908843994,0.5980795621871948
2502275896.0,-0.5326731204986572,0.1082015633583068,9.82534408569336,1.7193171977996826,1.8088388442993164,0.4835838973522186
2502284229.0,-0.523876965045929,-0.046846903860569,9.977876663208008,1.571010708808899,1.215997338294983,0.5633978247642517
2502292562.0,-0.4916943907737732,-0.0123179042711853,9.863134384155272,1.5424635410308838,0.8547726273536682,0.4191513061523437
2502300895.0,-0.4804131388664245,0.1218715533614158,9.713462829589844,1.506923794746399,1.2177902460098269,0.5751548409461975
2502309228.0,-0.4148188233375549,0.1210105195641517,9.733817100524902,1.6450356245040894,1.352572321891785,0.5376812219619751
2502317561.0,-0.3825464248657226,-0.0921428054571151,9.858564376831056,1.4667352437973022,1.2290093898773191,0.5312264561653137
2502325894.0,-0.3843013346195221,-0.0777229368686676,9.829373359680176,1.4993164539337158,0.8882120251655579,0.5172410607337952
2502334227.0,-0.4638137519359588,0.1257788836956024,9.655447006225586,1.6834187507629397,1.1764618158340454,0.5453270673751831
2502342560.0,-0.4889910519123077,0.1789817214012146,9.68929958343506,1.6290268898010254,1.7174216508865356,0.5608364939689636
2502350893.0,-0.5072471499443054,-0.0086286626756191,9.883968353271484,1.4250609874725342,1.4977797269821167,0.5261548161506653
2502359226.0,-0.5257539749145508,-0.1940312385559082,9.998665809631348,1.6081514358520508,0.975607931613922,0.4176785349845886
2502367559.0,-0.4805065095424652,-0.0083206174895167,9.790236473083496,1.588428258895874,0.8496626019477844,0.5597606301307678
2502375892.0,-0.4858849644660949,0.231843814253807,9.64838409423828,1.7123500108718872,1.3518038988113403,0.4976204931735992
2502384225.0,-0.4337933361530304,0.15799081325531,9.774436950683594,1.5197820663452148,1.6524126529693604,0.5503602027893066
2502392558.0,-0.4168091714382171,-0.0929266437888145,9.859064102172852,1.4402755498886108,1.0793453454971311,0.6082996129989624
2502400891.0,-0.42396941781044,-0.1294628977775573,9.785962104797363,1.6310505867004397,0.78580641746521,0.4723649621009826
2502409224.0,-0.4531903266906738,0.0896478146314621,9.69495677947998,1.6588932275772097,1.1492979526519775,0.5002588033676147
2502417557.0,-0.4817903041839599,0.1464705914258957,9.772467613220217,1.587301254272461,1.7650383710861206,0.4564840793609619
2502425890.0,-0.5155629515647888,-0.0085717793554067,9.944052696228027,1.4795805215835571,1.3712323904037476,0.472608208656311
2502434223.0,-0.5007528066635132,-0.0931305289268493,9.91378116607666,1.484985113143921,0.912379026412964,0.5800086855888367
2502442556.0,-0.4813085794448852,0.0375155359506607,9.741609573364258,1.4776852130889893,0.949340283870697,0.5091084837913513
2502450889.0,-0.4806574285030365,0.1490537077188491,9.667827606201172,1.621534824371338,1.4218463897705078,0.5210703611373901
2502459222.0,-0.4093315601348877,-0.015290493145585,9.850050926208496,1.5221514701843262,1.4647499322891235,0.3833682537078857
2502467555.0,-0.3893453478813171,-0.1444621980190277,9.903282165527344,1.5385446548461914,0.9092541337013244,0.5176124572753906
2502475888.0,-0.4124130606651306,-0.0441792160272598,9.787585258483888,1.56880784034729,1.0042957067489624,0.5830439925193787
2502484221.0,-0.4682238101959228,0.1731355637311935,9.6373872756958,1.5502121448516846,1.4440410137176514,0.5106838345527649
2502492554.0,-0.5021077990531921,0.0584356784820556,9.839252471923828,1.5409523248672483,1.7943283319473269,0.4235826432704925
2502500887.0,-0.5103763341903687,-0.1643112152814865,10.000308990478516,1.5424377918243408,1.2865773439407349,0.479344755411148
2502509220.0,-0.5062607526779175,-0.1617951691150665,9.923970222473145,1.641116738319397,0.7624973654747009,0.4934197962284088
2502517553.0,-0.4668931365013122,0.1501470059156417,9.70192527770996,1.7852736711502075,1.05186128616333,0.4280010163784027
2502525886.0,-0.4444965422153473,0.2201907485723495,9.710779190063477,1.5999675989151,1.4857536554336548,0.4031168520450592
2502534219.0,-0.4007382988929748,0.0286386534571647,9.813039779663086,1.5599581003189087,1.3799155950546265,0.5233500003814697
2502542552.0,-0.3961112797260284,-0.1617738008499145,9.83747673034668,1.4800673723220823,0.8891724944114685,0.5697630047798157
2502550885.0,-0.4450925290584564,0.0103483721613883,9.742136001586914,1.6759521961212158,0.9374681115150452,0.5534340143203735
2502559218.0,-0.5124208331108093,0.1788155436515808,9.663848876953123,1.7657043933868408,1.5666050910949707,0.5480550527572632
2502567551.0,-0.5319238901138306,0.1156350746750831,9.906423568725586,1.5980465412139893,1.772761344909668,0.4380290508270263
2502575884.0,-0.5176047086715698,-0.0423377491533756,9.94347858428955,1.4860610961914062,1.0637080669403076,0.5946089029312134
2502584217.0,-0.4854814708232879,-0.0286654848605394,9.826122283935549,1.612351894378662,0.7579891681671143,0.4815860390663147
2502592550.0,-0.4563763737678528,0.1401305198669433,9.632526397705078,1.6668336391448977,1.2202494144439695,0.4912682473659515
2502600883.0,-0.4129926860332489,0.1107107773423194,9.745729446411133,1.665757656097412,1.5861486196517944,0.4663968086242676
2502609216.0,-0.4052122831344604,-0.0806166529655456,9.861404418945312,1.6133637428283691,1.2241297960281372,0.4699699580669403
2502617549.0,-0.4151608347892761,-0.0562926232814788,9.852375984191896,1.504349708557129,0.9220612645149232,0.581596851348877
2502625882.0,-0.4642040133476257,0.1180258840322494,9.664206504821776,1.5671557188034058,1.110223412513733,0.5779852271080017
2502634215.0,-0.501489520072937,0.1693792045116424,9.689169883728027,1.6163479089736938,1.792778730392456,0.5497967600822449
2502642548.0,-0.5247979760169983,-0.0313506573438644,9.89449691772461,1.4482159614562988,1.6108150482177734,0.4676262438297272
2502650881.0,-0.4935866296291351,-0.2070272564888,10.002239227294922,1.6327412128448486,0.8829099535942078,0.5524351000785828
2502659214.0,-0.4656931161880493,0.0069876317866146,9.816329002380373,1.718727946281433,0.7904424071311951,0.5939556360244751
2502667547.0,-0.4572732448577881,0.2760593295097351,9.682364463806152,1.70515239238739,1.2438143491744995,0.586066484451294
2502675880.0,-0.3983012437820434,0.1588711142539978,9.772931098937988,1.575544357299805,1.4139952659606934,0.5531522035598755
2502684213.0,-0.4041137993335724,-0.0979979932308197,9.887500762939451,1.452903389930725,0.9807818531990052,0.4815604090690613
2502692546.0,-0.4274212419986725,-0.1222982108592987,9.806760787963867,1.5439363718032837,0.9201017022132874,0.4785379469394684
2502700879.0,-0.4781329929828644,0.1053014621138572,9.68056869506836,1.5372638702392578,1.34023916721344,0.440334290266037
2502709212.0,-0.5105400085449219,0.1668538302183151,9.76506233215332,1.6330612897872925,1.932158708572388,0.5385905504226685
2502717545.0,-0.5438405871391296,0.0347474366426467,9.92119026184082,1.4892630577087402,1.38429594039917,0.5207374095916748
2502725878.0,-0.5428839921951294,-0.0692158564925193,9.926146507263184,1.5022108554840088,0.8564247488975525,0.4602749943733215
2502734211.0,-0.4773390293121338,0.0554755963385105,9.773271560668944,1.588044047355652,0.8716651797294617,0.5142698287963867
2502742544.0,-0.4435932040214538,0.1653648018836975,9.671936988830566,1.647187352180481,1.3767266273498535,0.520878255367279
2502750877.0,-0.3863009512424469,0.0151157435029745,9.84589385986328,1.483397126197815,1.5302199125289917,0.4571884870529175
2502759210.0,-0.3730520009994507,-0.1168758273124694,9.919648170471191,1.53057861328125,1.011762261390686,0.5360291004180908
2502767543.0,-0.4258058667182922,0.0300423372536897,9.749750137329102,1.6084203720092771,0.9656054973602296,0.60467529296875
2502775876.0,-0.4965016543865204,0.1671934425830841,9.65860366821289,1.6279383897781372,1.5295028686523438,0.5430217981338501
2502784209.0,-0.4912154972553253,0.0702317655086517,9.771071434020996,1.5873013734817505,1.7975687980651855,0.4325604140758514
2502792542.0,-0.529711127281189,-0.1803933531045913,9.989429473876951,1.3939650058746338,1.2412017583847046,0.4489534497261047
2502800875.0,-0.5003275275230408,-0.1569470167160034,9.930618286132812,1.669984221458435,0.7232564091682434,0.524285078048706
2502809208.0,-0.4903195202350616,0.1268450170755386,9.685620307922363,1.628373622894287,0.9212927222251892,0.429499477148056
2502817541.0,-0.4359301924705505,0.2614622414112091,9.699130058288574,1.7095710039138794,1.5633392333984375,0.4043462872505188
2502825874.0,-0.4057073891162872,0.0065489546395838,9.829951286315918,1.547074317932129,1.376047968864441,0.5010913014411926
2502834207.0,-0.3937854766845703,-0.1858952343463897,9.876967430114746,1.3857299089431765,0.8228060007095337,0.4630028307437897
2502842540.0,-0.421621173620224,-0.0257513802498579,9.713668823242188,1.6972376108169556,0.9312695264816284,0.508429765701294
2502850873.0,-0.478921890258789,0.1695683747529983,9.709650039672852,1.6534883975982666,1.5816148519515991,0.5636796355247498
2502859206.0,-0.4904339909553528,0.0867590308189392,9.838133811950684,1.5522098541259766,1.725643754005432,0.4737736880779266
2502867539.0,-0.5003823041915894,-0.0661271587014198,9.972352027893066,1.520883560180664,1.1361322402954102,0.4818677604198456
2502875872.0,-0.517541229724884,-0.0242864862084388,9.840136528015137,1.549187183380127,0.8950766324996948,0.495930016040802
2502884205.0,-0.4642254710197449,0.1172902360558509,9.69519329071045,1.595997333526611,1.1931365728378296,0.5106965899467468
2502892538.0,-0.4218343794345855,0.0935896411538124,9.744122505187988,1.4691299200057983,1.4891859292984009,0.5192517638206482
2502900871.0,-0.3764406442642212,-0.1028990224003791,9.891942977905272,1.4636996984481812,1.1639620065689087,0.5363619923591614
2502909204.0,-0.3858309090137481,-0.0664333999156951,9.856438636779783,1.5322948694229126,0.8305416107177734,0.432675689458847
2502917537.0,-0.4301507174968719,0.1118997260928154,9.675008773803713,1.659546136856079,1.1828396320343018,0.5589538216590881
2502925870.0,-0.4961535036563873,0.1847042739391327,9.683489799499512,1.6706886291503906,1.760492205619812,0.4885915517807007
2502934203.0,-0.5157771110534668,-0.0513285510241985,9.916749954223633,1.3961549997329712,1.5250202417373655,0.4187158644199371
2502942536.0,-0.5101214051246643,-0.1835345774888992,9.982525825500488,1.4891602993011477,0.955026626586914,0.5611310601234436
2502950869.0,-0.486792653799057,-0.0096397092565894,9.780121803283691,1.6857370138168335,0.9733281135559082,0.5373226404190063
2502959202.0,-0.4617244303226471,0.254369854927063,9.654149055480955,1.7421393394470217,1.3545705080032349,0.4917036294937134
2502967535.0,-0.4328435063362121,0.1644419431686401,9.793146133422852,1.4651981592178345,1.5885051488876345,0.5903696417808533
2502975868.0,-0.4032370150089264,-0.0998304486274719,9.882946968078612,1.3869082927703855,1.110761284828186,0.4423066079616546
2502984201.0,-0.4251494705677032,-0.1239439398050308,9.82176685333252,1.5740972757339478,0.9470350742340088,0.4782177209854126
2502992534.0,-0.4659256637096405,0.0843760222196579,9.658084869384766,1.6984926462173462,1.3023430109024048,0.5047156810760498
2503000867.0,-0.5094435811042786,0.1722064912319183,9.795180320739746,1.647494554519653,1.7455716133117676,0.4494401812553406
2503009200.0,-0.5119066834449768,-0.0037058694288134,9.912278175354004,1.4972928762435913,1.524776816368103,0.3782581984996795
2503017533.0,-0.5453889966011047,-0.0846793055534362,9.956270217895508,1.4466536045074463,0.9249429702758788,0.4338155090808868
2503025866.0,-0.4978012442588806,0.042499903589487,9.726995468139648,1.6266062259674072,0.8817955255508423,0.5159218907356262
2503034199.0,-0.4726014137268066,0.1324261426925659,9.668410301208496,1.6450483798980713,1.3786349296569824,0.4892318844795227
2503042532.0,-0.4337894916534424,-0.0083765443414449,9.821763038635254,1.6221238374710083,1.3420065641403198,0.5444305539131165
2503050865.0,-0.4032361209392547,-0.1281455010175705,9.889483451843262,1.5973165035247805,0.8677206039428711,0.5032300353050232
2503059198.0,-0.4324975311756134,0.0158363487571477,9.716788291931152,1.5602014064788818,0.9016850590705872,0.48296919465065
2503067531.0,-0.4659630954265594,0.1883059591054916,9.61270809173584,1.544755935668945,1.449138045310974,0.5416769981384277
2503075864.0,-0.5123758912086487,0.0823149979114532,9.774970054626465,1.4875081777572632,1.6329971551895142,0.5100435018539429
2503084197.0,-0.5001121163368225,-0.179031640291214,9.97853660583496,1.4958841800689695,1.2966822385787964,0.4514636695384979
2503092530.0,-0.5088924169540405,-0.1188816875219345,9.928714752197266,1.572803616523743,0.7734602093696594,0.5256425142288208
2503100863.0,-0.498020201921463,0.1922564208507537,9.708486557006836,1.7500669956207275,1.1078412532806396,0.400017499923706
2503109196.0,-0.4297657012939453,0.3042246103286743,9.664209365844728,1.6382992267608645,1.4907867908477783,0.4765912294387817
2503117529.0,-0.4123932421207428,0.0492850355803966,9.84994125366211,1.4244461059570312,1.3416097164154053,0.5592485070228577
2503125862.0,-0.4072123169898987,-0.1344601958990097,9.867046356201172,1.5641461610794067,0.8080394864082336,0.5351454615592957
2503134195.0,-0.4352820515632629,-0.0033585396595299,9.716012954711914,1.6273620128631592,1.0448943376541138,0.6351433396339417
2503142528.0,-0.5219334363937378,0.1662495881319046,9.69908618927002,1.5751090049743652,1.6609165668487549,0.6032792329788208
2503150861.0,-0.5235413312911987,0.1122194081544876,9.89533233642578,1.5610212087631226,1.686198115348816,0.6105281114578247
2503159194.0,-0.5101057887077332,-0.0230025965720415,9.956449508666992,1.5303608179092407,1.0838791131973269,0.4321761727333069
2503167527.0,-0.4789418280124664,-0.0254339333623647,9.800424575805664,1.4779412746429443,0.8024170398712158,0.5691226720809937
2503175860.0,-0.4683886766433716,0.1258487105369568,9.669478416442873,1.4396735429763794,1.0993629693984983,0.6037274599075317
2503184193.0,-0.4164747297763824,0.0535898953676223,9.763172149658203,1.5326788425445557,1.5150821208953855,0.5737589001655579
2503192526.0,-0.3945470452308655,-0.1161369830369949,9.915254592895508,1.5004817247390747,1.2069170475006104,0.5139240026473999
2503200859.0,-0.4056568443775177,-0.0798716321587562,9.86732578277588,1.638529896736145,0.7869846224784851,0.4747982621192932
2503209192.0,-0.4582536816596985,0.1450749635696411,9.657657623291016,1.572317123413086,1.271708369255066,0.5555343627929688
2503217525.0,-0.4808975458145141,0.1246506497263908,9.72364330291748,1.512699842453003,1.719048023223877,0.586412250995636
2503225858.0,-0.5189185738563538,-0.1037355288863182,9.888731002807615,1.527543067932129,1.5305402278900146,0.513526976108551
2503234191.0,-0.5151880979537964,-0.2038654685020446,9.97323513031006,1.5775679349899292,0.9293741583824158,0.5103508234024048
2503242524.0,-0.5006389617919922,0.0103219570592045,9.79079246520996,1.640860676765442,0.7831935882568359,0.4663711786270141
2503250857.0,-0.476354569196701,0.2783846259117126,9.71622085571289,1.791664481163025,1.4264566898345947,0.5190468430519104
2503259190.0,-0.3928622901439667,0.1093217581510543,9.776423454284668,1.5813716650009155,1.5573455095291138,0.5837739706039429
2503267523.0,-0.3814618587493896,-0.1065491065382957,9.87473201751709,1.5206276178359983,1.011903166770935,0.5315850973129272
2503275856.0,-0.4156498908996582,-0.0865029990673065,9.766993522644045,1.5867888927459717,0.9257624745368958,0.4961349070072174
2503284189.0,-0.4554124772548675,0.1032885611057281,9.695090293884276,1.6250054836273191,1.5220874547958374,0.6424946188926697
2503292522.0,-0.5081284046173096,0.1712826490402221,9.817157745361328,1.7148090600967407,1.837654948234558,0.4993367195129394
2503300855.0,-0.5284051895141602,0.0187659636139869,9.945599555969238,1.500827431678772,1.387561321258545,0.500053882598877
2503309188.0,-0.5332536101341248,-0.0526700615882873,9.904643058776855,1.563915491104126,0.9597781896591188,0.4678824245929718
2503317521.0,-0.5111743807792664,0.1042881533503532,9.75966453552246,1.5928341150283811,1.1082640886306765,0.4228014051914215
2503325854.0,-0.453618586063385,0.1166864931583404,9.692024230957031,1.5619815587997437,1.4821420907974243,0.4951231479644775
2503334187.0,-0.39715576171875,-0.0470968335866928,9.897875785827637,1.5259168148040771,1.2667776346206665,0.5209422707557678
2503342520.0,-0.3758161664009094,-0.0985662788152694,9.843225479125977,1.553387999534607,0.777251124382019,0.5311239361763
2503350853.0,-0.3969112038612366,0.0726323798298835,9.715086936950684,1.644421100616455,1.0651040077209473,0.4862478375434875
2503359186.0,-0.4680050313472748,0.2071972638368606,9.62348175048828,1.5794891119003296,1.5982898473739624,0.527742862701416
2503367519.0,-0.5063937902450562,0.007115445099771,9.860601425170898,1.5218955278396606,1.8256291151046755,0.5214546322822571
2503375852.0,-0.5246504545211792,-0.2180871218442917,9.997889518737791,1.5540412664413452,1.105868935585022,0.4474550485610962
2503384185.0,-0.5225946307182312,-0.088661216199398,9.8534574508667,1.6338423490524292,0.7263044118881226,0.4881432652473449
2503392518.0,-0.4959486424922943,0.2078248113393783,9.712762832641602,1.7241709232330322,1.225461721420288,0.5063933730125427
2503400851.0,-0.4366761445999145,0.2001264840364456,9.74428367614746,1.603271722793579,1.578579664230347,0.5439951419830322
2503409184.0,-0.4112825691699981,0.0037766809109598,9.866943359375,1.443298101425171,1.1873350143432615,0.502845823764801
2503417517.0,-0.4130735099315643,-0.1358166486024856,9.843327522277832,1.5288496017456057,0.668595552444458,0.5743351578712463
2503425850.0,-0.4450567960739136,0.0493415556848049,9.706058502197266,1.6298209428787231,1.120994210243225,0.5126560926437378
2503434183.0,-0.4724405705928802,0.1568225920200348,9.728198051452637,1.6119935512542725,1.8181883096694944,0.48448047041893
2503442516.0,-0.5023437738418579,0.0344114452600479,9.916646003723145,1.4682846069335938,1.5842660665512085,0.5253735184669495
2503450849.0,-0.5166369676589966,-0.0412696078419685,9.95716953277588,1.4995471239089966,0.9923595786094666,0.4924976825714111
2503459182.0,-0.4989951848983764,0.0552408806979656,9.780217170715332,1.416659235954285,0.8547341823577881,0.5877569913864136
2503467515.0,-0.4984080791473388,0.1508140712976455,9.706209182739258,1.5236501693725586,1.3597958087921145,0.4843011796474457
2503475848.0,-0.4223093092441559,0.0030940023716539,9.824225425720217,1.4498298168182373,1.5594587326049805,0.6568898558616638
2503484181.0,-0.3961074650287628,-0.1223880052566528,9.908563613891602,1.5043880939483645,1.078167200088501,0.4971595108509063
2503492514.0,-0.3640151023864746,-0.0038368385285139,9.784976959228516,1.6780654191970823,0.9069744348526,0.4645397365093231
2503500847.0,-0.4465429186820984,0.1882722526788711,9.619845390319824,1.617526292800903,1.3625108003616333,0.5580957531929016
2503509180.0,-0.5011016726493835,0.1071240231394767,9.809264183044434,1.5175025463104248,1.8284337520599363,0.5767172574996948
2503517513.0,-0.4831088781356811,-0.1358840465545654,10.017210006713867,1.4103069305419922,1.4728056192398071,0.6465673446655273
2503525846.0,-0.5166693925857544,-0.1213414669036865,9.890849113464355,1.5939098596572876,0.88152676820755,0.5067136287689209
2503534179.0,-0.5115175843238831,0.0533505603671073,9.779995918273926,1.7305874824523926,1.038516402244568,0.5820450782775879
2503542512.0,-0.435496985912323,0.2583370506763458,9.724931716918944,1.5925010442733765,1.4720628261566162,0.4313821196556091
2503550845.0,-0.4141134917736053,0.0610900484025478,9.826600074768066,1.5392745733261108,1.401982307434082,0.4404239356517792
2503559178.0,-0.4095112085342407,-0.151724025607109,9.85550594329834,1.4388923645019531,0.8744059205055237,0.5935458540916443
2503567511.0,-0.4065557420253753,-0.0147275542840361,9.757387161254885,1.5859438180923462,1.042051076889038,0.5734642744064331
2503575844.0,-0.4741399884223938,0.1339998096227646,9.615458488464355,1.6556658744812012,1.5179892778396606,0.5689049959182739
2503584177.0,-0.5144496560096741,0.0711530968546867,9.871796607971191,1.629936456680298,1.7811625003814695,0.4225068390369415
2503592510.0,-0.5100171566009521,-0.0660119578242302,9.952857971191406,1.5760951042175293,1.22576904296875,0.4365690052509308
2503600843.0,-0.5411043763160706,-0.0221433360129594,9.790427207946776,1.6058460474014282,0.8335512280464172,0.5269232392311096
2503609176.0,-0.5093395709991455,0.1245369836688041,9.752884864807127,1.541656732559204,1.0384138822555542,0.3931144475936889
2503617509.0,-0.4458877742290497,0.0619131885468959,9.728008270263672,1.4838708639144895,1.529669165611267,0.4845059812068939
2503625842.0,-0.4124723970890045,-0.1185054033994674,9.92038345336914,1.5831645727157593,1.2485657930374146,0.5194566249847412
2503634175.0,-0.3819012641906738,-0.0797383412718772,9.8271484375,1.6155153512954712,0.8060030341148376,0.4233008325099945
2503642508.0,-0.4224554598331451,0.1204336509108543,9.666264533996582,1.7430486679077148,1.135888695716858,0.575090765953064
2503650841.0,-0.4841734766960144,0.1960405558347702,9.708151817321776,1.58596932888031,1.7042815685272217,0.6053028702735901
2503659174.0,-0.5307052135467529,-0.0508637726306915,9.93427562713623,1.470807671546936,1.562455415725708,0.4859148263931274
2503667507.0,-0.5173196196556091,-0.1986488997936248,9.9959135055542,1.5403249263763428,0.9433082342147828,0.5650116801261902
2503675840.0,-0.5150790810585022,0.0124175501987338,9.78006362915039,1.7324315309524536,0.880963146686554,0.5651652812957764
2503684173.0,-0.5073201656341553,0.235275462269783,9.6852445602417,1.795276165008545,1.3547881841659546,0.556699812412262
2503692506.0,-0.4248824119567871,0.1559952199459076,9.789491653442385,1.485843300819397,1.5620454549789429,0.4589429795742035
2503700839.0,-0.4079998135566711,-0.0972985625267028,9.87435817718506,1.559433102607727,0.9615967273712158,0.5563283562660217
2503709172.0,-0.4011532068252563,-0.0699944645166397,9.749427795410156,1.593090295791626,0.8387765884399414,0.4650392532348633
2503717505.0,-0.4511364102363586,0.1104635670781135,9.662799835205078,1.6097136735916138,1.3710658550262451,0.4767449200153351
2503725838.0,-0.4631941318511963,0.158656507730484,9.766802787780762,1.6244677305221558,1.7551259994506836,0.4306393563747406
2503734171.0,-0.4842084646224975,0.0042074779048562,9.973963737487791,1.528170824050903,1.3821440935134888,0.5030635595321655
2503742504.0,-0.5203016996383667,-0.0501928515732288,9.941095352172852,1.5082941055297852,0.8447830677032471,0.4874132573604584
2503750837.0,-0.4929183721542358,0.0890694707632064,9.717684745788574,1.5678858757019043,0.9650036096572876,0.5396279692649841
2503759170.0,-0.4614481925964355,0.1783043146133422,9.703997611999512,1.6033869981765747,1.4731899499893188,0.5156529545783997
2503767503.0,-0.4221775829792022,-0.0149671453982591,9.850664138793944,1.48292338848114,1.317019820213318,0.4617862105369568
2503775836.0,-0.3842895627021789,-0.1028035953640937,9.89706325531006,1.6177181005477903,0.8420423269271851,0.4693040251731872
2503784169.0,-0.4143701493740082,0.0320349335670471,9.706210136413574,1.6169496774673462,0.8838447332382202,0.4365690052509308
2503792502.0,-0.4723620414733886,0.1838762909173965,9.648171424865724,1.5576657056808472,1.5030817985534668,0.4080219566822052
2503800835.0,-0.4998855292797088,0.0575922578573226,9.827215194702148,1.5683724880218506,1.7924458980560305,0.4941369891166687
2503809168.0,-0.4935446679592132,-0.1788125932216644,10.000338554382324,1.5070520639419556,1.1275770664215088,0.521902859210968
2503817501.0,-0.4896086156368255,-0.0908743366599083,9.876073837280272,1.6720460653305054,0.6647149920463562,0.5664844512939453
2503825834.0,-0.4869542121887207,0.1816055476665496,9.697138786315918,1.7502208948135376,1.0733133554458618,0.4669987559318542
2503834167.0,-0.4255873262882232,0.2048567533493042,9.75671672821045,1.6291037797927856,1.5686286687850952,0.5395254492759705
2503842500.0,-0.4092503786087036,-0.0114696435630321,9.863804817199709,1.4280704259872437,1.1790746450424194,0.4818550050258636
2503850833.0,-0.3819248974323272,-0.1225059255957603,9.815475463867188,1.4710766077041626,0.886303722858429,0.4568042457103729
2503859166.0,-0.4351319670677185,0.0384288020431995,9.70601749420166,1.6276437044143677,1.1590313911437988,0.5586593151092529
2503867499.0,-0.475680947303772,0.1601432710886001,9.723272323608398,1.6661677360534668,1.6628122329711914,0.4942138791084289
2503875832.0,-0.4951469004154205,0.0494584627449512,9.889577865600586,1.631767749786377,1.6636829376220703,0.5300993919372559
2503884165.0,-0.5222204327583313,-0.0708828121423721,9.955060005187988,1.428800344467163,0.9629287123680116,0.5085065960884094
2503892498.0,-0.5020179748535156,0.0381062589585781,9.786004066467283,1.570728778839111,0.9301169514656068,0.6107330322265625
2503900831.0,-0.4798201322555542,0.1490850448608398,9.703521728515623,1.4760842323303225,1.3500365018844604,0.5120413303375244
2503909164.0,-0.4133696556091308,0.0594156868755817,9.786991119384766,1.5879672765731812,1.497472047805786,0.4442660808563232
2503917497.0,-0.3893621265888214,-0.1120939031243324,9.88711929321289,1.5878905057907104,0.8917211294174194,0.5237982869148254
2503925830.0,-0.3910734057426452,-0.0179255567491054,9.790164947509766,1.5308091640472412,0.8648902177810669,0.5332627296447754
2503934163.0,-0.4381254911422729,0.1824429631233215,9.639946937561035,1.6523743867874146,1.3429031372070312,0.5290108323097229
2503942496.0,-0.4851705133914947,0.1224022060632705,9.744065284729004,1.5817687511444092,1.7603511810302734,0.542189359664917
2503950829.0,-0.5118333101272583,-0.1283256113529205,9.976655960083008,1.4425424337387085,1.359885334968567,0.4562919735908508
2503959162.0,-0.5176112651824951,-0.1699623316526413,9.974210739135742,1.6127744913101196,0.898547351360321,0.5078534483909607
2503967495.0,-0.5076566934585571,0.0728979036211967,9.791056632995604,1.673288106918335,0.9033243060112,0.4654746651649475
2503975828.0,-0.4611970484256744,0.2735970318317413,9.714277267456056,1.582972526550293,1.4917346239089966,0.5444689393043518
2503984161.0,-0.4030730128288269,0.0905399695038795,9.827003479003906,1.4909276962280271,1.3315048217773438,0.4641299247741699
2503992494.0,-0.4119263589382171,-0.1353759169578552,9.887495040893556,1.4656720161437988,0.9413999915122986,0.5079302787780762
2504000827.0,-0.3967629373073578,-0.034444622695446,9.730224609375,1.5414390563964844,0.9791041016578674,0.5067263841629028
2504009160.0,-0.4650918841361999,0.1442230194807052,9.65367603302002,1.6627994775772097,1.5931799411773682,0.4995288252830505
2504017493.0,-0.4860761761665344,0.1023768559098243,9.881555557250977,1.6394774913787842,1.67200767993927,0.5622196793556213
2504025826.0,-0.5079414248466492,-0.0359617508947849,9.96296501159668,1.5026719570159912,1.3524188995361328,0.4933173954486847
2504034159.0,-0.5322254300117493,-0.0561143346130847,9.862957000732422,1.483947992324829,0.7132412195205688,0.4574063122272491
2504042492.0,-0.5116634964942932,0.1028432175517082,9.724553108215332,1.5934104919433594,1.0714179277420044,0.5247331857681274
2504050825.0,-0.4319503605365753,0.1099075898528099,9.741252899169922,1.5282222032546997,1.4822444915771484,0.5683542490005493
2504059158.0,-0.4060365557670593,-0.0813828408718109,9.866997718811035,1.548047423362732,1.1320723295211792,0.3527336120605469
2504067491.0,-0.3804692327976227,-0.0983052030205726,9.868284225463867,1.6094319820404053,0.7353206276893616,0.4848390221595764
2504075824.0,-0.4072648882865906,0.1028720587491989,9.653443336486816,1.5723938941955566,1.131393551826477,0.5040753483772278
2504084157.0,-0.4749976098537445,0.1728306710720062,9.67232608795166,1.5983411073684692,1.67730975151062,0.5236958265304565
2504092490.0,-0.5014201402664185,-0.044081475585699,9.920113563537598,1.5365852117538452,1.646034836769104,0.5931872725486755
2504100823.0,-0.4967415034770965,-0.2006940096616745,10.000720977783203,1.518591284751892,0.9427319765090942,0.4946877658367157
2504109156.0,-0.4939952194690704,-0.0290679391473531,9.835540771484377,1.7088663578033447,0.8907478451728821,0.4695217311382293
2504117489.0,-0.4828704297542572,0.2459084391593933,9.712129592895508,1.6382224559783936,1.2840031385421753,0.4399628639221191
2504125822.0,-0.4290370643138885,0.1918175667524337,9.772017478942873,1.591796636581421,1.631985425949097,0.5695069432258606
2504134155.0,-0.4094536006450653,-0.073819488286972,9.885340690612791,1.434883952140808,1.093881607055664,0.6280611157417297
2504142488.0,-0.416420578956604,-0.124778114259243,9.79849624633789,1.5402352809906006,0.8407360911369324,0.4840834736824035
2504150821.0,-0.4794636070728302,0.076268620789051,9.66461181640625,1.6211633682250977,1.3486791849136353,0.5095824599266052
2504159154.0,-0.4883078932762146,0.1506402194499969,9.709623336791992,1.6085355281829834,1.8494887351989744,0.5022567510604858
2504167487.0,-0.5042934417724609,0.0324032604694366,9.93605899810791,1.5060272216796875,1.5781056880950928,0.4620935618877411
2504175820.0,-0.5257185101509094,-0.0633516535162925,9.924418449401855,1.563633680343628,0.8981247544288635,0.4360951483249664
2504184153.0,-0.5053797960281372,0.043668370693922,9.755935668945312,1.5472407341003418,0.960444152355194,0.540242612361908
2504192486.0,-0.4633797705173492,0.1142137795686721,9.674514770507812,1.591655731201172,1.4387131929397583,0.5559954047203064
2504200819.0,-0.4136814773082733,-0.0162575244903564,9.81660270690918,1.4171074628829956,1.486573338508606,0.6253459453582764
2504209152.0,-0.3795210123062134,-0.1358490288257599,9.880820274353027,1.5792968273162842,0.9774903655052184,0.5466589331626892
2504217485.0,-0.4195264279842376,-0.0155239133164286,9.76231861114502,1.610623121261597,0.8956273198127747,0.4948413968086242
2504225818.0,-0.4816067814826965,0.1604346632957458,9.643349647521973,1.6167832612991333,1.454824447631836,0.5195975303649902
2504234151.0,-0.5163632035255432,0.0576868467032909,9.810306549072266,1.462649703025818,1.7016817331314087,0.4318304061889648
2504242484.0,-0.5137021541595459,-0.2015440762042999,9.987168312072754,1.5937178134918213,1.263166069984436,0.4776542782783508
2504250817.0,-0.5106694102287292,-0.1628516465425491,9.919797897338867,1.5787718296051023,0.8791958689689636,0.4319712817668915
2504259150.0,-0.5026413202285767,0.1208940893411636,9.729249000549316,1.758647918701172,1.068523406982422,0.4829820394515991
2504267483.0,-0.4400009512901306,0.2363014370203018,9.690134048461914,1.7152060270309448,1.497228980064392,0.5196871757507324
2504275816.0,-0.4285264611244201,0.0172690078616142,9.826478004455566,1.5690383911132812,1.326548457145691,0.5252583026885986
2504284149.0,-0.4184097349643707,-0.1396733820438385,9.878433227539062,1.494372844696045,0.9028120636940002,0.4423450231552124
2504292482.0,-0.4438017010688782,0.0107017075642943,9.720810890197754,1.6657320261001587,0.9767603874206544,0.4447783827781677
2504300815.0,-0.4828303754329681,0.1721068173646927,9.69641399383545,1.7449954748153689,1.756188988685608,0.5846193432807922
2504309148.0,-0.4986142218112945,0.1079806610941886,9.872539520263672,1.689886450767517,1.6587138175964355,0.4292817413806915
2504317481.0,-0.515943169593811,-0.0133137358352541,9.929144859313965,1.513250470161438,1.046277403831482,0.4691375195980072
2504325814.0,-0.5337201356887817,0.026165772229433,9.841562271118164,1.599071025848389,0.8148143887519836,0.516126811504364
2504334147.0,-0.5001371502876282,0.1552250683307647,9.732580184936523,1.6809855699539185,1.07182776927948,0.4084702730178833
2504342480.0,-0.4413236379623413,0.0720763877034187,9.76035499572754,1.5716893672943115,1.385806918144226,0.4863630533218384
2504350813.0,-0.4059945046901703,-0.0706845819950103,9.902301788330078,1.490863800048828,1.046098232269287,0.4561511576175689
2504359146.0,-0.394014447927475,-0.0251557324081659,9.825111389160156,1.583817720413208,0.7899557948112488,0.4070229530334472
2504367479.0,-0.4304354786872864,0.1721570640802383,9.64194393157959,1.5031328201293943,1.1238117218017578,0.4412692189216614
2504375812.0,-0.4903678596019745,0.1631100624799728,9.74803066253662,1.6154000759124756,1.7379897832870483,0.4136570990085602
2504384145.0,-0.5056445002555847,-0.062350146472454,9.92709732055664,1.5257503986358645,1.435588240623474,0.5005661845207214
2504392478.0,-0.5066088438034058,-0.1665656119585037,9.962705612182615,1.5906440019607544,0.8288766145706177,0.4328037202358246
2504400811.0,-0.4748509526252746,0.0450327023863792,9.758940696716309,1.6332660913467407,0.8811553716659546,0.5184833407402039
2504409144.0,-0.4474526643753052,0.2407701015472412,9.676173210144045,1.667230486869812,1.3889830112457275,0.3677691519260406
2504417477.0,-0.3987437188625335,0.0968195647001266,9.85037326812744,1.5376609563827517,1.4311057329177856,0.399210661649704
2504425810.0,-0.3859950602054596,-0.121467188000679,9.869140625,1.5018010139465332,0.9754284024238586,0.4928050339221954
2504434143.0,-0.3992321491241455,-0.0950165539979934,9.739023208618164,1.5680906772613523,0.8946667313575745,0.5630393028259277
2504442476.0,-0.4402826428413391,0.1081925481557846,9.66959285736084,1.700554609298706,1.501711368560791,0.5028586387634277
2504450809.0,-0.4669510126113891,0.1320482343435287,9.866795539855955,1.6142733097076416,1.8198786973953247,0.5100690722465515
2504459142.0,-0.4964644014835357,-0.0313030257821083,9.922149658203123,1.4519942998886108,1.2557636499404907,0.5142826437950134
2504467475.0,-0.5443386435508728,-0.0404073372483253,9.897056579589844,1.4854719638824463,0.949673354625702,0.6304430961608887
2504475808.0,-0.5001932978630066,0.0809276551008224,9.727155685424805,1.6469182968139648,1.1464931964874268,0.5419458746910095
2504484141.0,-0.4447073340415954,0.1008670106530189,9.705056190490724,1.4486387968063354,1.6224569082260132,0.4853385686874389
2504492474.0,-0.4297370910644531,-0.037574827671051,9.856626510620115,1.4962427616119385,1.2060844898223877,0.4470580220222473
2504500807.0,-0.3901274502277374,-0.1601771712303161,9.906767845153809,1.5983409881591797,0.7878810167312622,0.5354527235031128
2504509140.0,-0.3788528442382812,0.0694573000073432,9.671165466308594,1.630320429801941,1.0332783460617063,0.5809052586555481
2504517473.0,-0.4678781926631927,0.1454599350690841,9.594927787780762,1.577452540397644,1.7040636539459229,0.459621787071228
2504525806.0,-0.4875119626522064,-0.0394279174506664,9.885187149047852,1.5596508979797363,1.6975066661834717,0.5193798542022705
2504534139.0,-0.5139840245246887,-0.2028059065341949,9.97991943359375,1.5359960794448853,1.113489270210266,0.4645269811153412
2504542472.0,-0.5402848720550537,-0.0658495128154754,9.786293983459473,1.6613905429840088,0.7534683346748352,0.5406140089035034
2504550805.0,-0.533277690410614,0.1491959691047668,9.711249351501465,1.7117223739624023,1.2752046585083008,0.5024488568305969
2504559138.0,-0.4559014141559601,0.1629735231399536,9.762117385864258,1.450316309928894,1.5280811786651611,0.3687297105789184
2504567471.0,-0.4455475211143493,-0.1192117854952812,9.841906547546388,1.504567265510559,1.0563437938690186,0.5106838345527649
2504575804.0,-0.4121529459953308,-0.1359546035528183,9.842915534973145,1.53132164478302,0.7432994842529297,0.4642068147659302
2504584137.0,-0.4365459382534027,0.0091437539085745,9.616289138793944,1.6601353883743286,1.235733151435852,0.5298560261726379
2504592470.0,-0.4588601887226105,0.1419898122549057,9.745729446411133,1.6579452753067017,1.7899867296218872,0.5265390276908875
2504600803.0,-0.4961134195327759,0.0260764025151729,9.899457931518556,1.6432429552078247,1.568116307258606,0.5121694803237915
2504609136.0,-0.5242522358894348,-0.0967130959033966,9.954925537109377,1.5006612539291382,0.9869934320449828,0.4754258394241333
2504617469.0,-0.5544456839561462,0.0271068532019853,9.771382331848145,1.6625046730041504,0.9422323703765868,0.4993111193180084
2504625802.0,-0.5245317220687866,0.1463256627321243,9.660877227783203,1.6215988397598269,1.3936834335327148,0.4770267009735107
2504634135.0,-0.4526375234127044,0.0303664170205593,9.85086727142334,1.6480454206466677,1.4517890214920044,0.5748346447944641
2504642468.0,-0.4296966195106506,-0.1250842660665512,9.888165473937988,1.587058186531067,0.9772087335586548,0.5022183656692505
2504650801.0,-0.393870860338211,-0.0020460491068661,9.807906150817873,1.6070371866226196,0.8290047645568848,0.511951744556427
2504659134.0,-0.4479730725288391,0.1822767257690429,9.60013198852539,1.5938713550567627,1.4552983045578003,0.5635643601417542
2504667467.0,-0.45435431599617,0.1117183491587638,9.820916175842283,1.6181153059005735,1.8529976606369016,0.5408061742782593
2504675800.0,-0.4748845100402832,-0.1384629309177398,9.97671604156494,1.4512128829956057,1.3221938610076904,0.6091448664665222
2504684133.0,-0.4962557256221771,-0.122639812529087,9.932609558105469,1.6409374475479126,0.6712082028388977,0.5263340473175049
2504692466.0,-0.4913579225540161,0.1373477578163147,9.70874309539795,1.7482483386993408,0.8681944608688354,0.4638481736183166
2504700799.0,-0.4536913931369781,0.2850657403469085,9.748114585876465,1.7169476747512815,1.4730745553970337,0.5197896957397461
2504709132.0,-0.4042297005653381,0.0625510215759277,9.811853408813477,1.5251482725143433,1.2867053747177124,0.5324174165725708
2504717465.0,-0.3925065696239471,-0.1064876914024353,9.845559120178224,1.4529290199279783,0.8490735292434692,0.5248740911483765
2504725798.0,-0.3946921229362488,-0.0093749202787876,9.702447891235352,1.698569416999817,0.856270968914032,0.5115546584129333
2504734131.0,-0.4509004652500152,0.193972036242485,9.672475814819336,1.6598408222198486,1.590195655822754,0.4764375686645508
2504742464.0,-0.4697856307029724,0.1156771183013916,9.873289108276367,1.6364679336547852,1.7454053163528442,0.5842863321304321
2504750797.0,-0.5047823190689087,-0.002852729987353,9.973108291625977,1.4800162315368652,1.2212612628936768,0.4916908740997314
2504759130.0,-0.5042458772659302,0.0089891031384468,9.877806663513184,1.5242520570755005,0.8025965094566345,0.4575983583927154
2504767463.0,-0.5011025667190552,0.1613259315490722,9.701231956481934,1.5863661766052246,1.1943405866622925,0.4427164196968078
2504775796.0,-0.4306964576244354,0.1201929599046707,9.782090187072754,1.6462781429290771,1.4629058837890625,0.4932020902633667
2504784129.0,-0.3909066617488861,-0.0707557126879692,9.88917636871338,1.4813480377197266,1.138501524925232,0.4880536198616028
2504792462.0,-0.3927997946739197,-0.0709649845957756,9.85322093963623,1.6512857675552368,0.7893154621124268,0.6150361895561218
2504800795.0,-0.4430904686450958,0.1362176388502121,9.63607406616211,1.6461116075515747,1.1457374095916748,0.4737479984760284
2504809128.0,-0.4926003813743591,0.171760082244873,9.709433555603027,1.569435477256775,1.760492205619812,0.6168420314788818
2504817461.0,-0.5223004817962646,-0.0702661722898483,9.946662902832031,1.4907740354537964,1.569332718849182,0.4901027381420135
2504825794.0,-0.5205172300338745,-0.1979889571666717,9.987069129943848,1.5554884672164917,0.97422456741333,0.445674866437912
2504834127.0,-0.4873623251914978,0.001842419616878,9.790770530700684,1.6165525913238523,0.857423722743988,0.5048949122428894
2504842460.0,-0.4707643687725067,0.2211351096630096,9.692826271057127,1.688016653060913,1.3682485818862915,0.4552289545536041
2504850793.0,-0.4362565577030182,0.1039101704955101,9.793708801269531,1.440967321395874,1.4830514192581177,0.5365541577339172
2504859126.0,-0.3956350982189178,-0.1229284107685089,9.890790939331056,1.3761248588562012,1.0543843507766724,0.5001435279846191
2504867459.0,-0.4235934019088745,-0.1401095986366272,9.786574363708496,1.5803982019424438,0.8741625547409058,0.5113625526428223
2504875792.0,-0.4833401143550873,0.0745472759008407,9.65371799468994,1.6381840705871582,1.441287398338318,0.4850055575370788
2504884125.0,-0.5118573904037476,0.1175767034292221,9.778057098388672,1.7030391693115234,1.7843900918960571,0.5100818276405334
2504892458.0,-0.5352048277854919,-0.0465732477605342,9.958514213562012,1.413931369781494,1.4703339338302612,0.4862862229347229
2504900791.0,-0.5354224443435669,-0.1042334288358688,9.888118743896484,1.5676167011260986,0.7138431072235107,0.475912481546402
2504909124.0,-0.4933332800865173,0.0646668300032615,9.70626163482666,1.53816020488739,1.045393705368042,0.4768345654010772
2504917457.0,-0.4831750392913818,0.0842192694544792,9.715394020080566,1.5942299365997314,1.6043732166290283,0.5280374884605408
2504925790.0,-0.4074961543083191,-0.0774836391210556,9.904828071594238,1.4612280130386353,1.3896361589431765,0.5097872614860535
2504934123.0,-0.3716462850570678,-0.1111092045903205,9.899747848510742,1.5543357133865356,0.8076808452606201,0.479152649641037
2504942456.0,-0.4094567894935608,0.0652790442109108,9.70439624786377,1.6726863384246826,0.979078471660614,0.455625981092453
2504950789.0,-0.4513878226280212,0.1782413274049759,9.613178253173828,1.7546006441116333,1.5794248580932615,0.5843375325202942
2504959122.0,-0.4990211725234985,0.0139856496825814,9.825003623962402,1.5818326473236084,1.8648442029953003,0.4995287656784057
2504967455.0,-0.50982266664505,-0.1979707181453704,10.006878852844238,1.5766329765319824,1.1314575672149658,0.4567530155181885
2504975788.0,-0.5067387223243713,-0.0749447643756866,9.852460861206056,1.5984562635421753,0.8131494522094727,0.3686912953853607
2504984121.0,-0.4877238571643829,0.1907373070716858,9.693756103515623,1.669715166091919,1.1812005043029783,0.4332135319709778
2504992454.0,-0.4443773329257965,0.2582882940769195,9.754672050476074,1.6072421073913574,1.49389910697937,0.388696014881134
2505000787.0,-0.3764489293098449,-0.0234829578548669,9.850274085998535,1.4786584377288818,1.1375025510787964,0.5628215670585632
2505009120.0,-0.3911032676696777,-0.1220217794179916,9.821660041809082,1.4822700023651123,0.7896100282669067,0.6386396884918213
2505017453.0,-0.3971204757690429,0.0416089594364166,9.70969009399414,1.6367496252059937,1.157251238822937,0.4510411024093628
2505025786.0,-0.4666828215122223,0.1921261996030807,9.690024375915527,1.6417059898376465,1.817675828933716,0.5433163642883301
2505034119.0,-0.4913890659809112,0.0653420835733413,9.897814750671388,1.5689870119094849,1.6527456045150757,0.5711077451705933
2505042452.0,-0.5232841968536377,-0.0372637063264846,9.946797370910645,1.5334091186523438,1.0049360990524292,0.4616582095623016
2505050785.0,-0.499620258808136,0.0442526452243328,9.787866592407228,1.615131139755249,0.7832064628601074,0.4424346685409546
2505059118.0,-0.4863944947719574,0.1529882252216339,9.6581392288208,1.6277847290039062,1.2951581478118896,0.3926149904727936
2505067451.0,-0.4063295423984527,0.0526308603584766,9.827274322509766,1.4986120462417605,1.4456675052642822,0.4860557019710541
2505075784.0,-0.3955250978469848,-0.1004004925489425,9.907750129699709,1.5066038370132446,0.9034397006034852,0.5303683280944824
2505084117.0,-0.3902024924755096,-0.0133366826921701,9.803823471069336,1.6514523029327393,0.8906068801879883,0.4918701648712158
2505092450.0,-0.4495490789413452,0.1734727472066879,9.63609218597412,1.656306266784668,1.361076593399048,0.5579677224159241
2505100783.0,-0.4951877892017364,0.1412078142166137,9.749927520751951,1.4712176322937012,1.90071702003479,0.5623733401298523
2505109116.0,-0.5205685496330261,-0.1186074018478393,9.95018482208252,1.3785581588745115,1.34856379032135,0.5145387649536133
2505117449.0,-0.5093515515327454,-0.1676903665065765,9.923513412475586,1.5991606712341309,0.7171344757080078,0.4865551888942718
2505125782.0,-0.4962723851203918,0.0880564749240875,9.763296127319336,1.6819970607757568,0.91971755027771,0.5633978843688965
2505134115.0,-0.455874890089035,0.2673756778240204,9.7205810546875,1.6199467182159424,1.475917935371399,0.4939961731433868
2505142448.0,-0.4238778352737427,0.0883393213152885,9.80669116973877,1.5342159271240234,1.5185399055480957,0.5834153890609741
2505150781.0,-0.4002138376235962,-0.1121498346328735,9.913243293762209,1.41051185131073,0.8610096573829651,0.5079174637794495
2505159114.0,-0.3933362066745758,-0.0513414293527603,9.720744132995604,1.5232146978378296,0.9045283794403076,0.5211600065231323
2505167447.0,-0.4893819987773895,0.1696865707635879,9.685039520263672,1.6099570989608765,1.582242727279663,0.4522961974143982
2505175780.0,-0.4992207586765289,0.1003728583455085,9.82920742034912,1.5821912288665771,1.6734291315078735,0.5561106204986572
2505184113.0,-0.532701313495636,-0.0236078910529613,9.960461616516112,1.5525940656661987,1.221530199050903,0.5930079221725464
2505192446.0,-0.5374570488929749,-0.0466962568461895,9.85492992401123,1.5488542318344116,0.7815287113189697,0.5437261462211609
2505200779.0,-0.5078427195549011,0.1157201826572418,9.740988731384276,1.6184353828430176,1.1814053058624268,0.4760405421257019
2505209112.0,-0.4416481554508209,0.0766433551907539,9.7318754196167,1.4946672916412354,1.4874441623687744,0.4372861981391907
2505217445.0,-0.3983072936534881,-0.0842056795954704,9.911373138427734,1.4969854354858398,1.254623532295227,0.6039963960647583
2505225778.0,-0.3792576193809509,-0.1320696473121643,9.84800148010254,1.605026125907898,0.8436688184738159,0.5705186724662781
2505234111.0,-0.4316006004810333,0.08964654058218,9.658857345581056,1.584112286567688,1.1406785249710083,0.4773468673229217
2505242444.0,-0.4837332963943481,0.161232441663742,9.698121070861816,1.6156179904937744,1.7922794818878174,0.5043955445289612
2505250777.0,-0.5162855982780457,-0.0547767244279384,9.92676830291748,1.4893269538879397,1.7150651216506958,0.5154224038124084
2505259110.0,-0.5053812861442566,-0.2195451259613037,9.984319686889648,1.58324134349823,1.0554344654083252,0.4442532658576965
2505267443.0,-0.4922500848770141,-0.0355030968785285,9.811620712280272,1.702270746231079,0.9227784276008606,0.403962105512619
2505275776.0,-0.4563795328140259,0.19622503221035,9.65517234802246,1.717895746231079,1.3072993755340576,0.4408465921878814
2505284109.0,-0.4178236722946167,0.1487064808607101,9.769464492797852,1.6821635961532593,1.4824239015579224,0.4596986770629883
2505292442.0,-0.3786985576152801,-0.0900254845619201,9.855170249938965,1.4696935415267944,1.01237690448761,0.4643604457378387
2505300775.0,-0.4031849503517151,-0.127004474401474,9.808942794799805,1.5853290557861328,0.8317326903343201,0.5822243690490723
2505309108.0,-0.4791656732559204,0.072592444717884,9.657594680786133,1.6188197135925293,1.3932607173919678,0.4774493277072906
2505317441.0,-0.4925515353679657,0.1261295229196548,9.771254539489746,1.631626844406128,1.7550106048583984,0.5146156549453735
2505325774.0,-0.522520899772644,0.0116836242377758,9.948127746582031,1.5428221225738523,1.5911048650741575,0.4946621060371399
2505334107.0,-0.5180026292800903,-0.0643450692296028,9.92841911315918,1.5749295949935913,0.834985613822937,0.4460590779781341
2505342440.0,-0.4807885587215423,0.0681242570281028,9.74173069000244,1.5821528434753418,0.9281190037727356,0.5325839519500732
2505350773.0,-0.4449974000453949,0.1357481330633163,9.677708625793455,1.5547969341278076,1.4745986461639404,0.483609527349472
2505359106.0,-0.4051453769207001,-0.006124644074589,9.886200904846191,1.5112780332565308,1.4941166639328003,0.5374250411987305
2505367439.0,-0.3687976002693176,-0.1259082108736038,9.92709255218506,1.6000316143035889,0.954911470413208,0.4814835786819458
2505375772.0,-0.3995647728443146,0.0475235730409622,9.743412017822266,1.5966122150421145,0.8742139339447021,0.5637693405151367
2505384105.0,-0.4686347246170044,0.1783852577209472,9.622106552124023,1.6098800897598269,1.536188006401062,0.6011916995048523
2505392438.0,-0.4953263103961944,0.0759453773498535,9.834466934204102,1.5646071434020996,1.6886314153671265,0.5367078185081482
2505400771.0,-0.5326204895973206,-0.188940480351448,9.984654426574709,1.5779776573181152,1.258849859237671,0.5000795125961304
2505409104.0,-0.5164244174957275,-0.0945209339261055,9.88248348236084,1.7271933555603027,0.6785467267036438,0.4720959663391113
2505417437.0,-0.4968478977680206,0.1535254567861557,9.739649772644045,1.863627791404724,1.0827009677886963,0.3737501204013824
2505425770.0,-0.4549609124660492,0.2576037943363189,9.704906463623049,1.699286699295044,1.5053869485855105,0.4655515253543854
2505434103.0,-0.3990917503833771,-0.0018601585179567,9.84361457824707,1.3908785581588743,1.305429458618164,0.3995563983917236
2505442436.0,-0.4172467887401581,-0.1017205789685249,9.86258316040039,1.4583079814910889,0.6846812963485718,0.4631949961185455
2505450769.0,-0.4377506971359253,0.0340570546686649,9.6521577835083,1.6292445659637451,1.1153461933135986,0.4975821077823639
2505459102.0,-0.4898044764995575,0.2065537869930267,9.716546058654783,1.6642721891403198,1.6694974899291992,0.3934474885463714
2505467435.0,-0.5333327054977417,0.0769114792346954,9.90293788909912,1.5641971826553345,1.7003883123397827,0.6141397356987
2505475768.0,-0.5373503565788269,-0.0612547136843204,9.980695724487305,1.4834742546081543,1.011506199836731,0.5207374095916748
2505484101.0,-0.5248569846153259,-0.0059026982635259,9.80506706237793,1.58412504196167,0.8222296833992004,0.551615297794342
2505492434.0,-0.5066028833389282,0.1416913717985153,9.69289779663086,1.6283352375030518,1.3271629810333252,0.6005641222000122
2505500767.0,-0.4397487938404083,0.0617851987481117,9.824295997619627,1.5723681449890137,1.467657208442688,0.4759508967399597
2505509100.0,-0.4048716425895691,-0.0913745313882827,9.9053373336792,1.4836790561676023,1.0870682001113892,0.4920751750469208
2505517433.0,-0.3877197206020355,-0.0549154616892337,9.771299362182615,1.5587671995162964,0.7894948124885559,0.4284365475177765
2505525766.0,-0.4536296427249908,0.1686713993549347,9.64174461364746,1.5908617973327637,1.302548050880432,0.3884527087211609
2505534099.0,-0.4798209071159363,0.1252738833427429,9.748899459838867,1.5405040979385376,1.765986442565918,0.5613232254981995
2505542432.0,-0.5076663494110107,-0.1335012912750244,9.943620681762695,1.5244694948196411,1.407617449760437,0.4068180918693542
2505550765.0,-0.5049886107444763,-0.1711553931236267,9.971388816833496,1.6449075937271118,0.8666703701019287,0.4441124200820923
2505559098.0,-0.4884976744651794,0.0693765878677368,9.76822566986084,1.621355414390564,0.8747004866600037,0.461722195148468
2505567431.0,-0.4729636013507843,0.2662459015846252,9.725802421569824,1.6516185998916626,1.398806095123291,0.5542023777961731
2505575764.0,-0.4206069707870483,0.0625663846731185,9.83372402191162,1.5779776573181152,1.4674779176712036,0.4016696214675903
2505584097.0,-0.3954411149024963,-0.1292346566915512,9.878771781921388,1.4835251569747925,0.8977276086807251,0.5761922001838684
2505592430.0,-0.399709403514862,-0.0716810598969459,9.739068984985352,1.599403977394104,0.9159393906593324,0.4867472946643829
2505600763.0,-0.447395771741867,0.1440623253583908,9.718252182006836,1.5729955434799194,1.6362372636795044,0.4982736706733703
2505609096.0,-0.4841505587100982,0.1080492436885833,9.820154190063477,1.6126210689544678,1.8301372528076167,0.539794385433197
2505617429.0,-0.5088732242584229,-0.0330027677118778,9.973459243774414,1.5162601470947266,1.1525124311447144,0.4835711121559143
2505625762.0,-0.5101185441017151,-0.0525655150413513,9.859909057617188,1.5911948680877686,0.852608323097229,0.4400141537189483
2505634095.0,-0.494230717420578,0.1321061551570892,9.69015407562256,1.6261452436447144,1.0454962253570557,0.4985042512416839
2505642428.0,-0.4403711557388305,0.0861774906516075,9.707199096679688,1.5611107349395752,1.487572193145752,0.4234289228916168
2505650761.0,-0.3910582363605499,-0.0740346685051918,9.887887001037598,1.450790286064148,1.245799541473389,0.5322638154029846
2505659094.0,-0.3850403726100921,-0.0968653485178947,9.873701095581056,1.5689231157302856,0.7883036732673645,0.3939469158649444
2505667427.0,-0.4420132339000702,0.0828164219856262,9.670297622680664,1.6194216012954712,1.0043213367462158,0.5587873458862305
2505675760.0,-0.4781956970691681,0.1646110564470291,9.695852279663086,1.608189821243286,1.6986849308013916,0.5061629414558411
2505684093.0,-0.5244409441947937,-0.0484958887100219,9.91709327697754,1.5734312534332275,1.6668462753295898,0.5036782622337341
2505692426.0,-0.509283721446991,-0.206405758857727,9.987306594848633,1.6274516582489014,1.0713154077529907,0.46387380361557
2505700759.0,-0.5294795632362366,-0.0277999155223369,9.800141334533691,1.6459450721740725,0.9335107803344728,0.5641791224479675
2505709092.0,-0.5079308152198792,0.2251922339200973,9.695993423461914,1.7604150772094729,1.222874879837036,0.526603102684021
2505717425.0,-0.43561452627182,0.1557512879371643,9.799280166625977,1.5668997764587402,1.5731751918792725,0.549835205078125
2505725758.0,-0.4008413851261139,-0.1001102700829505,9.866331100463867,1.4949876070022583,1.037081956863403,0.5229530334472656
2505734091.0,-0.4163831770420074,-0.0976006984710693,9.764153480529783,1.650081753730774,0.6948502063751221,0.4348144233226776
2505742424.0,-0.4398708343505859,0.0961048081517219,9.710249900817873,1.652809500694275,1.268160700798035,0.504958987236023
2505750757.0,-0.448149174451828,0.1550600379705429,9.772659301757812,1.6618130207061768,1.8195455074310305,0.505586564540863
2505759090.0,-0.5206056833267212,0.0260133687406778,9.926990509033203,1.5654011964797974,1.473138689994812,0.4358133673667907
2505767423.0,-0.5404842495918274,-0.0435501299798488,9.910923957824709,1.599109411239624,0.8936678171157837,0.443369597196579
2505775756.0,-0.5009445548057556,0.0632092580199241,9.763954162597656,1.5911178588867188,1.0248383283615112,0.6346567273139954
2505784089.0,-0.4962610602378845,0.1862822920083999,9.694156646728516,1.6134791374206543,1.5005972385406494,0.3931145071983337
2505792422.0,-0.4435538351535797,-0.0068706716410815,9.859750747680664,1.4496248960494995,1.3221427202224731,0.4862990081310272
2505800755.0,-0.3522854149341583,-0.1079678535461425,9.90643310546875,1.5287598371505735,0.9215744733810424,0.5672783851623535
2505809088.0,-0.3988701105117798,0.0863605290651321,9.70526885986328,1.6930495500564575,0.9316664934158324,0.5452246069908142
2505817421.0,-0.4525640308856964,0.1680446416139602,9.65395450592041,1.6472257375717163,1.4944368600845337,0.5771143436431885
2505825754.0,-0.4753380119800567,0.0643850713968277,9.86577033996582,1.5221384763717651,1.7538962364196775,0.4313308894634247
2505834087.0,-0.5165935158729553,-0.174704372882843,9.91909122467041,1.5393258333206177,1.1631295680999756,0.4881944954395294
2505842420.0,-0.5328378081321716,-0.0865775346755981,9.872725486755373,1.5635696649551392,0.830003559589386,0.5790866017341614
2505850753.0,-0.4851698875427246,0.1771410703659057,9.714723587036133,1.7685604095458984,1.2515627145767212,0.464027464389801
2505859086.0,-0.4698588252067566,0.2334445267915725,9.725690841674805,1.5619430541992188,1.5105866193771362,0.5672656297683716
2505867419.0,-0.4188852310180664,-0.0150429364293813,9.852032661437988,1.4792860746383667,1.244839072227478,0.5498479604721069
2505875752.0,-0.3791476488113403,-0.1091240048408508,9.82207202911377,1.4599984884262085,0.7932344079017639,0.4944700002670288
2505884085.0,-0.4029994606971741,0.0332909598946571,9.683165550231934,1.590490221977234,1.1732343435287476,0.45168137550354
2505892418.0,-0.4495637714862823,0.1779382228851318,9.719738006591797,1.6400539875030518,1.6970456838607788,0.4813683629035949
2505900751.0,-0.4911287128925323,0.0492318756878376,9.902515411376951,1.5642101764678955,1.6795508861541748,0.4815219938755035
2505909084.0,-0.5082019567489624,-0.071295715868473,9.932294845581056,1.535022497177124,0.9640299677848816,0.5408316850662231
2505917417.0,-0.5281501412391663,0.0410729944705963,9.794400215148926,1.565477967262268,0.7781732082366943,0.4731589555740356
2505925750.0,-0.4908338189125061,0.1277288794517517,9.727001190185549,1.6966482400894165,1.3439916372299194,0.5664715766906738
2505934083.0,-0.4510191977024078,0.008817889727652,9.814228057861328,1.4974209070205688,1.41522479057312,0.5111448168754578
2505942416.0,-0.4075590372085571,-0.126294732093811,9.935932159423828,1.4799648523330688,0.9431928992271424,0.4253755807876587
2505950749.0,-0.4045068025588989,-0.0228402353823184,9.764336585998535,1.5236626863479614,0.8985217213630676,0.567380964756012
2505959082.0,-0.4387851655483246,0.1691569983959198,9.66152000427246,1.5749552249908447,1.3754202127456665,0.5881412625312805
2505967415.0,-0.4675623774528503,0.0944873020052909,9.759359359741213,1.5168365240097046,1.7407305240631104,0.3815112113952636
2505975748.0,-0.5164027214050293,-0.1600724756717682,10.00454330444336,1.4522628784179688,1.376905918121338,0.592341959476471
2505984081.0,-0.5167303085327148,-0.1366025507450103,9.937301635742188,1.5661183595657349,0.9027096033096312,0.473978579044342
2505992414.0,-0.5128517746925354,0.0870041027665138,9.718496322631836,1.7974919080734253,1.2300596237182615,0.5222358703613281
2506000747.0,-0.459747165441513,0.2309118509292602,9.714951515197754,1.691999435424805,1.4971520900726318,0.4563432037830353
2506009080.0,-0.4183245003223419,0.0122603056952357,9.841228485107422,1.4884432554244995,1.3691834211349487,0.5728367567062378
2506017413.0,-0.4199683964252472,-0.1213559731841087,9.868178367614746,1.4525575637817385,0.9378138184547424,0.5450965166091919
2506025746.0,-0.4291581809520721,-0.0473126918077468,9.704853057861328,1.6244548559188845,1.0785130262374878,0.5290876626968384
2506034079.0,-0.5007613897323608,0.1584857404232025,9.716716766357422,1.6878373622894287,1.625953197479248,0.5042290687561035
2506042412.0,-0.5065705180168152,0.0695786327123642,9.87592887878418,1.5240981578826904,1.6533219814300537,0.4064722657203674
2506050745.0,-0.504327654838562,-0.0436733029782772,9.98274040222168,1.5151844024658203,1.0897575616836548,0.4766296446323395
2506059078.0,-0.5394207835197449,-0.0095665054395794,9.815229415893556,1.5191420316696167,0.7593980431556702,0.4730564951896667
2506067411.0,-0.5139654278755188,0.1285866349935531,9.725533485412598,1.57815682888031,1.2403820753097534,0.4989268481731415
