SampleTimeFine,Acc_X,Acc_Y,Acc_Z,Gyr_X,Gyr_Y,Gyr_Z
2473810829.0,0.0,0.0,0.0,0.0,0.0,0.0
2473819162.0,-0.7461416721343994,0.247702956199646,10.05601692199707,-0.074831984937191,0.3417707085609436,1.1669588088989258
2473827495.0,-0.7919053435325623,0.4338269233703613,9.883132934570312,0.2322698682546615,-0.1922476291656494,1.274231195449829
2473835828.0,-0.7576720714569092,0.6307734847068787,10.061975479125977,0.5669198632240295,-0.527153730392456,1.2246421575546265
2473844161.0,-0.6499859690666199,0.5527859926223755,10.24191951751709,0.4050379395484924,-0.8928226232528687,1.2462862730026243
2473852494.0,-0.573951244354248,0.3586506843566894,10.221112251281738,-0.0397404842078685,-0.9706642627716064,1.317980408668518
2473860827.0,-0.6322469711303711,0.3299677968025207,10.056096076965332,-0.1900960355997085,-0.7207460999488831,1.357964277267456
2473869160.0,-0.7038468718528748,0.4853132367134094,9.95923900604248,0.3831889629364013,-0.0307755023241043,1.385986328125
2473877493.0,-0.698596715927124,0.5459049940109253,10.16977596282959,0.705979585647583,0.3815496563911438,1.3526878356933594
2473885826.0,-0.7025308012962341,0.482130229473114,10.19283676147461,0.4023227393627167,0.3148757517337799,1.3155726194381714
2473894159.0,-0.7075021266937256,0.4207874238491058,9.974117279052734,0.1234350055456161,0.1697711646556854,1.3863704204559326
2473902492.0,-0.7809829711914062,0.5008203983306885,9.818428993225098,0.1674914956092834,-0.2449617534875869,1.380171775817871
2473910825.0,-0.7347183227539062,0.5740582942962646,9.981749534606934,0.4435360729694366,-0.4477495849132538,1.3270220756530762
2473919158.0,-0.5983247756958008,0.5006285309791565,10.189752578735352,0.6242958307266235,-0.7638037204742432,1.3952842950820925
2473927491.0,-0.5451682209968567,0.5035744309425354,10.111952781677246,0.393716424703598,-0.8512763977050781,1.3303521871566772
2473935824.0,-0.5972409248352051,0.6614376902580261,10.104763984680176,0.3409254848957062,-0.6477967500686646,1.351535081863403
2473944157.0,-0.6434769034385681,0.8049594759941101,10.30668830871582,0.4189464449882507,0.0065828580409288,1.355095386505127
2473952490.0,-0.6327832341194153,0.652010440826416,10.384017944335938,0.2117272615432739,0.5196359157562256,1.483550786972046
2473960823.0,-0.6776531934738159,0.600509762763977,10.315887451171877,-0.0300839189440011,0.6260631680488586,1.3536354303359983
2473969156.0,-0.7085677981376648,0.7874278426170349,10.23302173614502,-0.1392773985862732,0.3126473128795624,1.3179291486740112
2473977489.0,-0.7600682377815247,1.0254815816879272,10.257877349853516,0.0607825815677642,-0.3262101113796234,1.330428957939148
2473985822.0,-0.6947484612464905,1.0419546365737915,10.499422073364258,-0.0250379107892513,-0.6293033361434937,1.3042768239974976
2473994155.0,-0.6121188402175903,0.9029319882392884,10.591872215270996,-0.7012025117874146,-0.715059757232666,1.2697745561599731
2474002488.0,-0.630447268486023,0.831006646156311,10.397339820861816,-1.121993064880371,-0.4786147773265838,1.2944666147232056
2474010821.0,-0.7432811856269836,0.9007861018180848,10.297972679138184,-1.0925624370574951,-0.0993448123335838,1.2782527208328247
2474019154.0,-0.7706186771392822,0.8383203744888306,10.48422908782959,-0.8028910160064697,0.477628618478775,1.164218187332153
2474027487.0,-0.7584949135780334,0.6943480968475342,10.501704216003418,-0.9601624011993408,0.6018832325935364,1.1687263250350952
2474035820.0,-0.8256868720054626,0.6115261316299438,10.253488540649414,-1.1649482250213623,0.4601341187953949,1.187527060508728
2474044153.0,-0.8916524648666382,0.5312272906303406,9.951021194458008,-1.2057774066925049,0.0547888539731502,1.0906798839569092
2474052486.0,-0.9004502892494202,0.4056948125362396,10.004374504089355,-0.8139306902885437,-0.3389915823936462,1.0366592407226562
2474060819.0,-0.8171836733818054,0.2574165165424347,10.164261817932127,-0.6182635426521301,-0.5570711493492126,1.071468949317932
2474069152.0,-0.7230238318443298,0.2465796917676925,10.10397720336914,-0.4776926636695862,-0.7154439687728882,0.9872494339942932
2474077485.0,-0.7377370595932007,0.3638508021831512,10.052577018737791,-0.2981880903244018,-0.5742838382720947,0.914914846420288
2474085818.0,-0.7971128225326538,0.46431964635849,10.186763763427734,0.0015880825230851,-0.1651733815670013,1.0210089683532717
2474094151.0,-0.8239144682884216,0.3695299327373504,10.309499740600586,-0.2089993506669998,0.3652077317237854,1.102872014045715
2474102484.0,-0.8138003945350647,0.2642903923988342,10.210711479187012,-0.3763627409934997,0.3761962950229645,1.1480813026428225
2474110817.0,-0.8408452868461609,0.3275644481182098,10.022993087768556,-0.299187034368515,0.2621360719203949,1.171569585800171
2474119150.0,-0.8338426947593689,0.5396605134010315,10.035775184631348,0.0390360951423645,-0.1382016092538833,1.185247540473938
2474127483.0,-0.790095865726471,0.6707578301429749,10.242777824401855,0.1662619709968567,-0.3761321902275085,1.2780221700668335
2474135816.0,-0.6897987127304077,0.6228194832801819,10.365878105163574,-0.306307852268219,-0.7361147403717041,1.3846030235290527
2474144149.0,-0.666105329990387,0.4799518883228302,10.245736122131348,-0.8443604111671448,-0.7289938926696777,1.4265848398208618
2474152482.0,-0.7239130735397339,0.5069931745529175,10.114395141601562,-1.017512559890747,-0.5201354026794434,1.3409819602966309
2474160815.0,-0.7623998522758484,0.614643931388855,10.230668067932127,-0.564601719379425,-0.1784415692090988,1.3652386665344238
2474169148.0,-0.7420142889022827,0.6019260287284851,10.368782997131348,-0.5502577424049377,0.1649812906980514,1.426533579826355
2474177481.0,-0.7448621392250061,0.5622246265411377,10.243741035461426,-1.0013244152069092,0.1968709975481033,1.4429010152816772
2474185814.0,-0.751449704170227,0.5220049023628235,10.077728271484377,-1.119021773338318,-0.0543405972421169,1.3876765966415403
2474194147.0,-0.821262538433075,0.5246480107307434,9.98358917236328,-1.0392589569091797,-0.3474698960781097,1.3902894258499146
2474202480.0,-0.7360845804214478,0.4661796689033508,10.250238418579102,-0.6815308332443237,-0.4485436975955963,1.3329905271530151
2474210813.0,-0.6678823828697205,0.3911460638046264,10.18443202972412,-0.6816843748092651,-0.6080434918403625,1.2734885215759275
2474219146.0,-0.6313194632530212,0.4438470005989074,10.039525032043455,-0.8869056701660156,-0.8980734944343567,1.1904217004776
2474227479.0,-0.6323399543762207,0.5254263877868652,10.084257125854492,-0.6859108805656433,-0.7530456781387329,1.0683953762054443
2474235812.0,-0.6842266321182251,0.4871944487094879,10.238737106323242,-0.498491495847702,-0.3072043359279632,1.0424482822418213
2474244145.0,-0.6488415598869324,0.294940322637558,10.306802749633787,-0.5239775776863098,0.1645458340644836,1.064988613128662
2474252478.0,-0.7183102369308472,0.247838944196701,10.005805015563965,-0.6139604449272156,0.2668491303920746,1.1396541595458984
2474260811.0,-0.7689949870109558,0.375381201505661,9.859585762023926,-0.219501182436943,0.0629597827792167,1.0294617414474487
2474269144.0,-0.7746815085411072,0.531484842300415,9.970991134643556,0.0655980482697486,-0.2547976076602936,1.0948035717010498
2474277477.0,-0.6612517237663269,0.4632467329502105,10.131715774536133,-0.0543405972421169,-0.8091920614242554,1.0943169593811035
2474285810.0,-0.6073979735374451,0.2748837471008301,10.019981384277344,-0.4915755093097687,-1.1688926219940186,1.0769249200820925
2474294143.0,-0.606105387210846,0.254481703042984,9.85716724395752,-0.4540763199329376,-1.2237073183059692,1.1226463317871094
2474302476.0,-0.6734330058097839,0.3701882362365722,9.963603019714355,-0.0598220527172088,-0.675895631313324,1.1667284965515137
2474310809.0,-0.6274113655090332,0.4056877493858337,10.248672485351562,0.23757204413414,0.0108092073351144,1.1819945573806765
2474319142.0,-0.6597496867179871,0.3179152011871338,10.175555229187012,0.0402911901473999,0.2247136533260345,1.301664113998413
2474327475.0,-0.6903280019760132,0.2753772437572479,9.953267097473145,-0.2021859735250473,0.2100623399019241,1.402379274368286
2474335808.0,-0.7867340445518494,0.3815397918224334,9.80854320526123,-0.0197613835334777,0.0171103086322546,1.4184651374816897
2474344141.0,-0.7687303423881531,0.4139994084835052,9.97157096862793,0.0849624127149581,-0.315990000963211,1.4984838962554932
2474352474.0,-0.6358233690261841,0.3462047576904297,10.067840576171877,0.0160857401788234,-0.708195149898529,1.4996109008789062
2474360807.0,-0.577309250831604,0.3365936577320099,10.04979133605957,-0.0866657719016075,-0.8629819750785828,1.5464849472045898
2474369140.0,-0.5780426859855652,0.4674883484840393,10.084149360656738,0.0642405077815055,-0.6788156628608704,1.353072166442871
2474377473.0,-0.645622730255127,0.6354943513870239,10.238615036010742,0.2593953311443329,-0.1595638543367386,1.483397126197815
2474385806.0,-0.6332125663757324,0.5021939277648926,10.32357692718506,0.1774810403585434,0.4219176471233368,1.4342947006225586
2474394139.0,-0.6535052061080933,0.3265344202518463,10.223709106445312,-0.1385345757007599,0.6705037951469421,1.481245517730713
2474402472.0,-0.7145474553108215,0.3873337209224701,9.984996795654297,-0.0290849637240171,0.4145407974720001,1.3271759748458862
2474410805.0,-0.7686513662338257,0.623105525970459,9.994595527648926,0.3353928029537201,0.0153429275378584,1.3979225158691406
2474419138.0,-0.6645563244819641,0.6696920990943909,10.1912202835083,0.5237854719161987,-0.3691395223140716,1.2271780967712402
2474427471.0,-0.5663263201713562,0.5108274221420288,10.35575008392334,0.0071463724598288,-0.8339866995811462,1.3631895780563354
2474435804.0,-0.598700225353241,0.4305577874183655,10.210725784301758,-0.426003098487854,-0.8780175447463989,1.209632158279419
2474444137.0,-0.69841068983078,0.5467915534973145,10.11696720123291,-0.0808257162570953,-0.3570496141910553,1.2261021137237549
2474452470.0,-0.7319217920303345,0.6240211725234985,10.27395725250244,0.3883886337280273,0.087344542145729,1.1805343627929688
2474460803.0,-0.6905426383018494,0.5534941554069519,10.417400360107422,0.3906170725822449,0.3125192523002624,1.2070451974868774
2474469136.0,-0.7020586133003235,0.4806069135665893,10.275487899780272,-0.0109500857070088,0.3503771126270294,1.211783766746521
2474477469.0,-0.8140793442726135,0.5562909245491028,10.074707984924316,-0.1293903142213821,0.1508422195911407,1.2540217638015747
2474485802.0,-0.8337138891220093,0.5966973304748535,10.108076095581056,0.0261777471750974,-0.1356914043426513,1.2430330514907837
2474494135.0,-0.7425938248634338,0.5078232288360596,10.235467910766602,0.013882914558053,-0.5288698673248291,1.184274196624756
2474502468.0,-0.6408804059028625,0.4233055710792541,10.219173431396484,-0.1913511455059051,-0.8498418927192688,1.0929081439971924
2474510801.0,-0.6707150340080261,0.5683287978172302,10.17239475250244,-0.266605794429779,-0.8337818384170532,1.2206463813781738
2474519134.0,-0.7654185891151428,0.6963797807693481,10.252177238464355,-0.08884297311306,-0.4137338995933532,1.1545616388320925
2474527467.0,-0.7464492321014404,0.537257194519043,10.397994995117188,-0.0176610145717859,0.06846684217453,1.1984645128250122
2474535800.0,-0.7794524431228638,0.3772194683551788,10.30284023284912,-0.3218300640583038,0.4301398396492004,1.2286635637283323
2474544133.0,-0.8340358138084412,0.4329115152359009,10.069550514221191,-0.3697286546230316,0.3661554753780365,1.2598105669021606
2474552466.0,-0.8940982222557068,0.6171401143074036,10.03723430633545,0.086678571999073,0.0934919565916061,1.2107336521148682
2474560799.0,-0.8481268882751465,0.6940189003944397,10.197193145751951,0.3247628808021545,-0.3499288558959961,1.2251031398773191
2474569132.0,-0.7225730419158936,0.5709115862846375,10.2726411819458,-0.1930160522460937,-0.660219669342041,1.2422646284103394
2474577465.0,-0.6774243712425232,0.4747123122215271,10.137359619140623,-0.4338923096656799,-0.80027836561203,1.2813009023666382
2474585798.0,-0.7347042560577393,0.5356406569480896,10.06971549987793,-0.3437045812606811,-0.656838595867157,1.316571593284607
2474594131.0,-0.7790732383728027,0.6536409258842468,10.186420440673828,0.0080428700894117,-0.1468592137098312,1.3044817447662354
2474602464.0,-0.7303553223609924,0.6161101460456848,10.345857620239258,0.1828600168228149,0.268155425786972,1.248591423034668
2474610797.0,-0.7381376028060913,0.5433800220489502,10.214818000793455,-0.125061497092247,0.4214822351932525,1.345797419548035
2474619130.0,-0.7925850749015808,0.5846662521362305,10.035074234008787,-0.3960601091384887,0.301018476486206,1.387420654296875
2474627463.0,-0.8564457893371582,0.6910002827644348,10.000261306762695,-0.2695770263671875,-0.031492706388235,1.2755120992660522
2474635796.0,-0.757793664932251,0.6147370338439941,10.116266250610352,-0.1053385436534881,-0.3430898189544678,1.3275600671768188
2474644129.0,-0.632990837097168,0.42503622174263,9.958623886108398,-0.2595874667167663,-0.6431606411933899,1.1865025758743286
2474652462.0,-0.5725660920143127,0.5344021320343018,10.05846881866455,-0.5386289954185486,-1.082034945487976,1.3618576526641846
2474660795.0,-0.6643345952033997,0.6876171231269836,10.333433151245115,-0.2407353818416595,-1.055754780769348,1.1301512718200684
2474669128.0,-0.587040901184082,0.6409451961517334,10.360621452331545,-0.1471665799617767,-0.3024656772613525,1.2577613592147827
2474677461.0,-0.6459016799926758,0.4432262778282165,10.07575225830078,-0.0880233198404312,0.5362083911895752,1.1222621202468872
2474685794.0,-0.6125767230987549,0.34986013174057,10.135528564453123,-0.4847877919673919,0.7517521381378174,1.202409029006958
2474694127.0,-0.7424936890602112,0.4964073002338409,10.062183380126951,-0.3560507297515869,0.7312095761299133,1.249308705329895
2474702460.0,-0.7538166642189026,0.6518672108650208,10.024895668029783,0.230886697769165,0.3031956851482391,1.1423180103302002
2474710793.0,-0.6466956734657288,0.5369424819946289,10.183802604675291,0.114521250128746,-0.2809753715991974,1.0747990608215332
2474719126.0,-0.5921910405158997,0.3623916208744049,10.08861255645752,-0.2770307660102844,-1.001964807510376,1.0745941400527954
2474727459.0,-0.6005812883377075,0.3752596080303192,10.014809608459473,-0.436863511800766,-1.0666918754577637,1.1444439888000488
2474735792.0,-0.6659939885139465,0.5203123688697815,10.19114875793457,-0.2318472266197204,-0.6510754227638245,1.1431632041931152
2474744125.0,-0.6503577828407288,0.4941182434558868,10.38287353515625,0.0950800329446792,-0.1166344210505485,1.040194034576416
2474752458.0,-0.6226977705955505,0.3643804788589477,10.30133819580078,0.0579394027590751,0.5270897150039673,1.0578677654266355
2474760791.0,-0.6911720633506775,0.345704048871994,10.136672973632812,-0.1483192443847656,0.7914286255836487,1.1435731649398804
2474769124.0,-0.8093084096908569,0.4406870007514953,10.08178997039795,-0.0996521785855293,0.7973198890686035,1.1969274282455444
2474777457.0,-0.7999739646911621,0.471522569656372,10.110185623168944,0.1102949008345604,0.569250762462616,1.170647382736206
2474785790.0,-0.7166290283203125,0.3683070242404938,10.08718204498291,0.2172599583864212,-0.0068774227984249,1.0854545831680298
2474794123.0,-0.6655362844467163,0.3429144322872162,10.073126792907717,0.0604495890438556,-0.5025384426116943,1.2241299152374268
2474802456.0,-0.7194758653640747,0.4751991331577301,10.091874122619627,0.1619587987661361,-0.6194161772727966,1.1434451341629028
2474810789.0,-0.7858110666275024,0.5306406617164612,10.292254447937012,0.2436169683933258,-0.1119982451200485,1.1057407855987549
2474819122.0,-0.7387170195579529,0.4081197679042816,10.341472625732422,0.0853722393512725,0.4356980621814728,1.2073780298233032
2474827455.0,-0.7492674589157104,0.3049400150775909,10.199216842651367,0.0438771806657314,0.6538033485412598,1.1778961420059204
2474835788.0,-0.8150664567947388,0.4197502732276916,10.066753387451172,0.2661319077014923,0.6497306823730469,1.1731319427490234
2474844121.0,-0.8814948797225952,0.6570744514465332,10.124749183654783,0.5007070302963257,0.3047069311141968,1.0931386947631836
2474852454.0,-0.8141079545021057,0.6173619031906128,10.164196968078612,0.5600552558898926,0.1027643010020256,1.0703164339065552
2474860787.0,-0.6960359811782837,0.4146288335323334,10.192501068115234,0.2906959354877472,-0.3308206498622894,1.1267701387405396
2474869120.0,-0.7114861607551575,0.3935565650463104,10.113347053527832,-0.0288800504058599,-0.4319456815719604,1.2001806497573853
2474877453.0,-0.7665414214134216,0.5306906700134277,10.128633499145508,0.0669812262058258,-0.1661211103200912,1.0687538385391235
2474885786.0,-0.7993230223655701,0.651559591293335,10.23421573638916,0.4682794213294983,0.0609618797898292,0.983023166656494
2474894119.0,-0.7445318102836609,0.5643022060394287,10.29412078857422,0.4592888057231903,0.276121437549591,1.0200611352920532
2474902452.0,-0.7242611050605774,0.4831959903240204,10.267040252685549,0.2666698396205902,0.374889999628067,0.9690377712249756
2474910785.0,-0.7788301706314087,0.5363559126853943,10.054972648620604,0.1300690770149231,0.5081607699394226,1.0430116653442385
2474919118.0,-0.79542475938797,0.6592274904251099,10.040081024169922,0.1589875519275665,0.4403599202632904,0.9352524876594543
2474927451.0,-0.6993546485900879,0.5609902739524841,10.136887550354004,0.2159536331892013,0.0021772100590169,1.0593279600143433
2474935784.0,-0.5891010165214539,0.4625958204269409,10.111666679382324,0.1821428388357162,-0.3847898840904236,0.9579212069511414
2474944117.0,-0.6296290159225464,0.5443671345710754,10.086431503295898,0.091494046151638,-0.5153199434280396,1.000543236732483
2474952450.0,-0.6822526454925537,0.6835688352584839,10.189002990722656,0.1586801707744598,-0.2710113823413849,0.9972389936447144
2474960783.0,-0.6767447590827942,0.596125066280365,10.29177474975586,0.2022243738174438,0.2485861480236053,0.969780445098877
2474969116.0,-0.6670024991035461,0.4011747241020202,10.235196113586426,0.0357062444090843,0.5954028964042664,0.9600728750228882
2474977449.0,-0.6768377423286438,0.3718262314796448,10.090150833129885,-0.0251659862697124,0.5518843531608582,1.0138370990753174
2474985782.0,-0.7659335732460022,0.6658724546432495,9.988258361816406,0.3392861485481262,0.4334184527397156,1.0826112031936646
2474994115.0,-0.73796546459198,0.7727718353271484,10.161199569702148,0.6856418251991272,0.405217170715332,0.8844594955444336
2475002448.0,-0.6010608673095703,0.5742660164833069,10.240789413452148,0.4921518862247467,0.0413157604634761,0.8651208281517029
2475010781.0,-0.5753103494644165,0.3682499229907989,10.123997688293455,-0.0661743730306625,-0.0911226421594619,1.030307054519653
2475019114.0,-0.6965224146842957,0.4884962439537048,10.049043655395508,-0.226749986410141,0.0203120857477188,1.0808950662612915
2475027447.0,-0.7507981657981873,0.6628110408782959,10.171106338500977,0.0419305004179477,0.2471005022525787,1.0588924884796145
2475035780.0,-0.7149052023887634,0.6487557291984558,10.255788803100586,0.33552086353302,0.5016291737556458,1.0853519439697266
2475044113.0,-0.6998913884162903,0.4515804350376129,10.242777824401855,0.2111893892288208,0.4842371642589569,1.0616077184677124
2475052446.0,-0.7605331540107727,0.4397067129611969,10.152130126953123,-0.0521377809345722,0.4398989081382751,1.0359933376312256
2475060779.0,-0.8213037252426147,0.5977129936218262,10.044401168823242,-0.0469893105328083,0.4986323118209839,1.0972113609313965
2475069112.0,-0.8021913170814514,0.6032350063323975,10.106030464172363,0.0901877284049987,0.288595587015152,1.1531784534454346
2475077445.0,-0.682195246219635,0.4418668746948242,10.145055770874023,0.0450810529291629,-0.1361268460750579,1.0223921537399292
2475085778.0,-0.6802567839622498,0.451344758272171,10.11457061767578,-0.1457321792840957,-0.3661170601844787,1.1903703212738037
2475094111.0,-0.7448183298110962,0.6268891096115112,10.191935539245604,-0.0900468304753303,-0.3939085006713867,1.1378611326217651
2475102444.0,-0.7693241238594055,0.6582406163215637,10.29078769683838,-0.02181052044034,-0.221191719174385,1.1283838748931885
2475110777.0,-0.7430874109268188,0.4317670464515686,10.300902366638184,-0.2210636436939239,0.1286347061395645,1.1896787881851196
2475119110.0,-0.7579439282417297,0.2778594493865967,10.177945137023926,-0.4452906250953674,0.2957419455051422,1.2789698839187622
2475127443.0,-0.8467535376548767,0.4493559002876282,10.079571723937988,-0.2512116134166717,0.1693100929260254,1.2103750705718994
2475135776.0,-0.8584484457969666,0.6948700547218323,10.122309684753418,0.0035859928466379,-0.0572862327098846,1.2454922199249268
2475144109.0,-0.7735155820846558,0.5922124981880188,10.18531894683838,-0.0195052400231361,-0.3324343562126159,1.2525615692138672
2475152442.0,-0.6712871789932251,0.3273355662822723,10.19054126739502,-0.3838164806365967,-0.7325286865234375,1.1601455211639404
2475160775.0,-0.669069766998291,0.3351822197437286,10.099971771240234,-0.6016399264335632,-0.6816844344139099,1.2515627145767212
2475169108.0,-0.7644243240356445,0.5336235165596008,10.154297828674316,-0.3379670083522796,-0.4327909052371979,1.2068402767181396
2475177441.0,-0.7417138814926147,0.5980348587036133,10.251032829284668,0.0846806615591049,0.0359623841941356,1.2533299922943115
2475185774.0,-0.7183099389076233,0.4499209821224212,10.260631561279297,0.0210036728531122,0.0531495362520217,1.2388836145401
2475194107.0,-0.729032039642334,0.3923620581626892,10.13375473022461,-0.2304384410381317,0.0166492518037557,1.33729350566864
2475202440.0,-0.796047031879425,0.5064927935600281,10.077017784118652,-0.3225984871387481,0.0762279704213142,1.1762057542800903
2475210773.0,-0.804487407207489,0.5585368871688843,10.072354316711426,-0.1386370658874511,-0.10774627327919,1.1992071866989136
2475219106.0,-0.6960645914077759,0.4844262897968292,10.12522792816162,-0.0083630485460162,-0.5782797932624817,1.3381900787353516
2475227439.0,-0.6276977062225342,0.4044503569602966,10.170970916748049,-0.0671989470720291,-0.6487957835197449,1.1627583503723145
2475235772.0,-0.6618167757987976,0.55599045753479,10.153374671936035,-0.0810050219297409,-0.6102463603019714,1.2651383876800537
2475244105.0,-0.7430444955825806,0.6758792996406555,10.26118278503418,0.001767382142134,-0.2546182870864868,1.2913416624069214
2475252438.0,-0.7165646553039551,0.5172005891799927,10.25589656829834,-0.0779056921601295,0.3114178776741028,1.1613749265670776
2475260771.0,-0.7162356376647949,0.34516042470932,10.129441261291504,-0.2173496037721634,0.5014498829841614,1.203715443611145
2475269104.0,-0.7656188607215881,0.427704244852066,9.99054718017578,-0.2415806502103805,0.2280947864055633,1.2237200736999512
2475277437.0,-0.8336779475212097,0.6978241205215454,10.007806777954102,0.1340392827987671,0.0235650930553674,1.1206996440887451
2475285770.0,-0.7600467801094055,0.7338316440582275,10.143310546875,0.4132088422775268,-0.2450898140668869,1.071725368499756
2475294103.0,-0.6440920233726501,0.5140962600708008,10.206413269042969,0.0342718437314033,-0.5451093316078186,1.0973906517028809
2475302436.0,-0.6110602021217346,0.4085489213466644,10.106008529663086,-0.3674233853816986,-0.6045856475830078,1.2395241260528564
2475310769.0,-0.6981819868087769,0.5404399633407593,10.08620262145996,-0.3010824918746948,-0.2283893078565597,1.1903446912765503
2475319102.0,-0.7770204544067383,0.6987969875335693,10.225797653198242,0.0557365715503692,0.2088840901851654,1.1478506326675415
2475327435.0,-0.7303195595741272,0.6420105695724487,10.28616714477539,0.244103655219078,0.3728663921356201,1.1627581119537354
2475335768.0,-0.7279447317123413,0.516464114189148,10.19321632385254,0.0160601250827312,0.4109035730361938,1.105715274810791
2475344101.0,-0.8013187050819397,0.5325577855110168,10.109506607055664,-0.237892210483551,0.3369040489196777,1.069496750831604
2475352434.0,-0.8470324873924255,0.6143147349357605,10.082289695739746,-0.1039041429758071,0.1430811136960983,1.1453404426574707
2475360767.0,-0.756234347820282,0.586311399936676,10.130743026733398,-0.0772909522056579,-0.152468740940094,1.146800518035889
2475369100.0,-0.6664732694625854,0.435744047164917,10.165441513061523,-0.1582063138484954,-0.4999002814292907,1.142932653427124
2475377433.0,-0.6671313643455505,0.484247475862503,10.160913467407228,-0.1837949305772781,-0.5478243827819824,1.0817402601242063
2475385766.0,-0.7775140404701233,0.6383841037750244,10.238408088684082,-0.1552862823009491,-0.2395827323198318,1.2120654582977295
2475394099.0,-0.7865052819252014,0.6199511885643005,10.31765365600586,-0.0137420361861586,0.1834491640329361,1.0322279930114746
2475402432.0,-0.7564131617546082,0.4062597155570984,10.256632804870604,-0.0598476640880107,0.4592120349407196,1.0596609115600586
2475410765.0,-0.7587807178497314,0.335797369480133,10.08846950531006,-0.1461163908243179,0.4212516844272613,1.187962532043457
2475419098.0,-0.8333134651184082,0.5397964119911194,10.067004203796388,0.0091442810371518,0.1812975406646728,1.1035380363464355
2475427431.0,-0.8193653225898743,0.7181525826454163,10.101122856140137,0.4535000622272491,-0.0123076401650905,1.069599151611328
2475435764.0,-0.7293825745582581,0.585996687412262,10.228730201721191,0.463566392660141,-0.2992126643657684,0.94339781999588
2475444097.0,-0.634249746799469,0.2884455323219299,10.13370418548584,0.002791951643303,-0.4402958750724792,1.0328171253204346
2475452430.0,-0.7106277942657471,0.3696660697460174,10.088634490966797,-0.5309702754020691,-0.2976501882076263,1.119316339492798
2475460763.0,-0.821496844291687,0.6127840280532837,10.126086235046388,-0.3394782543182373,-0.1734467893838882,1.1923682689666748
2475469096.0,-0.7594102025032043,0.5940793752670288,10.175047874450684,0.1248181760311126,-0.0747295320034027,1.0346871614456177
2475477429.0,-0.7670780420303345,0.4609792828559875,10.198938369750977,0.3207670450210571,0.1233581528067588,1.0270795822143557
2475485762.0,-0.7440316677093506,0.4237345159053802,10.14466953277588,0.0089137535542249,-0.0707849413156509,1.093343734741211
2475494095.0,-0.8107604384422302,0.5292030572891235,10.09829044342041,-0.0656108632683754,0.0669043883681297,1.08840012550354
2475502428.0,-0.782914400100708,0.5914328098297119,10.106101989746094,-0.120655857026577,0.0232321098446846,1.0878877639770508
2475510761.0,-0.6671528220176697,0.4652208983898163,10.07854175567627,-0.0349762365221977,-0.3405027985572815,1.2777661085128784
2475519094.0,-0.6226835250854492,0.3824622333049774,10.091403007507324,-0.0342590399086475,-0.7468982934951782,1.1464163064956665
2475527427.0,-0.6973163485527039,0.5777351260185242,10.146357536315918,-0.0306218154728412,-0.6814795136451721,1.1459039449691772
2475535760.0,-0.749045729637146,0.6673316359519958,10.224888801574709,0.0657261312007904,-0.3319989144802093,1.1546897888183594
2475544093.0,-0.7005351185798645,0.476744145154953,10.276253700256348,-0.1082073301076889,0.213904470205307,1.102436661720276
2475552426.0,-0.6841336488723755,0.2876229584217071,10.195225715637209,-0.3783606588840484,0.3832657635211944,1.1752322912216189
2475560759.0,-0.7423792481422424,0.4515804350376129,10.04155445098877,-0.3717778325080871,0.2702045738697052,1.139116287231445
2475569092.0,-0.8128132820129395,0.7412777543067932,10.053613662719728,0.1887512952089309,-0.0270358230918645,1.161554217338562
2475577425.0,-0.7325441241264343,0.7607263326644897,10.18539810180664,0.29804727435112,-0.4800748527050018,1.1127592325210571
2475585758.0,-0.6399791240692139,0.5176444053649902,10.242470741271973,-0.089688241481781,-0.6809672117233276,1.2518445253372192
2475594091.0,-0.6307305097579956,0.4031985998153686,10.18781566619873,-0.6724888682365417,-0.7116530537605286,1.2362710237503052
2475602424.0,-0.7152485251426697,0.5411268472671509,10.147595405578612,-0.4924976825714111,-0.2358943223953247,1.3536866903305054
2475610757.0,-0.7894879579544067,0.6875240206718445,10.252999305725098,-0.0925826504826545,0.1960513442754745,1.2736421823501587
2475619090.0,-0.761684775352478,0.5961465239524841,10.303205490112305,0.0152916982769966,0.2888517081737518,1.150591254234314
2475627423.0,-0.721872091293335,0.473375141620636,10.16538429260254,-0.1961153894662857,0.359367698431015,1.2728480100631714
2475635756.0,-0.8141864538192749,0.5473570227622986,10.056954383850098,-0.336481362581253,0.0964375808835029,1.2548669576644895
2475644089.0,-0.8134141564369202,0.6484552621841431,10.057662963867188,-0.274571806192398,-0.0378450341522693,1.2438784837722778
2475652422.0,-0.7558552026748657,0.5525213479995728,10.131165504455566,-0.129876971244812,-0.3855326473712921,1.228765845298767
2475660755.0,-0.6335201263427734,0.3942790031433105,10.172980308532717,-0.2262120991945266,-0.717160165309906,1.268032789230347
2475669088.0,-0.6852136850357056,0.506500244140625,10.097503662109377,-0.2403255403041839,-0.6565312743186951,1.1673942804336548
2475677421.0,-0.8162323832511902,0.690464198589325,10.184188842773438,-0.1506757289171219,-0.3311280012130737,1.2780221700668335
2475685754.0,-0.8385063409805298,0.6938400864601135,10.257899284362791,-0.2109460532665252,0.0968474298715591,1.161426305770874
2475694087.0,-0.784881591796875,0.436044692993164,10.24378776550293,-0.4241844713687897,0.525091826915741,1.1615285873413086
2475702420.0,-0.7859185934066772,0.3500672876834869,10.034573554992676,-0.587142288684845,0.0882922708988189,1.3212335109710691
2475710753.0,-0.8406307101249695,0.553658664226532,9.95184326171875,-0.2091530263423919,-0.1528529375791549,1.3273040056228638
2475719086.0,-0.8283420205116272,0.7008209228515625,10.068900108337402,0.0536362044513225,-0.5211088061332703,1.3392914533615112
2475727419.0,-0.7008283734321594,0.6022478938102722,10.205283164978027,0.0023308952804654,-0.8112156391143799,1.37059223651886
2475735752.0,-0.6422322988510132,0.3735071420669555,10.195826530456545,-0.4292818009853363,-0.8044278621673584,1.2715930938720703
2475744085.0,-0.6919946670532227,0.4429540932178497,10.083298683166504,-0.663395881652832,-0.654533326625824,1.2584786415100098
2475752418.0,-0.783980131149292,0.6578328013420105,10.168731689453123,-0.3647339344024658,-0.1670688539743423,1.3142406940460205
2475760751.0,-0.7419858574867249,0.6391494274139404,10.249616622924805,-0.03892083466053,0.1192855089902877,1.1947760581970217
2475769084.0,-0.715792179107666,0.4398711621761322,10.240696907043455,-0.0967577844858169,0.1312217265367508,1.2670081853866575
2475777417.0,-0.7800888419151306,0.4331476092338562,10.115700721740724,-0.5680596828460693,-0.0891247242689132,1.2624231576919556
2475785750.0,-0.8346652388572693,0.5989862084388733,10.049615859985352,-0.5790994763374329,-0.3500313460826874,1.3242303133010864
2475794083.0,-0.7990726828575134,0.6294001340866089,10.13298225402832,-0.3149910271167755,-0.5486952662467957,1.2492574453353882
2475802416.0,-0.6749064922332764,0.4791546463966369,10.20512580871582,-0.1347693055868148,-0.7975120544433594,1.226640224456787
2475810749.0,-0.6145365238189697,0.4310660660266876,10.129226684570312,-0.4543837308883667,-0.891849160194397,1.2634220123291016
2475819082.0,-0.6741054654121399,0.5806744694709778,10.131351470947266,-0.4069461524486542,-0.8518911004066467,1.3169046640396118
2475827415.0,-0.7148266434669495,0.6517596244812012,10.27902889251709,-0.4698803126811981,-0.3274908065795898,1.3227192163467407
2475835748.0,-0.708267331123352,0.4567233324050903,10.343934059143066,-0.4455211758613586,-0.0009861480211839,1.252049207687378
2475844081.0,-0.7054348587989807,0.3087953925132751,10.19288730621338,-0.7153415083885193,0.0259216036647558,1.3631383180618286
2475852414.0,-0.7891800999641418,0.4272180199623108,9.985748291015623,-0.6420847773551941,-0.242246612906456,1.360167145729065
2475860747.0,-0.8151451349258423,0.6453008651733398,10.016225814819336,-0.1706804484128952,-0.4548447728157043,1.4053763151168823
2475869080.0,-0.7234027981758118,0.6154377460479736,10.166872024536133,-0.072552315890789,-0.7586808204650879,1.314394474029541
2475877413.0,-0.6276657581329346,0.3803848624229431,10.190185546875,-0.453640878200531,-1.0812407732009888,1.511777639389038
2475885746.0,-0.5935161709785461,0.3056830465793609,10.037483215332031,-0.9425141215324402,-1.1916126012802124,1.587006688117981
2475894079.0,-0.737948477268219,0.4543567597866058,10.019402503967283,-0.8252010345458984,-0.9297327399253844,1.5779906511306765
2475902412.0,-0.757307231426239,0.588485836982727,10.173595428466797,-0.3814087510108948,-0.679635226726532,1.4421837329864502
2475910745.0,-0.7067294120788574,0.4988890290260315,10.293928146362305,-0.0239108894020319,-0.4466994404792785,1.4049663543701172
2475919078.0,-0.7150411009788513,0.5056559443473816,10.248407363891602,-0.3621724545955658,-0.3168352842330932,1.5327813625335691
2475927411.0,-0.7597928643226624,0.5901191830635071,10.119094848632812,-0.7525590062141418,-0.310329258441925,1.5699987411499023
2475935744.0,-0.8347236514091492,0.6572755575180054,10.146777153015137,-0.7328360080718994,-0.4842499196529388,1.574635028839111
2475944077.0,-0.7328284382820129,0.5595054030418396,10.125534057617188,-0.7496902346611023,-0.7055312991142273,1.5999675989151
2475952410.0,-0.6489099264144897,0.4378227293491363,10.118337631225586,-0.8364201784133911,-1.2069555521011353,1.5270695686340332
2475960743.0,-0.6636104583740234,0.5333932638168335,10.10456085205078,-0.8739960789680481,-1.302573561668396,1.6715593338012695
2475969076.0,-0.7625678181648254,0.6635672450065613,10.1768217086792,-0.7133692502975464,-1.1020909547805786,1.6508886814117432
2475977409.0,-0.7606597542762756,0.5598570704460144,10.295087814331056,-0.6711313724517822,-0.5398584008216858,1.5670788288116455
2475985742.0,-0.7095506191253662,0.3756835460662842,10.277303695678713,-0.935265302658081,-0.3016460239887237,1.6532707214355469
2475994075.0,-0.7349048852920532,0.3603254556655884,10.069961547851562,-1.1387706995010376,-0.3970078527927398,1.6734037399291992
2476002408.0,-0.8574456572532654,0.6063205599784851,9.963580131530762,-0.8348063826560974,-0.5927773714065552,1.7761422395706177
2476010741.0,-0.8412562608718872,0.7779773473739624,10.123357772827148,-0.3657584190368652,-0.9436667561531068,1.5864688158035278
2476019074.0,-0.6537959575653076,0.6197115778923035,10.355734825134276,-0.4544605612754822,-1.162873387336731,1.491619348526001
2476027407.0,-0.6112346649169922,0.4534614086151123,10.301446914672852,-1.111491322517395,-1.4134577512741089,1.672122836112976
2476035740.0,-0.7077245712280273,0.5432981252670288,10.072001457214355,-1.2620006799697876,-1.2546236515045166,1.7209692001342771
2476044073.0,-0.7961966395378113,0.7050588726997375,10.138323783874512,-0.9603160619735718,-0.8734070062637329,1.58567476272583
2476052406.0,-0.6839405298233032,0.5966830253601074,10.28438663482666,-0.4687276482582092,-0.3776178061962127,1.4359081983566284
2476060739.0,-0.6573025584220886,0.4033303260803222,10.356494903564451,-0.5772296190261841,-0.0601038038730621,1.6505557298660278
2476069072.0,-0.7866008281707764,0.4205204546451568,10.115757942199709,-0.7961800694465637,-0.0901492908596992,1.4989962577819824
2476077405.0,-0.8502370119094849,0.5742517113685608,10.010411262512209,-0.7418267130851746,0.0105530647560954,1.5042215585708618
2476085738.0,-0.7811682820320129,0.6116569638252258,10.086397171020508,-0.6456452012062073,-0.2936799824237823,1.549712300300598
2476094071.0,-0.6616126894950867,0.4491947889328003,10.11361026763916,-0.5527167320251465,-0.7686191201210022,1.5021212100982666
2476102404.0,-0.6252360343933105,0.4830045700073242,10.108766555786133,-0.7520723342895508,-1.2597720623016355,1.544896960258484
2476110737.0,-0.6859123110771179,0.6631724238395691,10.141246795654297,-0.757067084312439,-1.225397706031799,1.4525575637817385
2476119070.0,-0.7181662321090698,0.682486355304718,10.267355918884276,-0.5725933909416199,-0.7516624927520752,1.4330395460128784
2476127403.0,-0.6499147415161133,0.3883205354213714,10.32763957977295,-0.693492591381073,-0.2085638791322708,1.4247149229049685
2476135736.0,-0.6840230822563171,0.3382451236248016,10.235074043273926,-0.8288638591766357,0.1631370484828949,1.6110841035842896
2476144069.0,-0.829193115234375,0.5262489318847656,10.09535789489746,-0.5726701617240906,0.272304892539978,1.5499684810638428
2476152402.0,-0.838849663734436,0.7299476265907288,10.093448638916016,-0.0993960425257682,0.2519672214984894,1.2529971599578855
2476160735.0,-0.7221295833587646,0.5944441556930542,10.21794319152832,-0.209024965763092,-0.0565690360963344,1.3101680278778076
2476169068.0,-0.6602577567100525,0.3613041043281555,10.137351989746094,-0.6746661067008972,-0.5039471983909607,1.3946694135665894
2476177401.0,-0.7099156379699707,0.3895638287067413,10.027689933776855,-0.8383922576904297,-0.7542239427566528,1.30414879322052
2476185734.0,-0.8000311851501465,0.5811470150947571,10.040631294250488,-0.6153948903083801,-0.6377816796302795,1.379941463470459
2476194067.0,-0.7266215682029724,0.5985355973243713,10.21126937866211,-0.1501634418964386,-0.4847622215747833,1.184453368186951
2476202400.0,-0.6991188526153564,0.4466163516044616,10.3762788772583,-0.3236742913722992,-0.0998827144503593,1.2777405977249146
2476210733.0,-0.7475221753120422,0.4377253651618957,10.183252334594728,-0.66124427318573,0.0186983905732631,1.3005114793777466
2476219066.0,-0.8371900320053101,0.535697877407074,10.033987045288086,-0.6868329644203186,0.1523278504610061,1.350536227226257
2476227399.0,-0.7960687875747681,0.501185417175293,10.04397201538086,-0.398647129535675,0.0440308637917041,1.209913969039917
2476235732.0,-0.6833897829055786,0.3487583100795746,10.113326072692873,-0.3607893288135528,-0.292271226644516,1.2118093967437744
2476244065.0,-0.6473394632339478,0.3654745221138,10.10794734954834,-0.4642195701599121,-0.8951279520988464,1.3232313394546509
2476252398.0,-0.7182384133338928,0.5429365634918213,10.099356651306152,-0.3845336735248565,-0.8716908693313599,1.201435685157776
2476260731.0,-0.7467496395111084,0.6230984330177307,10.184060096740724,-0.2718310356140136,-0.4307673871517181,1.2419829368591309
2476269064.0,-0.6930104494094849,0.4237342774868011,10.341129302978516,-0.3689602315425873,-0.2174520343542099,1.2883447408676147
2476277397.0,-0.6836684346199036,0.2921292781829834,10.216312408447266,-0.7019965052604675,0.0518175959587097,1.3552749156951904
2476285730.0,-0.7662482261657715,0.3823051154613495,9.950949668884276,-0.4021306931972503,0.1824758201837539,1.289446234703064
2476294063.0,-0.7403404712677002,0.5527858734130859,9.964618682861328,0.1300946921110153,-0.047552827745676,1.145289182662964
2476302396.0,-0.6798920035362244,0.5875416994094849,10.20302963256836,0.2175416946411132,-0.1181712672114372,1.211194634437561
2476310729.0,-0.6161029934883118,0.4137561917304992,10.264816284179688,-0.3023119568824768,-0.4751311838626861,1.2744617462158203
2476319062.0,-0.6534050703048706,0.3555034399032593,10.029687881469728,-0.771718442440033,-0.6593744158744812,1.280045747756958
2476327395.0,-0.7509483695030212,0.5209344029426575,10.050395011901855,-0.3746722340583801,-0.5799447298049927,1.3453108072280884
2476335728.0,-0.7166647911071777,0.6085710525512695,10.292590141296388,-0.0175329446792602,-0.1647635847330093,1.3776872158050537
2476344061.0,-0.6673244833946228,0.5307194590568542,10.344720840454102,-0.1020599156618118,0.0084526967257261,1.205431580543518
2476352394.0,-0.670772135257721,0.4197645783424377,10.23643398284912,-0.4899106323719024,0.0205682292580604,1.3036365509033203
2476360727.0,-0.7687519192695618,0.5219643712043762,10.018743515014648,-0.5375019311904907,-0.0149202914908528,1.3635737895965576
2476369060.0,-0.7738088369369507,0.604415237903595,10.109127044677734,-0.2800019979476928,-0.0627420619130134,1.4138033390045166
2476377393.0,-0.6604434251785278,0.542400062084198,10.24094009399414,-0.186407595872879,-0.240786612033844,1.3341429233551023
2476385726.0,-0.610888659954071,0.4398708939552307,10.295208930969238,-0.342705637216568,-0.6284579634666443,1.2300723791122437
2476394059.0,-0.6642916798591614,0.5311629772186279,10.158560752868652,-0.4263361096382141,-0.6369876265525818,1.2474645376205444
2476402392.0,-0.7464134693145752,0.6224117875099182,10.152502059936523,-0.2509810626506805,-0.3668854534626007,1.3151885271072388
2476410725.0,-0.7205845713615417,0.525998592376709,10.302075386047363,-0.2465754598379135,0.1064783781766891,1.2484121322631836
2476419058.0,-0.7185030579566956,0.3245459496974945,10.277419090270996,-0.4765656292438507,0.3044507801532745,1.3287384510040283
2476427391.0,-0.7750033736228943,0.374830424785614,10.071467399597168,-0.3797438144683838,0.2886468470096588,1.3066078424453735
2476435724.0,-0.8303806781768799,0.6059530973434448,10.035117149353027,-0.0354116819798946,0.1478709876537323,1.1977217197418213
2476444057.0,-0.7957037091255188,0.6643417477607727,10.161027908325195,0.1621124744415283,-0.056005522608757,1.1026159524917605
2476452390.0,-0.6684832572937012,0.4461510777473449,10.25007438659668,-0.2367395311594009,-0.6273565888404846,1.3082982301712036
2476460723.0,-0.6389992237091064,0.3087095618247986,10.094900131225586,-0.7509196996688843,-0.8358308672904968,1.2048166990280151
2476469056.0,-0.694376528263092,0.4327255487442016,9.93901824951172,-0.459276020526886,-0.5721323490142822,1.2473875284194946
2476477389.0,-0.7683154940605164,0.5190889835357666,10.124062538146973,0.172896072268486,-0.2615085244178772,1.2275878190994265
2476485722.0,-0.6955209970474243,0.4748128652572632,10.343039512634276,0.1843712478876114,0.1287627518177032,1.2916232347488403
2476494055.0,-0.727315366268158,0.4492843747138977,10.295208930969238,-0.1686569154262542,0.3081136047840118,1.2819411754608154
2476502388.0,-0.8076418042182922,0.4823448061943054,10.04089641571045,-0.384584903717041,0.2532223165035248,1.339368462562561
2476510721.0,-0.8237214088439941,0.5209415555000305,10.000590324401855,-0.4307417869567871,-0.0201712101697921,1.3478723764419556
2476519054.0,-0.7151484489440918,0.4761786162853241,10.160992622375488,-0.1636365503072738,-0.4645269811153412,1.2074294090270996
2476527387.0,-0.6183274984359741,0.4224540591239929,10.183395385742188,-0.2300798594951629,-0.8394426107406616,1.2413170337677002
2476535720.0,-0.6252228617668152,0.568808376789093,10.155113220214844,-0.2769539058208465,-1.0317286252975464,1.201871037483215
2476544053.0,-0.6796345114707947,0.6775959730148315,10.235382080078123,-0.3369936645030975,-0.57082599401474,1.2664445638656616
2476552386.0,-0.6906928420066833,0.575996994972229,10.371564865112305,-0.4689837992191314,-0.1553119271993637,1.332478165626526
2476560719.0,-0.6819449067115784,0.3925122618675232,10.336623191833496,-0.72054123878479,0.3182824850082397,1.3685942888259888
2476569052.0,-0.748888373374939,0.3911103010177612,10.098169326782228,-0.7359610795974731,0.2671820819377899,1.255225658416748
2476577385.0,-0.8012829422950745,0.5427005290985107,10.02377986907959,-0.3464965522289276,0.2502510249614715,1.26444673538208
2476585718.0,-0.8011112809181213,0.6595207452774048,10.142817497253418,-0.1003181412816047,-0.1634828299283981,1.2893437147140503
2476594051.0,-0.7125876545906067,0.5499038100242615,10.33059310913086,-0.3214202225208282,-0.6056613922119141,1.249026894569397
2476602384.0,-0.6716238260269165,0.4611679315567016,10.262993812561035,-0.7997404336929321,-0.9713302850723268,1.2719517946243286
2476610717.0,-0.7064147591590881,0.5189173221588135,10.169747352600098,-0.7637012004852295,-0.8519678115844727,1.1912925243377686
2476619050.0,-0.7197118997573853,0.6434411406517029,10.318025588989258,-0.471058577299118,-0.3578692674636841,1.1715694665908811
2476627383.0,-0.6811366081237793,0.6495639681816101,10.5282621383667,-0.2918613851070404,0.1028923690319061,1.171108365058899
2476635716.0,-0.7178024649620056,0.5764691233634949,10.451842308044434,-0.6058662533760071,0.1782238483428955,1.2241299152374268
2476644049.0,-0.8045875430107117,0.6535624265670776,10.285609245300291,-0.9246353507041932,0.298662006855011,1.1591209173202517
2476652382.0,-0.9047563076019288,0.7833937406539917,10.183760643005373,-0.6904956698417664,0.3088308274745941,1.170801043510437
2476660715.0,-0.8319256901741028,0.7318717241287231,10.371479034423828,-0.5816095471382141,-0.0453243851661682,1.1025903224945068
2476669048.0,-0.7581727504730225,0.6406729817390442,10.396900177001951,-0.9044259190559388,-0.4131704568862915,1.14349627494812
2476677381.0,-0.7401203513145447,0.5800832509994507,10.219888687133787,-1.1680474281311035,-0.9513766169548036,1.1591721773147583
2476685714.0,-0.7923374772071838,0.6486024260520935,10.182525634765623,-1.225807547569275,-0.711729884147644,1.2706964015960691
2476694047.0,-0.7798386812210083,0.6678680777549744,10.35831069946289,-1.0946370363235474,-0.349877655506134,1.1700838804244995
2476702380.0,-0.7788438200950623,0.4819449484348297,10.394715309143066,-1.287666082382202,-0.0644069984555244,1.1950067281723022
2476710713.0,-0.8163340091705322,0.3905738294124603,10.124557495117188,-1.3216304779052734,0.1239472851157188,1.2501283884048462
2476719046.0,-0.8775036334991455,0.5454042553901672,9.96994686126709,-0.8174911141395569,0.2637753486633301,1.152230739593506
2476727379.0,-0.8784481287002563,0.6138855218887329,10.191556930541992,-0.490884006023407,-0.0356165915727615,1.1314318180084229
2476735712.0,-0.7082315683364868,0.5031667351722717,10.156786918640137,-0.6911616921424866,-0.3470856845378876,1.165319561958313
2476744045.0,-0.720861554145813,0.3996111154556274,10.056815147399902,-1.0651551485061646,-0.7662113308906555,1.219672918319702
2476752378.0,-0.7461693286895752,0.4199416935443878,10.009292602539062,-1.0385675430297852,-0.9844958782196044,1.1733368635177612
2476760711.0,-0.8053457140922546,0.4901342689990997,10.035961151123049,-0.6660340428352356,-0.65056312084198,1.2292526960372925
2476769044.0,-0.7514132857322693,0.4431257843971252,10.28928565979004,-0.3997997641563415,-0.2075137197971344,1.105279803276062
2476777377.0,-0.7246187329292297,0.4286627173423767,10.234423637390137,-0.5818913578987122,-0.0442229732871055,1.2554559707641602
2476785710.0,-0.7952459454536438,0.4636758863925934,9.992363929748535,-0.8025580048561096,-0.075549192726612,1.420744776725769
2476794043.0,-0.8098732233047485,0.4738188087940216,9.909491539001465,-0.6863973736763,-0.2059768587350845,1.482039451599121
2476802376.0,-0.7870418429374695,0.4109090864658355,10.025854110717772,-0.6371924877166748,-0.5520508289337158,1.2746669054031372
2476810709.0,-0.6966145038604736,0.3227200806140899,10.063450813293455,-0.6738978028297424,-0.9607515931129456,1.4044798612594604
2476819042.0,-0.6469564437866211,0.4124820828437805,9.997430801391602,-0.6590927839279175,-1.2137945890426636,1.3455158472061155
2476827375.0,-0.676045298576355,0.5467620491981506,10.030036926269531,-0.5648834705352783,-1.0301148891448977,1.3017410039901731
2476835708.0,-0.6810078620910645,0.469011902809143,10.183917045593262,-0.6037659645080566,-0.695362389087677,1.2708245515823364
2476844041.0,-0.6523106098175049,0.282958447933197,10.203444480895996,-0.9382622241973876,-0.3135822713375091,1.4338847398757937
2476852374.0,-0.6939622163772583,0.173345535993576,9.981142044067385,-1.0458675622940063,-0.2026470005512237,1.370079755783081
2476860707.0,-0.7305768728256226,0.2979661524295807,9.850730895996094,-0.6913154721260071,-0.3434228897094726,1.3289178609848022
2476869040.0,-0.7661052346229553,0.441988468170166,9.954489707946776,-0.2350746244192123,-0.6507680416107178,1.2680326700210571
2476877373.0,-0.6396258473396301,0.3752015233039856,10.141730308532717,-0.3345091044902801,-1.056113362312317,1.2870384454727173
2476885706.0,-0.5667386054992676,0.244124099612236,10.137880325317385,-0.8463839292526245,-1.2771129608154297,1.3505873680114746
2476894039.0,-0.5638605952262878,0.1793205887079239,9.957395553588867,-0.9492764472961426,-1.2736294269561768,1.1615288257598877
2476902372.0,-0.5919479727745056,0.2392336577177047,10.010568618774414,-0.5302530527114868,-0.9021461009979248,1.029845952987671
2476910705.0,-0.545854926109314,0.2921721637248993,10.239816665649414,-0.1267264038324356,-0.356921523809433,1.121416687965393
2476919038.0,-0.5729284286499023,0.2162661999464035,10.296345710754396,-0.088919810950756,-0.0399710126221179,1.2764084339141846
2476927371.0,-0.6084637641906738,0.1851584911346435,10.108834266662598,-0.2676047086715698,0.007402513641864,1.2451847791671753
2476935704.0,-0.6788262724876404,0.2897330522537231,9.936285972595217,-0.2464985996484756,-0.0033682722132653,1.1027953624725342
2476944037.0,-0.6719022989273071,0.3380791246891022,10.087547302246094,0.0426733195781707,-0.2338451296091079,1.2879605293273926
2476952370.0,-0.5491094589233398,0.216194674372673,10.129277229309082,0.0057632029056549,-0.6649070978164673,1.194571018218994
2476960703.0,-0.4934174120426178,0.1667756885290146,10.04091739654541,-0.053725853562355,-0.9575241208076476,1.1954163312911987
2476969036.0,-0.4931098520755768,0.3089813590049743,10.011784553527832,0.0142927430570125,-0.7057617902755737,1.273539662361145
2476977369.0,-0.5616340637207031,0.460099458694458,10.251519203186035,0.345587283372879,-0.4796905517578125,1.2896766662597656
2476985702.0,-0.5751956701278687,0.3751881122589111,10.38471221923828,0.2344470769166946,0.1547355949878692,1.360346436500549
2476994035.0,-0.6241642832756042,0.2515724301338196,10.223480224609377,-0.0591304637491703,0.4558309316635132,1.3805559873580933
2477002368.0,-0.65582275390625,0.3273782134056091,9.998501777648926,-0.1733187139034271,0.6096444129943848,1.3921847343444824
2477010701.0,-0.7320791482925415,0.551298201084137,10.009316444396973,0.2813723683357239,0.3590603172779083,1.334117412567139
2477019034.0,-0.6993191242218018,0.6568098068237305,10.152938842773438,0.5773960947990417,-0.1414033770561218,1.2503844499588013
2477027367.0,-0.61614590883255,0.5156126618385315,10.229273796081545,0.1910565793514251,-0.4962117671966553,1.4075276851654053
2477035700.0,-0.615645170211792,0.4418454170227051,10.094199180603027,-0.3433459997177124,-0.6491286754608154,1.4632899761199951
2477044033.0,-0.6643202900886536,0.554932177066803,10.051353454589844,-0.1614080965518951,-0.4857099056243896,1.3989213705062866
2477052366.0,-0.708109974861145,0.7092902064323425,10.261354446411133,0.2328333854675293,-0.0010373763507232,1.3750488758087158
2477060699.0,-0.713417649269104,0.6458443999290466,10.362587928771973,0.3676923513412475,0.3954325914382934,1.3082727193832395
2477069032.0,-0.7472217679023743,0.5539519190788269,10.26026725769043,-0.0952721387147903,0.6667129397392273,1.2304822206497192
2477077365.0,-0.8404304385185242,0.5995298624038696,10.007105827331545,-0.2649152278900146,0.4073687791824341,1.3596035242080688
2477085698.0,-0.886630654335022,0.6817803978919983,10.014137268066406,-0.084104336798191,-0.1399177461862564,1.2069170475006104
2477094031.0,-0.8113970756530762,0.6510159969329834,10.156207084655762,0.0198510326445102,-0.522107720375061,1.3028936386108398
2477102364.0,-0.7077523469924927,0.5436732769012451,10.161843299865724,-0.0085679609328508,-0.7546594142913818,1.3041744232177734
2477110697.0,-0.6901849508285522,0.57725590467453,10.128447532653809,-0.1304404884576797,-0.9287593364715576,1.1906007528305054
2477119030.0,-0.7427655458450317,0.7361777424812317,10.135485649108888,-0.1338215619325637,-0.5592483878135681,1.1485933065414429
2477127363.0,-0.7424436211585999,0.6616880297660828,10.366164207458496,-0.1112810373306274,0.1410319805145263,1.2528434991836548
2477135696.0,-0.7552472352981567,0.4557362496852875,10.31577968597412,-0.3258770704269409,0.3246091604232788,1.2834267616271973
2477144029.0,-0.7956965565681458,0.3962460458278656,10.107625007629396,-0.4204448461532593,0.2313989996910095,1.1988742351531982
2477152362.0,-0.8512741923332214,0.5818337202072144,9.99066162109375,-0.1552606672048568,0.0746911093592643,1.2984623908996582
2477160695.0,-0.836489200592041,0.7220151424407959,10.147516250610352,0.103481501340866,-0.2815388739109039,1.233888864517212
2477169028.0,-0.7127450108528137,0.6140500903129578,10.294421195983888,-0.1576940417289734,-0.7857550382614136,1.1987974643707275
2477177361.0,-0.6491055488586426,0.3923774361610412,10.202842712402344,-0.6709264516830444,-0.991616666316986,1.2926478385925293
2477185694.0,-0.6529472470283508,0.4119107723236084,10.041568756103516,-0.733834981918335,-0.803966760635376,1.1921120882034302
2477194027.0,-0.6780108213424683,0.5393604040145874,10.155348777770996,-0.2990077435970306,-0.5419843792915344,1.2831707000732422
2477202360.0,-0.6573606133460999,0.5109919309616089,10.380706787109377,-0.0607441551983356,0.0434673503041267,1.305301308631897
2477210693.0,-0.6532262563705444,0.4008595943450928,10.298877716064451,-0.3164510726928711,0.0796858817338943,1.3024839162826538
2477219026.0,-0.7199336290359497,0.3892791867256164,10.073412895202637,-0.6190575361251831,0.1885975897312164,1.3311972618103027
2477227359.0,-0.7936079502105713,0.4892186820507049,10.028607368469238,-0.4975949227809906,0.0265107322484254,1.3722825050354004
2477235692.0,-0.7639379501342773,0.4624668955802917,10.078147888183594,-0.288301020860672,-0.2826659083366394,1.3477699756622314
2477244025.0,-0.6317319273948669,0.3151542544364929,10.166064262390137,-0.242118552327156,-0.6835030913352966,1.270491600036621
2477252358.0,-0.555976152420044,0.260277658700943,10.109541893005373,-0.4399116635322571,-1.0645660161972046,1.2205438613891602
2477260691.0,-0.5797379016876221,0.4184484779834747,10.140771865844728,-0.2913747131824493,-0.7600895762443542,1.2463629245758057
2477269024.0,-0.6302870512008667,0.5202548503875732,10.28844165802002,-0.0855899602174758,-0.3287459015846252,1.1882187128067017
2477277357.0,-0.6124192476272583,0.3192814588546753,10.341480255126951,-0.2389936000108719,0.4122354984283447,1.2221319675445557
2477285690.0,-0.6554223299026489,0.1843718737363815,10.16256618499756,-0.4641683995723724,0.4573421478271484,1.3453620672225952
2477294023.0,-0.7518925666809082,0.3210696578025818,9.99998950958252,-0.2326156795024871,0.3832145631313324,1.27748441696167
2477302356.0,-0.7789517641067505,0.5703104734420776,10.042104721069336,0.187931627035141,0.0963607504963874,1.3322731256484983
2477310689.0,-0.6994192600250244,0.5436732769012451,10.19093418121338,0.1964867711067199,-0.3859424591064453,1.278636813163757
2477319022.0,-0.615795373916626,0.3300321698188782,10.201756477355955,-0.2730605602264404,-0.6854242086410522,1.1048957109451294
2477327355.0,-0.613320529460907,0.2562648952007293,10.060810089111328,-0.6573765873908997,-0.8287613987922668,1.2851686477661133
2477335688.0,-0.6738551259040833,0.4313448667526245,10.058271408081056,-0.3141970336437225,-0.5108375549316406,1.220134139060974
2477344021.0,-0.6924881935119629,0.5435731410980225,10.300308227539062,0.1916201114654541,0.0722577571868896,1.2841953039169312
2477352354.0,-0.6901849508285522,0.4317527413368225,10.348289489746094,0.1689002513885498,0.4743756353855133,1.2829914093017578
2477360687.0,-0.6972519755363464,0.3390161395072937,10.155027389526367,-0.4385028779506683,0.5756030678749084,1.206481695175171
2477369020.0,-0.7868912220001221,0.438032865524292,9.916866302490234,-0.4400397539138794,0.3179238438606262,1.219135046005249
2477377353.0,-0.8118549585342407,0.5063284039497375,10.030781745910645,-0.0092083178460598,-0.1013683453202247,1.3640605211257937
2477385686.0,-0.7370505928993225,0.4301223754882812,10.20127010345459,0.1229995712637901,-0.4785636067390442,1.1977218389511108
2477394019.0,-0.6448216438293457,0.3184727132320404,10.154948234558104,-0.125906765460968,-0.918308675289154,1.2649333477020264
2477402352.0,-0.6732184290885925,0.478618174791336,10.114441871643066,-0.0622297823429107,-0.7253823280334473,1.2209535837173462
2477410685.0,-0.7417784333229065,0.6089644432067871,10.20596981048584,-0.0611796043813228,-0.1739078313112259,1.2993077039718628
2477419018.0,-0.719976544380188,0.5085743069648743,10.33522129058838,-0.032542884349823,0.2441292703151703,1.385140895843506
2477427351.0,-0.7191253900527954,0.3115420639514923,10.188481330871582,-0.2192194163799286,0.4503494501113891,1.302073955535889
2477435684.0,-0.7787801027297974,0.345682680606842,10.010847091674805,-0.2116888612508773,0.275020033121109,1.3418017625808716
2477444017.0,-0.8253737092018127,0.6088929176330566,10.009438514709473,0.0868834853172302,-0.0119490390643477,1.2473106384277344
2477452350.0,-0.7878355979919434,0.7159709930419922,10.163818359375,0.3924356698989868,-0.5502321720123291,1.2374749183654783
2477460683.0,-0.6846844553947449,0.5599173903465271,10.300808906555176,-0.017840314656496,-0.7131643295288086,1.1960054636001587
2477469016.0,-0.6272328495979309,0.3853419125080108,10.16483211517334,-0.5478756427764893,-0.8748157620429993,1.3726922273635864
2477477349.0,-0.7106420993804932,0.4780459403991699,10.063448905944824,-0.4962629675865173,-0.569801390171051,1.3288921117782593
2477485682.0,-0.7380303144454956,0.6679109930992126,10.214481353759766,0.0786613225936889,-0.0255245864391326,1.3372936248779297
2477494015.0,-0.6912078261375427,0.6311740279197693,10.36267375946045,0.1783775091171264,0.309573620557785,1.2945177555084229
2477502348.0,-0.7138179540634155,0.5065285563468933,10.27797031402588,-0.2157871127128601,0.3093687295913696,1.3191074132919312
2477510681.0,-0.7782078385353088,0.5159989595413208,10.039694786071776,-0.5796372890472412,0.1380863338708877,1.2991796731948853
2477519014.0,-0.785110354423523,0.59019535779953,10.01581859588623,-0.3218812942504883,-0.1909413188695907,1.336038589477539
2477527347.0,-0.7614701986312866,0.6000162363052368,10.18910312652588,-0.0679673701524734,-0.5837611556053162,1.2924429178237915
2477535680.0,-0.6379048824310303,0.489819198846817,10.211907386779783,-0.1808236837387085,-0.8252521753311157,1.2336583137512207
2477544013.0,-0.5761686563491821,0.4779458045959472,10.102432250976562,-0.442165732383728,-0.8610352873802185,1.2903170585632324
2477552346.0,-0.6500932574272156,0.5821770429611206,10.16038417816162,-0.4104296863079071,-0.6067883968353271,1.3138821125030518
2477560679.0,-0.7074876427650452,0.5882713198661804,10.298999786376951,-0.1887128800153732,0.0420841872692108,1.3246912956237793
2477569012.0,-0.7018154859542847,0.4441055953502655,10.290294647216797,-0.3337918817996979,0.4075480997562408,1.2317630052566528
2477577345.0,-0.6824241280555725,0.3089527487754822,10.131300926208496,-0.4759508967399597,0.2752249538898468,1.25317645072937
2477585678.0,-0.7642383575439453,0.4548778831958771,10.010854721069336,-0.3626335263252258,0.0983074307441711,1.2685192823410034
2477594011.0,-0.8041297793388367,0.6408374905586243,10.09587287902832,0.0308139212429523,-0.1863563656806945,1.255917191505432
2477602344.0,-0.6788191199302673,0.5405188798904419,10.203080177307127,-0.0750112831592559,-0.6243597865104675,1.172670841217041
2477610677.0,-0.5778197646141052,0.3119923174381256,10.184995651245115,-0.5469022989273071,-0.9080373644828796,1.3312230110168457
2477619010.0,-0.6103306412696838,0.2999044060707092,10.069729804992676,-0.7413143515586853,-0.7133179903030396,1.2724895477294922
2477627343.0,-0.6778963804244995,0.4911072552204132,10.144820213317873,-0.2574614882469177,-0.324570745229721,1.273078680038452
2477635676.0,-0.6842265725135803,0.5351542234420776,10.347030639648438,0.04136698320508,0.1459242850542068,1.3160336017608645
2477644009.0,-0.6852065920829773,0.3879058361053467,10.331931114196776,-0.1468592137098312,0.4658460617065429,1.3277651071548462
2477652342.0,-0.7412561178207397,0.311742216348648,10.109249114990234,-0.6002568006515503,0.4037828147411346,1.2288939952850342
2477660675.0,-0.8094013929367065,0.3954735398292541,9.924025535583496,-0.5259498357772827,0.153634175658226,1.2916744947433472
2477669008.0,-0.7980641722679138,0.4494059681892395,10.064807891845703,-0.0546735785901546,-0.4595321416854858,1.243903875350952
2477677341.0,-0.6975882053375244,0.3952807188034057,10.215725898742676,-0.0479626581072807,-0.7022270560264587,1.240958571434021
2477685674.0,-0.5948232412338257,0.3286230564117431,10.178237915039062,-0.1914535760879516,-0.939773440361023,1.202998161315918
2477694007.0,-0.6317534446716309,0.4478248059749603,10.1265230178833,-0.2823585271835327,-0.7157002091407776,1.311115860939026
2477702340.0,-0.6891335248947144,0.5213993191719055,10.233951568603516,-0.1461163908243179,-0.2413245141506195,1.263293981552124
2477710673.0,-0.6989114284515381,0.3980771601200104,10.333297729492188,-0.1198105737566948,0.3064486980438232,1.30171537399292
2477719006.0,-0.6984320878982544,0.2263014912605285,10.207664489746094,-0.3519523739814758,0.391769677400589,1.2292015552520752
2477727339.0,-0.7689735293388367,0.3141170144081116,9.99433135986328,-0.2061817944049835,0.271638959646225,1.2653433084487915
2477735672.0,-0.8239288330078125,0.577549159526825,10.029308319091797,0.1689258813858032,0.0446712300181388,1.2378079891204834
2477744005.0,-0.7628437876701355,0.6372541785240173,10.16310977935791,0.3385689556598663,-0.4179859161376953,1.2399338483810425
2477752338.0,-0.6602932214736938,0.4290132224559784,10.231863021850586,-0.2019041925668716,-0.8032751679420471,1.272668957710266
2477760671.0,-0.6299008131027222,0.2980160415172577,10.116201400756836,-0.5888071656227112,-0.8682841062545776,1.2271010875701904
2477769004.0,-0.667667806148529,0.4083844125270843,10.022098541259766,-0.3328441679477691,-0.6151642203330994,1.2392678260803225
2477777337.0,-0.6915940642356873,0.6014611124992371,10.197400093078612,0.2100879549980163,-0.1564133167266845,1.3303520679473877
2477785670.0,-0.6788763403892517,0.5697883367538452,10.37338924407959,0.2204617410898208,0.352477490901947,1.1961336135864258
2477794003.0,-0.6832181215286255,0.4365666210651397,10.26570987701416,-0.2418367713689804,0.3768622577190399,1.2421622276306152
2477802336.0,-0.7927709221839905,0.4421029090881347,10.012285232543944,-0.5603498220443726,0.1161861643195152,1.3474622964859009
2477810669.0,-0.8320901989936829,0.5499820709228516,9.988787651062012,-0.2100751399993896,-0.0601806454360485,1.4116261005401611
2477819002.0,-0.7188106179237366,0.5171934366226196,10.15754508972168,0.1466414779424667,-0.470136433839798,1.1122467517852783
2477827335.0,-0.6285132169723511,0.3932422697544098,10.180505752563477,-0.041815236210823,-0.9638509154319764,1.192470669746399
2477835668.0,-0.5865116715431213,0.4361946582794189,10.10042953491211,-0.277030736207962,-1.021764636039734,1.17487370967865
2477844001.0,-0.6429690718650818,0.6419461965560913,10.183273315429688,-0.1708597540855407,-0.5912405252456665,1.1898068189620972
2477852334.0,-0.6651357412338257,0.5996371507644653,10.347359657287598,-0.0873317420482635,0.0849368050694465,1.242367386817932
2477860667.0,-0.6697350144386292,0.3552531003952026,10.28130340576172,-0.2360991984605789,0.4772956669330597,1.2388323545455933
2477869000.0,-0.7145760655403137,0.3203399181365967,10.075472831726074,-0.3348933160305023,0.428884744644165,1.3450546264648438
2477877333.0,-0.7951886057853699,0.5437091588973999,9.964181900024414,-0.0220666658133268,0.1949499398469925,1.264037013053894
2477885666.0,-0.7815267443656921,0.7475937008857727,10.14108657836914,0.2851632535457611,-0.1306454241275787,1.2723616361618042
2477893999.0,-0.6781468391418457,0.6086214780807495,10.298627853393556,-0.0043159984052181,-0.6479761004447937,1.32005512714386
2477902332.0,-0.5982686281204224,0.3572306036949157,10.139486312866213,-0.6211580038070679,-0.8150577545166016,1.332016944885254
2477910665.0,-0.650200605392456,0.3826842606067657,10.044164657592772,-0.6348103284835815,-0.7251773476600647,1.3191585540771484
2477918998.0,-0.7062502503395081,0.5827492475509644,10.163410186767578,-0.0669171884655952,-0.2737777233123779,1.2799944877624512
2477927331.0,-0.6674389243125916,0.593163788318634,10.317461013793944,0.2942050993442535,0.1474611461162567,1.2628329992294312
2477935664.0,-0.6835829019546509,0.4839397370815277,10.334506034851074,-0.153109073638916,0.4118512272834778,1.428505778312683
2477943997.0,-0.7636375427246094,0.4378255307674408,10.08004379272461,-0.6243085861206055,0.1971015334129333,1.2951326370239258
2477952330.0,-0.8302377462387085,0.5282517671585083,9.979575157165527,-0.5780236124992371,0.0700805410742759,1.3004602193832395
2477960663.0,-0.7914835810661316,0.5261847972869873,10.093727111816406,-0.1385089606046676,-0.2074881196022033,1.3210028409957886
2477968996.0,-0.6851779818534851,0.4181265830993652,10.206341743469238,0.0351939536631107,-0.6173927187919617,1.2934162616729736
2477977329.0,-0.6262314319610596,0.3741075694561004,10.149962425231934,-0.3017484843730926,-0.9009678959846495,1.2393958568572998
2477985662.0,-0.6600143313407898,0.5394026637077332,10.14056396484375,-0.3269528746604919,-0.7037638425827026,1.229227066040039
2477993995.0,-0.6915296912193298,0.5809682011604309,10.28844928741455,-0.1768534779548645,-0.2745461463928222,1.3117817640304563
2478002328.0,-0.6910004019737244,0.4008953869342804,10.31556510925293,-0.2419904619455337,0.2816541194915771,1.2894973754882812
2478010661.0,-0.7323581576347351,0.1896290183067321,10.17519760131836,-0.441141128540039,0.4931508600711822,1.309502124786377
2478018994.0,-0.7637519240379333,0.3304757475852966,10.005840301513672,-0.165711298584938,0.3123655915260315,1.2783808708190918
2478027327.0,-0.7991297245025635,0.6011819839477539,10.061625480651855,0.1411088109016418,-0.086204707622528,1.2303029298782349
2478035660.0,-0.729518473148346,0.6017972826957703,10.219230651855469,0.1243058815598487,-0.5453398823738098,1.206123113632202
2478043993.0,-0.6338063478469849,0.3651235997676849,10.212850570678713,-0.3894003927707672,-0.9205114245414734,1.2235406637191772
2478052326.0,-0.6166161298751831,0.2477071583271026,10.075861930847168,-0.7172881960868835,-0.9215360879898072,1.2668544054031372
2478060659.0,-0.6630255579948425,0.4188206791877746,10.04051685333252,-0.3085618913173675,-0.6457220315933228,1.194596767425537
2478068992.0,-0.6592990159988403,0.5442813038825989,10.32196044921875,0.2213326096534729,-0.1015476435422897,1.1889103651046753
2478077325.0,-0.6481618285179138,0.4496064484119415,10.401857376098633,0.1078103110194206,0.3027858734130859,1.2289966344833374
2478085658.0,-0.6953779458999634,0.3535436689853668,10.198223114013672,-0.3124552369117737,0.2997377812862396,1.274846076965332
2478093991.0,-0.8086646795272827,0.4461800456047058,9.957622528076172,-0.527102530002594,0.2276080846786499,1.264318585395813
2478102324.0,-0.8076131343841553,0.5376507043838501,10.048428535461426,-0.2028775513172149,-0.0715277567505836,1.2694159746170044
2478110657.0,-0.715148389339447,0.4300789833068847,10.141844749450684,0.0374992415308952,-0.5630905032157898,1.201640486717224
2478118990.0,-0.593950629234314,0.3204184174537658,10.14218807220459,-0.1425047814846038,-0.8852919340133667,1.1576353311538696
2478127323.0,-0.6101875901222229,0.4476459324359894,10.092533111572266,-0.2529789805412292,-0.9014545679092408,1.2684423923492432
2478135656.0,-0.654077410697937,0.6118112802505493,10.209360122680664,-0.099985159933567,-0.401515930891037,1.2534582614898682
2478143989.0,-0.67249596118927,0.5179159045219421,10.362037658691406,-0.1231916546821594,0.0816325694322586,1.296054720878601
2478152322.0,-0.678776204586029,0.3025867044925689,10.268771171569824,-0.3225728571414947,0.4788837730884552,1.3172632455825806
2478160655.0,-0.7225372195243835,0.2924581170082092,10.023565292358398,-0.3637605011463165,0.4568554162979126,1.350996971130371
2478168988.0,-0.7971057891845703,0.530311644077301,9.968538284301758,0.0289184711873531,0.2074240744113922,1.237654209136963
2478177321.0,-0.7810617089271545,0.7055491209030151,10.10658836364746,0.3641575574874878,-0.2421953827142715,1.2338632345199585
2478185654.0,-0.6688408851623535,0.5126442313194275,10.274014472961426,-0.1238832548260688,-0.7663394212722778,1.2104007005691528
2478193987.0,-0.5908746719360352,0.3354472815990448,10.1265869140625,-0.6222593784332275,-0.846307098865509,1.2435197830200195
2478202320.0,-0.6623175144195557,0.4196930527687073,10.03443717956543,-0.606404185295105,-0.707708477973938,1.2020503282546997
2478210653.0,-0.714690625667572,0.5765548944473267,10.21707820892334,0.0830157324671745,-0.0982946306467056,1.2584017515182495
2478218986.0,-0.688282310962677,0.5610976219177246,10.38418960571289,0.2229206711053848,0.3008904159069061,1.212193489074707
2478227319.0,-0.6981818675994873,0.4558292329311371,10.273885726928713,-0.1094112023711204,0.4083164930343628,1.2381150722503662
2478235652.0,-0.7715126276016235,0.4574743807315826,10.0326566696167,-0.5714407563209534,0.1407245993614196,1.326535701751709
2478243985.0,-0.8191221356391907,0.563665509223938,9.982522010803224,-0.3613271713256836,0.0201071724295616,1.436471700668335
2478252318.0,-0.762636125087738,0.5182735323905945,10.131601333618164,-0.0482700243592262,-0.3815112113952636,1.223771333694458
2478260651.0,-0.6668238043785095,0.3903231918811798,10.203680992126465,-0.1418644338846206,-0.7742542028427124,1.1984131336212158
2478268984.0,-0.6047155261039734,0.400924414396286,10.144720077514648,-0.3433972299098968,-0.8133159875869751,1.2289196252822876
2478277317.0,-0.6806287169456482,0.5919266939163208,10.14228057861328,-0.2595618367195129,-0.5315081477165222,1.3541734218597412
2478285650.0,-0.7443320155143738,0.6127196550369263,10.31289005279541,-0.1123824566602706,0.1314266324043274,1.3908785581588743
2478293983.0,-0.7226016521453857,0.4046148657798767,10.340642929077148,-0.2725226283073425,0.4278857707977295,1.2488733530044556
2478302316.0,-0.7329877018928528,0.2668727040290832,10.103548049926758,-0.489705741405487,0.4044743776321411,1.334552764892578
2478310649.0,-0.7958753705024719,0.4445849657058716,9.931665420532228,-0.2797458469867706,0.0614997781813144,1.3495372533798218
2478318982.0,-0.8208819031715393,0.6698210835456848,10.063456535339355,0.1134966686367988,-0.3815624117851257,1.2808141708374023
2478327315.0,-0.69094318151474,0.5900809168815613,10.311988830566406,0.1631882935762405,-0.6341700553894043,1.1937001943588257
2478335648.0,-0.6168541312217712,0.3924395143985748,10.201951026916504,-0.4233136773109436,-0.9427191615104676,1.323487639427185
2478343981.0,-0.6112165451049805,0.3313577771186828,10.119064331054688,-0.7308125495910645,-0.8589861392974854,1.3503055572509766
2478352314.0,-0.7128809690475464,0.5170289278030396,10.110586166381836,-0.2312068939208984,-0.214685708284378,1.2489244937896729
2478360647.0,-0.717351496219635,0.5892083048820496,10.34457778930664,0.1993043422698974,0.2424131035804748,1.2956960201263428
2478368980.0,-0.6960574388504028,0.4521669745445251,10.368725776672363,0.0504856556653976,0.3799103200435638,1.2392421960830688
2478377313.0,-0.7046694755554199,0.3706460297107696,10.107961654663086,-0.5544841289520264,0.3100603222846985,1.1977472305297852
2478385646.0,-0.7864048480987549,0.4876593947410583,9.95576286315918,-0.4705463647842407,-0.0187112018465995,1.238678812980652
2478393979.0,-0.750304639339447,0.5612618327140808,10.079363822937012,-0.1270594149827957,-0.2857395708560943,1.1714669466018677
2478402312.0,-0.6550215482711792,0.4382549822330475,10.217084884643556,-0.0682491287589073,-0.6654706597328186,1.2603484392166138
2478410645.0,-0.5725634694099426,0.3226722478866577,10.170348167419434,-0.3802048563957214,-0.8392118811607361,1.2004879713058472
2478418978.0,-0.6296719312667847,0.4557362496852875,10.157273292541504,-0.4142206013202667,-0.6574021577835083,1.3311973810195925
2478427311.0,-0.7094261050224304,0.5809038281440735,10.22024631500244,-0.1661467552185058,-0.1203228831291198,1.2392935752868652
2478435644.0,-0.6938758492469788,0.4756568968296051,10.309142112731934,-0.1107175275683403,0.3223038911819458,1.2081722021102903
2478443977.0,-0.7021160125732422,0.2337121069431305,10.200433731079102,-0.3732378184795379,0.3278366029262543,1.2896766662597656
2478452310.0,-0.7385453581809998,0.306971400976181,9.976485252380373,-0.2958828508853912,0.1740999668836593,1.288267970085144
2478460643.0,-0.7704899311065674,0.5620489120483398,9.976534843444824,0.0488719567656517,-0.1639182865619659,1.3474369049072266
2478468976.0,-0.7113717198371887,0.6303228139877319,10.183152198791504,0.1816049069166183,-0.614780068397522,1.2911878824234009
2478477309.0,-0.5870981812477112,0.3902805745601654,10.275444984436035,-0.2409915179014206,-0.8283002376556396,1.279072403907776
2478485642.0,-0.5977416038513184,0.2570803165435791,10.185905456542969,-0.5594532489776611,-0.8478695154190063,1.2940055131912231
2478493975.0,-0.6715232133865356,0.408734917640686,10.093426704406738,-0.4942138195037842,-0.3135054111480713,1.2944921255111694
2478502308.0,-0.7559481859207153,0.5714048743247986,10.257827758789062,0.0769195407629013,0.339055597782135,1.3225910663604736
2478510641.0,-0.7150911688804626,0.5128517150878906,10.341014862060549,0.2833703160285949,0.6225284337997437,1.2091968059539795
2478518974.0,-0.6876742243766785,0.380459576845169,10.209223747253418,-0.3319989442825317,0.3386714458465576,1.390596866607666
2478527307.0,-0.7822633981704712,0.4291634559631347,9.95823097229004,-0.5024872422218323,0.0364490561187267,1.2741544246673584
2478535640.0,-0.787628173828125,0.5331085324287415,10.00149154663086,-0.2697050869464874,-0.4277961254119873,1.2272037267684937
2478543973.0,-0.7115362286567688,0.4928165674209595,10.203415870666504,0.0451835095882415,-0.7367038130760193,1.310219407081604
2478552306.0,-0.6253015398979187,0.339066207408905,10.223307609558104,-0.1483448445796966,-0.8065794110298157,1.2060973644256592
2478560639.0,-0.6568670272827148,0.4096361696720123,10.101187705993652,-0.2883522510528564,-0.6467210650444031,1.3023557662963867
2478568972.0,-0.7807185053825378,0.5018362998962402,10.077847480773926,-0.0387927591800689,-0.009259546175599,1.3090922832489014
2478577305.0,-0.8229917883872986,0.2541762888431549,10.02469539642334,0.0107579780742526,0.5978874564170837,1.139346718788147
2478585638.0,-0.7122728228569031,0.1020570248365402,9.55622673034668,0.075203388929367,0.6519590616226196,1.278483271598816
2478593971.0,-0.6000806093215942,0.301742672920227,9.770711898803713,0.4931508600711822,0.2278642058372497,1.1875526905059814
2478602304.0,-0.6585260033607483,0.6324396729469299,10.363245964050291,0.4788581728935241,-0.3506460785865783,1.1275898218154907
2478610637.0,-0.5205052495002747,0.6326546669006348,10.145149230957031,0.2694361209869385,-0.8947692513465881,1.2599897384643557
2478618970.0,-0.3029570877552032,0.3649974167346954,9.872492790222168,0.4113646149635315,-1.1098777055740356,1.321463942527771
2478627303.0,-0.3659370243549347,0.391524076461792,10.192224502563477,0.1353456228971481,-1.032855749130249,1.3526623249053955
2478635636.0,-0.5413629412651062,0.6259738802909851,10.42601203918457,0.0403680354356765,-0.3453952074050903,1.3245633840560913
2478643969.0,-0.6191732883453369,0.7949392795562744,10.434477806091309,0.3603666424751282,0.8691933751106262,1.400074124336243
2478652302.0,-0.6095384955406189,0.7553445100784302,10.582755088806152,0.0956691652536392,1.3289177417755127,1.485241413116455
2478660635.0,-0.6468079686164856,0.5773714184761047,10.465843200683594,-0.4826618432998657,1.058098316192627,1.4703339338302612
2478668968.0,-0.73838871717453,0.4890901446342468,9.96299934387207,-0.9098816514015198,0.3334460854530334,1.5068341493606567
2478677301.0,-0.7948811054229736,0.4971655011177063,9.98099136352539,-0.4990805983543396,-0.4805102050304413,1.478709697723389
2478685634.0,-0.6755232810974121,0.46924689412117,10.312251091003418,-0.1600249409675598,-0.933241844177246,1.519461989402771
2478693967.0,-0.5716917514801025,0.4320204257965088,10.343385696411133,-0.3569471538066864,-1.200833797454834,1.428736448287964
2478702300.0,-0.6266891956329346,0.5155554413795471,10.151392936706545,-0.4910376667976379,-0.7332459092140198,1.3634456396102903
2478710633.0,-0.7444679141044617,0.5876847505569458,10.303634643554688,-0.3687297105789184,0.2325772494077682,1.2051753997802734
2478718966.0,-0.8042011857032776,0.492222398519516,10.424102783203123,-0.3784631192684173,1.0961356163024902,1.1779729127883911
2478727299.0,-0.7746662497520447,0.2255532145500183,10.1249418258667,-0.4014391303062439,1.259324073791504,1.268109679222107
2478735632.0,-0.8267828226089478,0.1995360553264618,9.780977249145508,-0.1867918223142624,0.8389686942100525,1.2154465913772583
2478743965.0,-0.890221357345581,0.4141496121883392,9.831804275512695,0.3436917662620544,0.2699996531009674,1.1925987005233765
2478752298.0,-0.8593356609344482,0.6217681765556335,10.059443473815918,0.5988608002662659,-0.375005155801773,1.1239013671875
2478760631.0,-0.7261564135551453,0.5554036498069763,10.270553588867188,0.3970462381839752,-0.8290174007415771,1.1813796758651731
2478768964.0,-0.657811164855957,0.4364310801029205,10.199604034423828,-0.1907876282930374,-0.8580127954483032,1.17428457736969
2478777297.0,-0.6962004899978638,0.4123399257659912,10.096688270568848,-0.3889393508434295,-0.3241609334945678,1.1487727165222168
2478785630.0,-0.7108210325241089,0.4678315222263336,10.10037899017334,0.0101944664493203,0.2883138656616211,1.215959072113037
2478793963.0,-0.7247188687324524,0.4509295225143432,10.329084396362305,0.1684136092662811,0.8027245402336121,1.2348365783691406
2478802296.0,-0.7622928023338318,0.4410085380077362,10.272068977355955,-0.0607441626489162,0.873803973197937,1.334296703338623
2478810629.0,-0.8614311814308167,0.5104697942733765,10.023529052734377,-0.369318813085556,0.473863273859024,1.3010749816894531
2478818962.0,-0.9115797877311708,0.6131059527397156,9.987765312194824,-0.2581530809402466,0.1353712230920791,1.3189281225204468
2478827295.0,-0.8589276671409607,0.6637623906135559,10.21649169921875,-0.2606376409530639,-0.2655043303966522,1.2926223278045654
2478835628.0,-0.693247377872467,0.4469383358955383,10.276782989501951,-0.4936503171920776,-0.8472804427146912,1.3948743343353271
2478843961.0,-0.6092771887779236,0.3156949579715729,10.076223373413086,-0.6910337209701538,-0.9366742372512816,1.3820929527282717
2478852294.0,-0.6393277645111084,0.41526859998703,10.051100730895996,-0.4855818450450897,-0.836010217666626,1.3924410343170166
2478860627.0,-0.7332308292388916,0.5191034078598022,10.314599990844728,-0.0673526301980018,-0.0471686124801635,1.2677507400512695
2478868960.0,-0.7273940443992615,0.44082972407341,10.434431076049805,-0.1034174710512161,0.6288806796073914,1.2755119800567627
2478877293.0,-0.7659979462623596,0.305104523897171,10.17416763305664,-0.2765696942806244,0.746808648109436,1.3188257217407229
2478885626.0,-0.8170620799064636,0.3466837108135223,9.92302417755127,-0.1461676210165023,0.3767341375350952,1.2164455652236938
2478893959.0,-0.8068621158599854,0.5169001817703247,9.86060905456543,0.3019918203353882,-0.1754959225654602,1.2395751476287842
2478902292.0,-0.6698136925697327,0.4734466671943664,10.011519432067873,0.4966343641281128,-0.7855246067047119,1.289523005485535
2478910625.0,-0.5688220262527466,0.25418820977211,10.100929260253906,0.2784523963928222,-1.1607732772827148,1.2925199270248413
2478918958.0,-0.561619758605957,0.1983268707990646,9.981884956359863,0.0958997085690498,-1.079371213912964,1.2460302114486694
2478927291.0,-0.6565664410591125,0.3839144110679626,9.955341339111328,0.4533975720405578,-0.274110734462738,1.1996170282363892
2478935624.0,-0.6957212686538696,0.4938179850578308,10.154197692871094,0.9026967883110046,0.3906427025794983,1.2900608777999878
2478943957.0,-0.600714921951294,0.3288409411907196,10.190299987792969,0.8697057962417603,0.7917616367340088,1.3308132886886597
2478952290.0,-0.6166179776191711,0.1245095357298851,9.800095558166504,0.4425883293151855,0.5160499811172485,1.3224117755889893
2478960623.0,-0.6932967901229858,0.1349741965532302,9.514904975891112,0.4798571467399597,-0.0612564459443092,1.359731674194336
2478968956.0,-0.6730700731277466,0.1599708944559097,9.645008087158203,0.890273928642273,-0.5996676087379456,1.338523030281067
2478977289.0,-0.5422440767288208,-0.0013770184013992,9.65882682800293,0.994651973247528,-1.004218816757202,1.395770788192749
2478985622.0,-0.4412041306495666,-0.0335561148822307,9.768310546875,0.944473683834076,-0.996688187122345,1.5579601526260376
2478993955.0,-0.5263497829437256,0.1176291033625602,9.80415153503418,0.8957042098045349,-0.6783801317214966,1.5494306087493896
2479002288.0,-0.6057512164115906,0.212534949183464,9.771185874938965,0.8780559301376343,0.0440564788877964,1.5589591264724731
2479010621.0,-0.6120396852493286,0.0845225974917411,9.769773483276367,1.1595052480697632,0.5983229279518127,1.5809361934661863
2479018954.0,-0.6263018846511841,0.0039300941862165,9.74666976928711,0.9839964509010316,0.7610757350921631,1.6709445714950562
2479027287.0,-0.7087756991386414,0.2055579721927642,9.613443374633787,1.0945476293563845,0.2342934161424636,1.5942813158035278
2479035620.0,-0.7539623379707336,0.5503203868865967,9.85446548461914,1.2912904024124146,-0.1675042659044265,1.5718430280685425
2479043953.0,-0.689046323299408,0.7631063461303711,10.274409294128418,1.3159058094024658,-0.5136295557022095,1.4898264408111572
2479052286.0,-0.6248337030410767,0.7529793977737427,10.456609725952148,0.8584610223770142,-0.6715924143791199,1.3306082487106323
2479060619.0,-0.5501964092254639,0.7356981635093689,10.446333885192873,0.3941006362438202,-0.48401939868927,1.2499489784240725
2479068952.0,-0.5918407440185547,0.9523225426673888,10.497390747070312,0.297791063785553,-0.1016500815749168,1.2709527015686035
2479077285.0,-0.6427754163742065,1.0770968198776243,10.746145248413086,0.5408189296722412,0.4373630583286285,1.0380936861038208
2479085618.0,-0.6480189561843872,1.1470155715942385,10.992768287658691,0.3892595171928406,0.6950422525405884,1.0414235591888428
2479093951.0,-0.7005780935287476,1.1331466436386108,10.976181030273438,-0.1635084599256515,0.9830742478370668,1.0238778591156006
2479102284.0,-0.8123769760131836,1.175433874130249,10.754321098327637,-0.52162104845047,0.6776501536369324,0.9936785697937012
2479110617.0,-0.8637268543243408,1.1826436519622805,10.799819946289062,-0.6630886197090149,0.5166135430335999,0.9248532056808472
2479118950.0,-0.8002667427062988,1.0170267820358276,10.936117172241213,-0.7637267708778381,0.3653870820999145,0.8101525902748108
2479127283.0,-0.7099835872650146,0.8944559693336487,10.86270809173584,-0.8189511299133301,-0.0836432874202728,0.8157109618186951
2479135616.0,-0.706393301486969,0.9219299554824828,10.714487075805664,-0.8986883163452148,-0.2275952994823455,0.8842034935951233
2479143949.0,-0.7533016800880432,0.9382598400115968,10.77710247039795,-0.8122915625572205,0.1013811528682708,0.8829227685928345
2479152282.0,-0.8357957005500793,0.8280848264694214,10.934465408325195,-0.9110342264175416,0.6329789161682129,0.8607149720191956
2479160615.0,-0.9067528247833252,0.6224844455718994,10.852116584777832,-0.9834457635879515,1.0733388662338257,0.9813581705093384
2479168948.0,-0.9788799285888672,0.5605869889259338,10.435778617858888,-0.9711765050888062,1.1662672758102417,0.9510821104049684
2479177281.0,-1.052526593208313,0.6955496072769165,10.259930610656738,-0.4861709475517273,0.9262619018554688,1.0934460163116455
2479185614.0,-1.0725115537643433,0.7412992119789124,10.423487663269045,-0.1949115246534347,0.3259923756122589,1.1175235509872437
2479193947.0,-1.0187150239944458,0.6047585606575012,10.423087120056152,-0.5794067978858948,-0.2468059509992599,1.1298694610595703
2479202280.0,-0.9557158946990968,0.4521062672138214,10.259844779968262,-0.990950644016266,-0.5984381437301636,1.3265612125396729
2479210613.0,-0.9873140454292296,0.5325363278388977,10.08011531829834,-0.7103723287582397,-0.5677523016929626,1.3860629796981812
2479218946.0,-1.0208537578582764,0.6607081294059753,10.252827644348145,-0.1957567930221557,-0.099729023873806,1.379941463470459
2479227279.0,-0.9458991289138794,0.6215176582336426,10.462871551513672,-0.155644878745079,0.3054240942001343,1.5746606588363647
2479235612.0,-0.95680171251297,0.5215598344802856,10.242740631103516,-0.5757184028625488,0.442281037569046,1.6045526266098022
2479243945.0,-1.0285016298294067,0.4850624501705169,9.89116668701172,-0.8115741610527039,0.2060152888298034,1.6324464082717896
2479252278.0,-1.054466962814331,0.5236697793006897,9.765013694763184,-0.7035845518112183,-0.1108199805021286,1.6814719438552856
2479260611.0,-1.0058668851852417,0.5374024510383606,9.99075412750244,-0.4565865695476532,-0.4192666113376617,1.6886184215545654
2479268944.0,-0.8892254829406738,0.4631454050540924,10.016460418701172,-0.6901884078979492,-0.7055314183235168,1.64159095287323
2479277277.0,-0.8273789286613464,0.4996501803398132,9.78347396850586,-0.8517116904258728,-1.0645147562026978,1.5774015188217163
2479285610.0,-0.7725319862365723,0.549674928188324,9.75940990447998,-0.9332930445671082,-1.0323176383972168,1.5793737173080444
2479293943.0,-0.7567533850669861,0.4568062722682953,9.89353084564209,-0.8928993940353394,-0.7035589814186096,1.5445640087127686
2479302276.0,-0.6627062559127808,0.2621283829212188,9.925728797912598,-0.9041953086853028,-0.4993878901004791,1.5898499488830566
2479310609.0,-0.6399319767951965,0.2151059359312057,9.73155117034912,-1.0678189992904663,-0.4012085497379303,1.457373023033142
2479318942.0,-0.6722313165664673,0.3644301891326904,9.58975887298584,-0.8047351241111755,-0.6192368865013123,1.2197754383087158
2479327275.0,-0.6349077820777893,0.473074734210968,9.755111694335938,-0.4959812760353088,-0.8726385235786438,1.2912136316299438
2479335608.0,-0.5685195922851562,0.3225825130939483,9.936087608337402,-0.6524073481559753,-1.1630783081054688,1.130945324897766
2479343941.0,-0.4752454757690429,0.1002300158143043,9.835841178894045,-0.9756845235824584,-1.4288259744644165,1.1459294557571411
2479352274.0,-0.4166120588779449,0.0530596785247325,9.707159996032717,-1.074837327003479,-1.4715760946273804,0.9817680716514589
2479360607.0,-0.4912389516830444,0.1807022094726562,9.715014457702637,-0.5979258418083191,-1.2782399654388428,0.9730848670005798
2479368940.0,-0.4709360301494598,0.1945930868387222,10.019644737243652,-0.0955795049667358,-0.8291199207305908,0.8439377546310425
2479377273.0,-0.461208164691925,0.1607673019170761,10.154004096984863,-0.2925017476081848,-0.4418327212333679,0.8514427542686462
2479385606.0,-0.5235738158226013,0.0639178082346916,9.97126293182373,-0.6484627723693848,-0.3277213275432586,0.9793602228164672
2479393939.0,-0.5807750821113586,0.1022785007953643,9.78900146484375,-0.4957507252693176,-0.3259027004241943,1.0168850421905518
2479402272.0,-0.6479402780532837,0.1735494285821914,9.970590591430664,-0.0598476603627204,-0.5220308899879456,0.9120204448699952
2479410605.0,-0.6125122308731079,0.0807055234909057,10.073641777038574,0.0112958773970603,-0.5416514277458191,0.9329216480255128
2479418938.0,-0.5451610684394836,0.0843677818775177,10.019659042358398,0.0168029367923736,-0.9223557710647584,0.9623268246650696
2479427271.0,-0.5722774863243103,0.2364586889743805,10.012571334838867,0.02412860840559,-0.9523755311965942,1.0494920015335083
2479435604.0,-0.6399148106575012,0.3333439528942108,10.1786527633667,0.2238427847623825,-0.5167799592018127,1.061453938484192
2479443937.0,-0.6437060832977295,0.2597770690917969,10.407064437866213,0.2019426375627517,-0.1111785843968391,1.1533066034317017
2479452270.0,-0.6918799877166748,0.2071894109249115,10.32451343536377,0.1517643481492996,0.2253796756267547,1.2165225744247437
2479460603.0,-0.7663484215736389,0.2634892761707306,10.172515869140623,0.1670560240745544,0.2508401870727539,1.17369544506073
2479468936.0,-0.8134785294532776,0.4488694965839386,10.145878791809082,0.6176360249519348,0.0487182773649692,1.245543360710144
2479477269.0,-0.7579653263092041,0.5862255692481995,10.359841346740724,0.7772127985954285,-0.1427353322505951,1.3161362409591677
2479485602.0,-0.6874021887779236,0.5009848475456238,10.49950122833252,0.4450216889381408,-0.5166518688201904,1.3961806297302246
2479493935.0,-0.6312670111656189,0.4614728093147278,10.321537971496582,0.1756367981433868,-0.7324005961418152,1.402302384376526
2479502268.0,-0.6355155110359192,0.528916597366333,10.31040096282959,0.3144915699958801,-0.5974135994911194,1.4728697538375854
2479510601.0,-0.6879725456237793,0.6632630228996277,10.548423767089844,0.7208870053291321,-0.2070526778697967,1.564747929573059
2479518934.0,-0.6394355297088623,0.7079240083694458,10.63136386871338,0.7743183374404907,0.0989990159869194,1.482398271560669
2479527267.0,-0.6381646394729614,0.7329267263412476,10.520631790161133,0.4782432913780212,0.4203039705753326,1.698505401611328
2479535600.0,-0.7433455586433411,0.764187216758728,10.36544418334961,0.2483299672603607,0.4191513061523437,1.6454583406448364
2479543933.0,-0.78448086977005,0.8686341047286987,10.30185317993164,0.3177189528942108,0.2485349327325821,1.5447944402694702
2479552266.0,-0.704226016998291,0.8256383538246155,10.45285701751709,0.4254268109798431,-0.0767274275422096,1.4647754430770874
2479560599.0,-0.6638908982276917,0.8038290143013,10.45673370361328,0.1810157895088195,-0.4434976577758789,1.5530422925949097
2479568932.0,-0.6042650938034058,0.8309604525566101,10.22315788269043,0.0478986166417598,-0.5614768862724304,1.431707501411438
2479577265.0,-0.6396929621696472,0.9447256922721864,10.269758224487305,0.0307114664465188,-0.4943675100803375,1.3965648412704468
2479585598.0,-0.6824885606765747,0.8457306027412415,10.502068519592283,-0.1069522351026535,-0.0257038846611976,1.2612706422805786
2479593931.0,-0.747143030166626,0.6959859132766724,10.395563125610352,-0.4333544373512268,0.3947409689426422,1.38708758354187
2479602264.0,-0.7738231420516968,0.6534193754196167,10.137760162353516,-0.4277961254119873,0.7521876096725464,1.3264330625534058
2479610597.0,-0.8569749593734741,0.7136605978012085,9.997672080993652,-0.2316423207521438,0.5225303769111633,1.2578125
2479618930.0,-0.8759300112724304,0.7867197394371033,10.061717987060549,-0.2247777134180069,0.2083718180656433,1.1495925188064575
2479627263.0,-0.800260066986084,0.7209636569023132,10.13703727722168,-0.440500795841217,-0.2298237085342407,1.1069447994232178
2479635596.0,-0.7502903342247009,0.5252904891967773,10.036247253417969,-0.7179030179977417,-0.6472588777542114,1.1475176811218262
2479643929.0,-0.7463204860687256,0.4516376554965973,9.860880851745604,-0.8045815825462341,-0.5605546832084656,1.0549222230911257
2479652262.0,-0.7949380874633789,0.4787544012069702,9.95896053314209,-0.446161538362503,-0.3610454499721527,1.0689588785171509
2479660595.0,-0.7863548398017883,0.5168285369873047,10.19774341583252,-0.2678864598274231,0.2130848169326782,0.9943958520889282
2479668928.0,-0.7747530341148376,0.4656500816345215,10.14781665802002,-0.5884742736816406,0.4853385686874389,0.9899134039878844
2479677261.0,-0.8372542858123779,0.4030554294586181,9.872739791870115,-0.7256128787994385,0.3641063570976257,1.0833028554916382
2479685594.0,-0.8822814226150513,0.360696405172348,9.751664161682127,-0.7505611181259155,0.0564025491476058,1.152486801147461
2479693927.0,-0.8664451241493225,0.3503178060054779,9.926572799682615,-0.4456236362457275,-0.1500353962182998,1.0253633260726929
2479702260.0,-0.7332451939582825,0.2993533313274383,9.990812301635742,-0.4374014735221863,-0.6343749165534973,1.2113739252090454
2479710593.0,-0.6619026064872742,0.2476457357406616,9.938274383544922,-0.455741286277771,-0.9663097858428956,1.1444694995880127
2479718926.0,-0.6437845826148987,0.356604665517807,9.945406913757324,-0.3448060154914856,-0.7948736548423767,1.161682367324829
2479727259.0,-0.6891406774520874,0.3669906258583069,10.130070686340332,-0.2897866368293762,-0.5188803672790527,1.2938774824142456
2479735592.0,-0.6597280502319336,0.241229623556137,10.241790771484377,-0.3399136662483215,0.0538155063986778,1.267059326171875
2479743925.0,-0.6638482213020325,0.1474200934171676,10.12231731414795,-0.4684971272945404,0.2885187268257141,1.408757209777832
2479752258.0,-0.6905354857444763,0.1943928152322769,9.91335391998291,-0.2276977449655532,0.0171103086322546,1.3918519020080566
2479760591.0,-0.7274296879768372,0.3850301504135132,9.967479705810549,0.1035583540797233,-0.3725718259811401,1.4322454929351809
2479768924.0,-0.6696062684059143,0.4510725736618042,10.213537216186523,0.23511303961277,-0.4678055942058563,1.329993486404419
2479777257.0,-0.5806459188461304,0.3754497468471527,10.335880279541016,-0.1030844822525978,-0.9704849123954772,1.377482295036316
2479785590.0,-0.5400733947753906,0.2920820415019989,10.199419021606444,-0.4238514900207519,-0.9046050906181335,1.3675695657730105
2479793923.0,-0.5301257967948914,0.3676131963729858,10.092132568359377,-0.0322099030017852,-0.5970293879508972,1.3567092418670654
2479802256.0,-0.5914256572723389,0.4579679369926452,10.337818145751951,0.3185129761695862,-0.2439883947372436,1.422921895980835
2479810589.0,-0.5786435604095459,0.463067889213562,10.42320156097412,0.2926938831806183,0.1572970151901245,1.339675784111023
2479818922.0,-0.6031277179718018,0.443948358297348,10.312211036682127,0.0131913311779499,0.2531198561191559,1.3981016874313354
2479827255.0,-0.7318645715713501,0.4685899019241333,10.11839771270752,-0.1622021347284317,0.2646206617355346,1.3774824142456057
2479835588.0,-0.7841375470161438,0.5183021426200867,10.091373443603516,0.0813508182764053,0.0140622155740857,1.3554542064666748
2479843921.0,-0.7232384085655212,0.4487909972667694,10.267748832702637,0.1753550767898559,-0.2396339923143386,1.3133955001831057
2479852254.0,-0.6416100263595581,0.3861819803714752,10.225397109985352,0.0296356715261936,-0.5150895118713379,1.3136004209518433
2479860587.0,-0.5762044787406921,0.3439948558807373,10.046632766723633,-0.0011910619214177,-0.7613447308540344,1.2599897384643557
2479868920.0,-0.6310166716575623,0.4110095202922821,10.008086204528809,0.0520225055515766,-0.6436728835105896,1.2683911323547363
2479877253.0,-0.6460018754005432,0.450192779302597,10.345707893371582,0.338261604309082,0.0229503568261861,1.129306077957153
2479885586.0,-0.720927894115448,0.4117105007171631,10.50081729888916,0.221486285328865,0.4764247536659241,1.2646515369415283
2479893919.0,-0.7665773034095764,0.3541229367256164,10.214738845825195,-0.0191466398537158,0.6946836709976196,1.2869871854782104
2479902252.0,-0.8521609306335449,0.4711364805698395,9.974310874938965,0.1785311996936798,0.5454294681549072,1.3038157224655151
2479910585.0,-0.8717384338378906,0.678425669670105,10.127009391784668,0.5368999242782593,0.2993791699409485,1.1837362051010132
2479918918.0,-0.7799678444862366,0.6774389147758484,10.314849853515623,0.3705611526966095,-0.2920919358730316,1.1945199966430664
2479927251.0,-0.7362063527107239,0.5774843692779541,10.235761642456056,-0.0824906453490257,-0.8738936185836792,1.257710099220276
2479935584.0,-0.7374510765075684,0.5337663292884827,10.13507080078125,-0.3593036830425262,-0.7117043137550354,1.2068147659301758
2479943917.0,-0.8081353306770325,0.6728608012199402,10.177387237548828,0.0148562556132674,-0.1352815777063369,1.1402944326400757
2479952250.0,-0.812934935092926,0.7186961770057678,10.471869468688965,0.1266367733478546,0.3560378551483154,1.2593750953674316
2479960583.0,-0.8447650671005249,0.6163247227668762,10.37049961090088,-0.0407906658947467,0.626652181148529,1.3134465217590332
2479968916.0,-0.8436921238899231,0.5135526657104492,10.075587272644045,-0.4284364879131317,0.4336234331130981,1.401534080505371
2479977249.0,-0.8990265130996704,0.5986500978469849,9.908547401428224,-0.2292602360248565,-0.0212470069527626,1.326407551765442
2479985582.0,-0.9081393480300904,0.6558516025543213,10.0491361618042,-0.0007556200143881,-0.4440612196922302,1.278022289276123
2479993915.0,-0.7931715846061707,0.5595812201499939,10.185519218444824,0.0204657725989818,-0.8428748250007629,1.122928023338318
2480002248.0,-0.701872706413269,0.4937464296817779,10.097468376159668,-0.1940150111913681,-0.9466124773025512,1.277612328529358
2480010581.0,-0.6901564002037048,0.5698521733283997,10.055487632751465,-0.2311812490224838,-0.8317837715148926,1.347283124923706
2480018914.0,-0.7328445315361023,0.6303800344467163,10.11036491394043,-0.0403296165168285,-0.3218300640583038,1.2731555700302124
2480027247.0,-0.7267860770225525,0.5442598462104797,10.28832721710205,0.0167260952293872,0.1839870363473892,1.2323520183563232
2480035580.0,-0.7277445197105408,0.4201794564723968,10.127875328063965,-0.2066428363323211,0.1202076077461242,1.4117543697357178
2480043913.0,-0.7128022313117981,0.4951627254486084,9.900114059448242,-0.1649940907955169,0.0452347360551357,1.2075318098068235
2480052246.0,-0.7230451107025146,0.6584406495094299,9.917595863342283,0.1864204108715057,-0.3813063204288482,1.3478209972381592
2480060579.0,-0.6765018105506897,0.7053780555725098,10.143461227416992,0.2519416511058807,-0.7999197244644165,1.3186976909637451
2480068912.0,-0.5615267753601074,0.5780569911003113,10.239280700683594,-0.2145576328039169,-0.9446401596069336,1.328046798706055
2480077245.0,-0.5035958886146545,0.4658074378967285,10.088191032409668,-0.4570220112800598,-0.8566808700561523,1.3131906986236572
2480085578.0,-0.5432083606719971,0.5241531729698181,10.04810619354248,-0.3968285620212555,-0.4207522273063659,1.280225157737732
2480093911.0,-0.6272972226142883,0.635623037815094,10.272491455078123,-0.1025722026824951,0.0771756917238235,1.2751022577285769
2480102244.0,-0.626603364944458,0.633305549621582,10.349176406860352,0.0491537190973758,0.457547128200531,1.2915722131729126
2480110577.0,-0.6283270716667175,0.5665121674537659,10.263099670410156,-0.3121478855609894,0.4060112237930298,1.4586795568466189
2480118910.0,-0.6740052103996277,0.5495600700378418,10.058327674865724,-0.7094758749008179,-0.0013447471428662,1.2715160846710205
2480127243.0,-0.7174301743507385,0.5684006810188293,10.066495895385742,-0.5785359144210815,-0.3692163527011871,1.2215428352355957
2480135576.0,-0.6725317239761353,0.507429838180542,10.238293647766112,-0.446289598941803,-0.3775922656059265,1.4159293174743652
2480143909.0,-0.5665194392204285,0.3962603509426117,10.311631202697754,-0.4103527963161468,-0.5699807405471802,1.224462866783142
2480152242.0,-0.5477575659751892,0.379050612449646,10.219195365905762,-0.5267183184623718,-0.60017991065979,1.1033587455749512
2480160575.0,-0.6488057971000671,0.4887323081493377,10.198795318603516,-0.4891422390937805,-0.1001900807023048,1.1976191997528076
2480168908.0,-0.7381948232650757,0.5300042033195496,10.37082862854004,-0.3261076211929321,0.4273991286754608,1.2425209283828735
2480177241.0,-0.7948739528656006,0.3233442604541778,10.349427223205566,-0.485735535621643,0.7998300194740295,1.2473362684249878
2480185574.0,-0.7874134182929993,0.1645438075065612,10.073384284973145,-0.5012577772140503,0.4787813127040863,1.2538937330245972
2480193907.0,-0.8281131386756897,0.2658568322658539,9.875894546508787,-0.2128670960664749,0.0746655017137527,1.141498327255249
2480202240.0,-0.8512026071548462,0.4594485759735107,10.088412284851074,0.1657240986824035,-0.2932701706886291,1.1099416017532349
2480210573.0,-0.7533875107765198,0.4428825676441192,10.264551162719728,0.1221286803483963,-0.518521785736084,1.1244136095046997
2480218906.0,-0.6927456259727478,0.239992469549179,10.217035293579102,-0.2964719533920288,-0.6935182213783264,1.1393978595733645
2480227239.0,-0.719418466091156,0.211388275027275,10.077890396118164,-0.5024360418319702,-0.6000519394874573,1.2726176977157593
2480235572.0,-0.8265038728713989,0.390681117773056,10.06646728515625,-0.0975005850195884,-0.0157399456948041,1.2534581422805786
2480243905.0,-0.8036218881607056,0.4468953311443329,10.270023345947266,0.379526138305664,0.4324195384979248,1.197235107421875
2480252238.0,-0.7727073431015015,0.3882348537445068,10.243450164794922,0.1714360862970352,0.4156934022903442,1.3141381740570068
2480260571.0,-0.80010986328125,0.3431433737277984,10.03679084777832,-0.2545414566993713,0.0169053934514522,1.3456950187683103
2480268904.0,-0.875379204750061,0.4345709681510925,9.904276847839355,-0.2247008681297302,-0.3164510428905487,1.3266892433166504
2480277237.0,-0.8431698083877563,0.5077299475669861,10.067132949829102,0.080607995390892,-0.461453229188919,1.2967718839645386
2480285570.0,-0.7413778901100159,0.4527964293956756,10.217636108398438,0.1451558619737625,-0.7103723287582397,1.3632152080535889
2480293903.0,-0.6642988324165344,0.4265597760677337,10.155792236328123,-0.1215011179447174,-0.8758658766746521,1.3483588695526123
2480302236.0,-0.6899560689926147,0.5163494348526001,10.100936889648438,-0.1403788179159164,-0.6509473323822021,1.409243941307068
2480310569.0,-0.7633442878723145,0.6424041390419006,10.219659805297852,-0.1272643208503723,-0.1462956964969635,1.294927716255188
2480318902.0,-0.742951512336731,0.5297252535820007,10.32254695892334,-0.0198638383299112,0.1187219768762588,1.378020167350769
2480327235.0,-0.746992826461792,0.397562175989151,10.156987190246582,-0.2700636982917785,0.1530194580554962,1.3282262086868286
2480335568.0,-0.7594031095504761,0.4388198852539062,9.974861145019531,-0.0649192780256271,-0.1576428115367889,1.307658076286316
2480343901.0,-0.7551685571670532,0.7018154859542847,10.044780731201172,0.2239452600479126,-0.4103528261184692,1.3423395156860352
2480352234.0,-0.6826601624488831,0.7086250185966492,10.278763771057127,0.228837564587593,-0.6457220315933228,1.3157007694244385
2480360567.0,-0.5811684727668762,0.5305764079093933,10.330944061279297,-0.1901216655969619,-0.7937979102134705,1.337780237197876
2480368900.0,-0.5857391357421875,0.4283050894737243,10.16838836669922,-0.4372734427452087,-0.6458757519721985,1.2832475900650024
2480377233.0,-0.6588626503944397,0.5179159045219421,10.10141658782959,-0.2262633293867111,-0.2071551084518432,1.2136279344558716
2480385566.0,-0.6981242895126343,0.6437059640884399,10.261446952819824,0.2979960441589355,0.2649280428886413,1.2192120552062988
2480393899.0,-0.6750640869140625,0.6255517601966858,10.356093406677246,0.2620848417282104,0.4504519402980804,1.269210934638977
2480402232.0,-0.6776531934738159,0.538816511631012,10.2041597366333,-0.1140986084938049,0.1576812118291854,1.236783146858215
2480410565.0,-0.7321792840957642,0.555525541305542,9.964224815368652,-0.4200094044208526,-0.0032145865261554,1.3151628971099854
2480418898.0,-0.753122866153717,0.5951090455055237,10.0321626663208,-0.1130996495485305,-0.291221022605896,1.2164711952209473
2480427231.0,-0.6560086607933044,0.5346037149429321,10.195290565490724,-0.1162245944142341,-0.500976026058197,1.2603228092193604
2480435564.0,-0.6189998388290405,0.5016143321990967,10.182093620300291,-0.0401759259402751,-0.6740513443946838,1.261577844619751
2480443897.0,-0.6171687841415405,0.5598462224006653,10.118590354919434,-0.1243699118494987,-0.5797653794288635,1.3312996625900269
2480452230.0,-0.6770452260971069,0.6384556293487549,10.182815551757812,-0.1917353421449661,-0.1203484684228897,1.34856379032135
2480460563.0,-0.7609695196151733,0.581712007522583,10.270123481750488,-0.1505988836288452,0.4177937507629394,1.2860394716262815
2480468896.0,-0.7697532773017883,0.3971545994281769,10.207321166992188,-0.3735963702201843,0.4987091422080993,1.2357330322265625
2480477229.0,-0.7844880223274231,0.358679324388504,9.9734525680542,-0.3259539604187011,0.3902328610420227,1.3255878686904907
2480485562.0,-0.7972773313522339,0.5651962161064148,9.97601318359375,-0.0892271846532821,-0.1418132036924362,1.197465419769287
2480493895.0,-0.7916337251663208,0.6859790682792664,10.170734405517578,0.2091914564371109,-0.4480058252811432,1.3035597801208496
2480502228.0,-0.7425294518470764,0.5670702457427979,10.298298835754396,-0.2125597149133682,-0.729659914970398,1.3467708826065063
2480510561.0,-0.6538625955581665,0.3582219183444977,10.180806159973145,-0.6416493654251099,-0.7171601057052612,1.3701822757720947
2480518894.0,-0.6760293245315552,0.3887429237365722,10.030102729797363,-0.6096571683883667,-0.3735451698303222,1.257658839225769
2480527227.0,-0.779459536075592,0.5364774465560913,10.153396606445312,-0.0634080320596695,-0.0341565832495689,1.17133891582489
2480535560.0,-0.8072484135627747,0.5580075979232788,10.307296752929688,0.1286090761423111,0.4037571549415588,1.2356048822402954
2480543893.0,-0.7513989806175232,0.4470885992050171,10.23983097076416,-0.1317468136548996,0.4362103641033172,1.2622950077056885
2480552226.0,-0.778379499912262,0.4388841390609741,10.02171230316162,-0.5256425142288208,0.084578201174736,1.264062523841858
2480560559.0,-0.8658087253570557,0.5254907608032227,9.981026649475098,-0.3982629179954529,-0.2893511950969696,1.314445734024048
2480568892.0,-0.831346333026886,0.5414350032806396,10.140020370483398,-0.1454760581254959,-0.4747726917266845,1.3481029272079468
2480577225.0,-0.6956926584243774,0.4468166530132293,10.268985748291016,-0.033388152718544,-0.6053028106689453,1.3217968940734863
2480585558.0,-0.6117182970046997,0.4503644406795501,10.187278747558594,-0.2871995866298675,-0.7704121470451355,1.1995145082473757
2480593891.0,-0.653233528137207,0.5857461094856262,10.176486015319824,-0.398647129535675,-0.6108867526054382,1.1641414165496826
2480602224.0,-0.7006353735923767,0.6510301828384399,10.283492088317873,-0.1957824081182479,-0.047040544450283,1.1571232080459597
2480610557.0,-0.7074306011199951,0.477059006690979,10.336502075195312,-0.2891975045204162,0.2205897867679596,1.2537144422531128
2480618890.0,-0.7163858413696289,0.3090957999229431,10.179081916809082,-0.4940856993198395,0.387235939502716,1.1491057872772217
2480627223.0,-0.7664626836776733,0.3676489889621734,9.974217414855955,-0.463989108800888,-0.0004482491349335,1.2272804975509644
2480635556.0,-0.8212250471115112,0.6047871708869934,10.09117317199707,0.0267156474292278,-0.2045680731534958,1.2366297245025637
2480643889.0,-0.7636661529541016,0.6708651185035706,10.21996784210205,0.2176697552204132,-0.3945488631725311,1.282351016998291
2480652222.0,-0.6664804220199585,0.5031023621559143,10.26589584350586,-0.3208054602146148,-0.6816331744194031,1.3002551794052124
2480660555.0,-0.6202587485313416,0.3154475390911102,10.109241485595703,-0.6553017497062683,-0.665854811668396,1.0836101770401
2480668888.0,-0.6804141998291016,0.4270247220993042,10.009195327758787,-0.5338134169578552,-0.426438570022583,1.1876295804977417
2480677221.0,-0.7037824988365173,0.5922554135322571,10.258435249328612,-0.0029328300151973,-0.035488523542881,1.1912667751312256
2480685554.0,-0.6709726452827454,0.5391096472740173,10.386114120483398,0.1068881973624229,0.161830723285675,1.278278350830078
2480693887.0,-0.6585336327552795,0.4075117707252502,10.225289344787598,-0.3926021456718445,0.2477920949459076,1.2549437284469604
2480702220.0,-0.7707831859588623,0.4055518805980682,9.987135887145996,-0.6456708908081055,0.0991527065634727,1.135888934135437
2480710553.0,-0.8144227266311646,0.5442884564399719,9.99561882019043,-0.1387907266616821,-0.0716045871376991,1.26444673538208
2480718886.0,-0.7339888215065002,0.5215851068496704,10.163152694702148,0.1185426712036132,-0.3111232817173004,1.307119846343994
2480727219.0,-0.6435126662254333,0.3744155764579773,10.147595405578612,-0.1031613275408744,-0.5990785956382751,1.1818665266036987
2480735552.0,-0.615795373916626,0.4119250774383545,10.06658172607422,-0.4153220057487488,-0.7415192723274231,1.2987953424453735
2480743885.0,-0.6905140280723572,0.529303252696991,10.098104476928713,-0.263890653848648,-0.390834778547287,1.2375516891479492
2480752218.0,-0.6946983933448792,0.5632792115211487,10.28969383239746,-0.0605392344295978,-0.0053405673243105,1.231583595275879
2480760551.0,-0.6926240921020508,0.3728705644607544,10.274250984191896,-0.2446031421422958,0.1587058007717132,1.424381971359253
2480768884.0,-0.7228233814239502,0.280806303024292,10.063005447387695,-0.381050169467926,0.1638286560773849,1.3032267093658447
2480777217.0,-0.7726930379867554,0.4797054231166839,10.009710311889648,-0.184973195195198,-0.0039830137975513,1.2543803453445437
2480785550.0,-0.7735944986343384,0.6697422862052917,10.131772994995115,0.3154905140399933,-0.1836924850940704,1.3090922832489014
2480793883.0,-0.7005780339241028,0.5822700262069702,10.241905212402344,0.0612948648631572,-0.4182932674884796,1.2974379062652588
2480802216.0,-0.6426041126251221,0.3479861319065094,10.172164916992188,-0.5212112665176392,-0.6284836530685425,1.2469520568847656
2480810549.0,-0.6806788444519043,0.3358474373817444,10.082554817199709,-0.5613231062889099,-0.5174715518951416,1.332810878753662
2480818882.0,-0.7560983896255493,0.5263491272926331,10.112825393676758,-0.0480907298624515,-0.2185534536838531,1.2931859493255615
2480827215.0,-0.7316998839378357,0.6218754053115845,10.331029891967772,0.2972531914710998,0.3239432275295257,1.3168532848358154
2480835548.0,-0.696078896522522,0.4994901716709137,10.341437339782717,-0.0278810951858758,0.1450534164905548,1.2609375715255735
2480843881.0,-0.7451187968254089,0.4189634621143341,10.07442855834961,-0.4188567698001861,0.0816581845283508,1.277151346206665
2480852214.0,-0.8039150834083557,0.4920227825641632,9.958423614501951,-0.4400653839111328,-0.2750584781169891,1.330838918685913
2480860547.0,-0.7882575392723083,0.550597071647644,10.102869033813477,-0.0492945909500122,-0.4356084764003753,1.239626407623291
2480868880.0,-0.6757218241691589,0.4461580812931061,10.205819129943848,0.0243335254490375,-0.5408830046653748,1.1680347919464111
2480877213.0,-0.6113033890724182,0.3823766708374023,10.161235809326172,-0.2250850647687912,-0.8418245911598206,1.2360917329788208
2480885546.0,-0.6594563722610474,0.5394888520240784,10.140128135681152,-0.322265475988388,-0.6804805397987366,1.295132398605347
2480893879.0,-0.7290105819702148,0.6411092877388,10.250066757202148,-0.1085915341973304,-0.0122564109042286,1.2143195867538452
2480902212.0,-0.7060213685035706,0.4740477502346039,10.31354808807373,-0.104621335864067,0.3205877542495727,1.2586323022842407
2480910545.0,-0.7057567238807678,0.2894183397293091,10.189675331115724,-0.2798739075660705,0.32530078291893,1.2048423290252686
2480918878.0,-0.7343466281890869,0.3791292905807495,9.987822532653809,-0.2692184150218963,0.1673634052276611,1.275025486946106
2480927211.0,-0.7691024541854858,0.6564022898674011,10.039072036743164,0.1005358695983886,-0.2887108325958252,1.2805836200714111
2480935544.0,-0.7132101655006409,0.6995269060134888,10.232535362243652,0.2963311076164245,-0.5839661955833435,1.2803531885147097
2480943877.0,-0.6128341555595398,0.454970508813858,10.276124954223633,-0.2717029750347137,-0.6934413909912109,1.2961314916610718
2480952210.0,-0.6262456774711609,0.3458685576915741,10.128275871276855,-0.614575207233429,-0.6862950325012207,1.350894808769226
2480960543.0,-0.7202697992324829,0.4906778633594513,10.045639038085938,-0.2932957708835602,-0.2267244011163711,1.3055061101913452
2480968876.0,-0.7468068599700928,0.6546782851219177,10.27608871459961,0.2216655761003494,0.3931784629821777,1.2122703790664673
2480977209.0,-0.7115076184272766,0.5882211923599243,10.315987586975098,0.194309577345848,0.3828046917915344,1.3006651401519775
2480985542.0,-0.7407698631286621,0.4760288596153259,10.188281059265137,-0.3594061434268951,0.1461292058229446,1.353584051132202
2480993875.0,-0.8133999705314636,0.5424071550369263,9.988523483276367,-0.4609409272670746,-0.0067237364128232,1.3081445693969729
2481002208.0,-0.8293650150299072,0.618456244468689,10.05886459350586,-0.2218064665794372,-0.2246496528387069,1.2017430067062378
2481010541.0,-0.7381590008735657,0.539259672164917,10.20566177368164,-0.0095669161528348,-0.5373226404190063,1.3111414909362793
2481018874.0,-0.6416958570480347,0.4337126314640045,10.167323112487791,-0.1629449427127838,-0.7774559855461121,1.2668031454086304
2481027207.0,-0.6346718072891235,0.5044538974761963,10.10213851928711,-0.2418880313634872,-0.6690309643745422,1.2473618984222412
2481035540.0,-0.6887829899787903,0.6873522400856018,10.182236671447754,-0.1564389318227768,-0.3145043849945068,1.3082983493804932
2481043873.0,-0.675071120262146,0.60776287317276,10.30013656616211,-0.1967557519674301,0.192362904548645,1.2133463621139526
2481052206.0,-0.7291750907897949,0.3682354986667633,10.173188209533691,-0.337070494890213,0.333855926990509,1.2103238105773926
2481060539.0,-0.7669278383255005,0.3463907241821289,10.026361465454102,-0.3992106318473816,0.2441549003124237,1.183070182800293
2481068872.0,-0.8179562091827393,0.5682790875434875,10.01182746887207,-0.0636897906661033,-0.0180708412081003,1.2454921007156372
2481077205.0,-0.7937653064727783,0.7001989483833313,10.165284156799316,0.1889305859804153,-0.4549728333950043,1.2364758253097534
2481085538.0,-0.6967369914054871,0.5500898361206055,10.252792358398438,-0.1637646108865738,-0.7212584614753723,1.309041142463684
2481093871.0,-0.6065539121627808,0.3378073275089264,10.132845878601074,-0.7045323252677917,-0.9219714999198914,1.174002766609192
2481102204.0,-0.6501504778862,0.3821549415588379,10.030509948730469,-0.6065322756767273,-0.7275851368904114,1.2315579652786257
2481110537.0,-0.6947270035743713,0.5598744750022888,10.172236442565918,-0.0415334850549697,-0.1663772612810135,1.2562501430511477
2481118870.0,-0.682645857334137,0.5902668833732605,10.364269256591797,0.2118553221225738,0.2715877294540405,1.38708758354187
2481127203.0,-0.7021158933639526,0.4625314474105835,10.294135093688965,-0.11878602206707,0.372174859046936,1.3600391149520874
2481135536.0,-0.7759761810302734,0.4394778311252594,10.057405471801758,-0.5308421850204468,0.1794277280569076,1.2958498001098633
2481143869.0,-0.8489924073219299,0.5712117552757263,9.981341361999512,-0.4148097336292267,-0.0884075313806533,1.2750509977340698
2481152202.0,-0.8088935613632202,0.5556900501251221,10.148067474365234,-0.1002157032489776,-0.3339199721813202,1.2274086475372314
2481160535.0,-0.7538238167762756,0.4421172142028808,10.174890518188477,-0.0408162772655487,-0.666879415512085,1.2050217390060425
2481168868.0,-0.6834685802459717,0.5024726390838623,10.11943531036377,-0.3794877231121063,-0.7582709789276123,1.16301429271698
2481177201.0,-0.6962506175041199,0.7458767294883728,10.10186767578125,-0.1956543326377868,-0.702073335647583,1.22996985912323
2481185534.0,-0.747786819934845,0.757607638835907,10.35006332397461,-0.0951440632343292,-0.0750368982553482,1.237654209136963
2481193867.0,-0.7450904846191406,0.5008922219276428,10.402144432067873,-0.545647144317627,0.2458454072475433,1.1978751420974731
2481202200.0,-0.7088753581047058,0.3030802607536316,10.08082389831543,-0.7249724268913269,0.2401846796274185,1.2112716436386108
2481210533.0,-0.73060542345047,0.3995291888713836,9.906187057495115,-0.4194202721118927,0.0758949741721153,1.2205182313919067
2481218866.0,-0.785975992679596,0.684849202632904,10.093234062194824,0.0455933362245559,-0.2161969393491745,1.0992093086242676
2481227199.0,-0.6691412925720215,0.5950450301170349,10.251705169677734,0.0914428159594535,-0.4785122871398926,1.1769996881484983
2481235532.0,-0.6265532970428467,0.3904951512813568,10.226512908935549,-0.5333011746406555,-0.7867540121078491,1.180867314338684
2481243865.0,-0.6354687809944153,0.3514175415039062,10.128059387207031,-0.8916186690330505,-0.6876525282859802,1.2849379777908323
2481252198.0,-0.7017871141433716,0.4859425127506256,10.04789924621582,-0.4314077496528625,-0.3287971317768097,1.206404685974121
2481260531.0,-0.6423681974411011,0.487909734249115,10.250925064086914,0.1689514815807342,0.1494334489107132,1.200103759765625
2481268864.0,-0.6354729533195496,0.3636219501495361,10.288684844970703,-0.013229751959443,0.0435954220592975,1.3502031564712524
2481277197.0,-0.6572316884994507,0.3629710674285888,10.07442855834961,-0.5772039890289307,0.0002305281086592,1.3024837970733645
2481285530.0,-0.7610911130905151,0.4898624420166015,10.011813163757324,-0.5231578946113586,-0.1685800850391388,1.323103427886963
2481293863.0,-0.7673856616020203,0.5554971098899841,10.145570755004885,-0.1323359459638595,-0.2274159789085388,1.3214383125305176
2481302196.0,-0.6601787805557251,0.4050798118114471,10.204231262207031,-0.0836176648736,-0.386736512184143,1.2913672924041748
2481310529.0,-0.6340351104736328,0.3694231212139129,10.153525352478027,-0.3008008003234863,-0.4706231355667114,1.2988210916519165
2481318862.0,-0.6586981415748596,0.5290170907974243,10.06430721282959,-0.2594081461429596,-0.5251814723014832,1.3376264572143557
2481327195.0,-0.7099697589874268,0.568343460559845,10.252012252807615,-0.1865100562572479,-0.2087944597005844,1.320593237876892
2481335528.0,-0.7131813764572144,0.4740975797176361,10.24797821044922,-0.2264682352542877,0.2194371521472931,1.2257434129714966
2481343861.0,-0.7381805181503296,0.3446454405784607,10.146028518676758,-0.3744416534900665,0.1887000650167465,1.1971837282180786
2481352194.0,-0.7715557217597961,0.4540696144104004,10.012134552001951,-0.303592711687088,0.1619075685739517,1.2022039890289309
2481360527.0,-0.8057677745819092,0.6551217436790466,10.108619689941406,-0.0413541793823242,-0.1313882172107696,1.239626407623291
2481368860.0,-0.7183670997619629,0.6093003749847412,10.225597381591797,-0.0015240469947457,-0.3801280260086059,1.273693323135376
2481377193.0,-0.6465240120887756,0.439728170633316,10.17270851135254,-0.3221886754035949,-0.605968713760376,1.2215173244476318
2481385526.0,-0.6296719312667847,0.3324784338474273,10.060280799865724,-0.6085301637649536,-0.7798638343811035,1.2047654390335083
2481393859.0,-0.7273581027984619,0.5001486539840698,10.140957832336426,-0.3265942931175232,-0.4193178117275238,1.1664209365844729
2481402192.0,-0.7568637728691101,0.5456259846687317,10.344720840454102,0.0235907118767499,0.100945696234703,1.175770282745361
2481410525.0,-0.7539024949073792,0.518044650554657,10.326695442199709,-0.1083866357803344,0.5097488760948181,1.2213377952575684
2481418858.0,-0.7592025995254517,0.4425748586654663,10.13645076751709,-0.3642216026782989,0.3834963142871856,1.209324836730957
2481427191.0,-0.7838296890258789,0.4663939476013183,9.973366737365724,-0.5111704468727112,0.1037120297551155,1.1782034635543823
2481435524.0,-0.8025491237640381,0.5214633345603943,10.038636207580566,-0.3059236109256744,-0.378949761390686,1.1250540018081665
2481443857.0,-0.7120296955108643,0.369766503572464,10.194438934326172,-0.2133025228977203,-0.5426759719848633,1.2783294916152954
2481452190.0,-0.6081346869468689,0.3206691145896911,10.125843048095703,-0.2310019582509994,-0.8235361576080322,1.228817343711853
2481460523.0,-0.6156666278839111,0.4307084381580353,10.130764961242676,-0.1722429245710373,-0.8685916066169739,1.3056856393814087
2481468856.0,-0.7101127505302429,0.5948587656021118,10.235116958618164,-0.0678905323147773,-0.3881453275680542,1.2892158031463623
2481477189.0,-0.744367778301239,0.5158201456069946,10.352166175842283,-0.1624839007854461,0.2289144098758697,1.3037389516830444
2481485522.0,-0.7399687767028809,0.2836960554122925,10.241741180419922,-0.5047157406806946,0.455856591463089,1.2694159746170044
2481493855.0,-0.7635015845298767,0.3179224133491516,9.963560104370115,-0.4140669107437134,0.3004549443721771,1.2927759885787964
2481502188.0,-0.8545858860015869,0.5380940437316895,9.977049827575684,0.0296356678009033,-0.168861836194992,1.3892393112182615
2481510521.0,-0.8017836213111877,0.6803855895996094,10.146872520446776,0.3139280676841736,-0.2771844267845154,1.2605019807815552
2481518854.0,-0.6891263723373413,0.5776707530021667,10.264937400817873,-0.0028047584928572,-0.7111663818359375,1.317135214805603
2481527187.0,-0.6740574240684509,0.4436950981616974,10.183606147766112,-0.5587105751037598,-0.9071922302246094,1.3020485639572144
2481535520.0,-0.7070227861404419,0.5804889798164368,10.038084983825684,-0.5896268486976624,-0.6657522916793823,1.221491456031799
2481543853.0,-0.7230308055877686,0.7071658372879028,10.198466300964355,-0.0466307140886783,-0.1434012949466705,1.278329610824585
2481552186.0,-0.7214142680168152,0.6930961608886719,10.389654159545898,0.159269317984581,0.2265579104423523,1.2458508014678955
2481560519.0,-0.7316642999649048,0.5665265917778015,10.277913093566896,-0.2079747766256332,0.3761450350284576,1.2726175785064695
2481568852.0,-0.777320921421051,0.5240458846092224,10.01470947265625,-0.704967737197876,0.0937224850058555,1.2319167852401731
2481577185.0,-0.8359313011169434,0.5940436124801636,9.94646453857422,-0.3922179341316223,-0.184717059135437,1.2703123092651367
2481585518.0,-0.7430588006973267,0.5386019349098206,10.110593795776367,-0.127341166138649,-0.5157554149627686,1.222055196762085
2481593851.0,-0.6482980251312256,0.4268741905689239,10.143203735351562,-0.3027218282222748,-0.8652359843254089,1.1534857749938965
2481602184.0,-0.586039662361145,0.4219315648078918,10.099958419799805,-0.3325367569923401,-0.8944617509841919,1.1253101825714111
2481610517.0,-0.6320251822471619,0.5982280373573303,10.19253635406494,-0.3243402242660522,-0.4094563722610473,1.2325314283370972
