SampleTimeFine,Acc_X,Acc_Y,Acc_Z,Gyr_X,Gyr_Y,Gyr_Z
3827637442.0,0.0,0.0,0.0,0.0,0.0,0.0
3827645775.0,-0.567428708076477,0.1743156909942627,9.967894554138184,1.8003219366073608,0.1608829945325851,1.1871429681777954
3827654108.0,-0.6415262818336487,0.323565125465393,10.12962532043457,2.0783133506774902,0.5161012411117554,1.2341961860656738
3827662441.0,-0.5914574265480042,0.1994249373674392,9.9052095413208,2.244626760482788,0.7866387367248535,1.0895271301269531
3827670774.0,-0.5802133679389954,0.006163933314383,9.694268226623535,2.016967296600342,0.7317474484443665,1.1890383958816528
3827679107.0,-0.6327915787696838,0.1030861288309097,9.884546279907228,1.9402271509170528,0.5105941295623779,1.1778192520141602
3827687440.0,-0.6742236018180847,0.3763559460639953,10.082382202148438,2.244114398956299,0.3318068087100982,1.2523822784423828
3827695773.0,-0.6258473992347717,0.4005221128463745,9.881875038146973,2.344496726989746,0.2647231221199035,1.2126290798187256
3827704106.0,-0.5328073501586914,0.1282266229391098,9.640451431274414,1.9707591533660889,0.2273263335227966,1.1846327781677246
3827712439.0,-0.5152567028999329,-0.0101141911000013,9.820465087890623,1.6862618923187256,0.2308354824781417,1.1327896118164062
3827720772.0,-0.5776548385620117,0.2283025681972503,10.14555835723877,2.000804662704468,0.264005959033966,1.1374257802963257
3827729105.0,-0.6168981194496155,0.4313562512397766,10.129322052001951,2.3420121669769287,0.589152991771698,1.185990333557129
3827737438.0,-0.5791264772415161,0.2822233438491821,9.81842041015625,2.2066662311553955,0.6392545104026794,1.3036620616912842
3827745771.0,-0.5984632968902588,0.0357269383966922,9.671905517578123,1.7198164463043213,0.8236256837844849,1.0960074663162231
3827754104.0,-0.6899347305297852,0.1099140346050262,9.941603660583496,1.7375671863555908,0.776674747467041,1.148695945739746
3827762437.0,-0.7068206071853638,0.3137158751487732,10.128503799438477,2.1004185676574707,0.6057766675949097,1.171082854270935
3827770770.0,-0.6188885569572449,0.3093014657497406,9.835881233215332,2.4744632244110107,0.306013286113739,1.2355793714523315
3827779103.0,-0.5152760744094849,0.0862302109599113,9.59805393218994,2.010819911956787,0.1183121502399444,1.1673686504364014
3827787436.0,-0.5467109680175781,0.0608917437493801,9.76586627960205,1.693254470825195,0.1389828324317932,1.1393465995788574
3827795769.0,-0.5963683724403381,0.292640209197998,10.167801856994627,1.902804493904113,0.2590623497962951,1.1058176755905151
3827804102.0,-0.6442798376083374,0.2884481549263,10.046502113342283,2.330485820770264,0.5689433217048645,1.1701607704162598
3827812435.0,-0.6010683178901672,0.0872640460729599,9.813149452209473,2.1215503215789795,0.8496754765510559,1.1889359951019287
3827820768.0,-0.6342427730560303,-0.0065721990540623,9.768350601196287,1.927419900894165,0.7923763990402222,1.1585575342178345
3827829101.0,-0.694496214389801,0.2223330289125442,10.012995719909668,2.046193122863769,0.6911233067512512,1.2270500659942627
3827837434.0,-0.6822454333305359,0.4090064465999603,9.932043075561523,2.38289213180542,0.4087007343769073,1.1236196756362915
3827845767.0,-0.6095191836357117,0.2389150559902191,9.642937660217283,2.2676026821136475,0.1426713019609451,1.18017578125
3827854100.0,-0.5422481894493103,-0.03947364538908,9.626614570617676,1.890637755393982,0.224867358803749,1.1351460218429563
3827862433.0,-0.5869798064231873,0.0765970051288604,10.045487403869627,1.7424085140228271,0.3085747063159942,1.116934299468994
3827870766.0,-0.6548972725868225,0.3660942316055298,10.248485565185549,2.263543128967285,0.518316924571991,1.0988892316818235
3827879099.0,-0.6251315474510193,0.3997745215892792,9.932456016540527,2.3925869464874268,0.7155464291572571,1.212821125984192
3827887432.0,-0.6206054091453552,0.1148343756794929,9.618999481201172,1.969427227973938,0.7246522307395935,1.0434726476669312
3827895765.0,-0.6415687203407288,0.0120193623006343,9.775944709777832,1.6864668130874634,0.679724931716919,1.2201083898544312
3827904098.0,-0.6783427000045776,0.2446555495262146,10.04300594329834,1.8753973245620728,0.5748347043991089,1.2330949306488037
3827912431.0,-0.64532870054245,0.3670780658721924,9.961020469665527,2.2963929176330566,0.3317811787128448,1.1278460025787354
3827920764.0,-0.538572371006012,0.1941156387329101,9.696647644042969,2.2103805541992188,0.1110377162694931,1.148158073425293
3827929097.0,-0.5104584097862244,0.0510984696447849,9.728337287902832,1.811156988143921,0.0095284963026642,1.1671638488769531
3827937430.0,-0.58091139793396,0.217687651515007,10.089605331420898,1.7290632724761963,0.2384685277938842,1.277612566947937
3827945763.0,-0.6188898086547852,0.3345321416854858,10.1386079788208,2.0831544399261475,0.526167631149292,1.2487196922302246
3827954096.0,-0.6249953508377075,0.1857069730758667,9.810378074645996,2.2035927772521973,0.7956806421279907,1.221747875213623
3827962429.0,-0.6032166481018066,-0.013780178502202,9.70617389678955,1.996399164199829,0.7310558557510376,1.307581067085266
3827970762.0,-0.6519500613212585,0.1292510628700256,9.916807174682615,1.9154324531555176,0.5400505065917969,1.2224392890930176
3827979095.0,-0.6632802486419678,0.4033577442169189,10.069185256958008,2.2597644329071045,0.2169781774282455,1.2202109098434448
3827987428.0,-0.6050387024879456,0.3492774367332458,9.860556602478027,2.35889196395874,0.0903157889842987,1.125335931777954
3827995761.0,-0.5356908440589905,0.0675188899040222,9.64189338684082,2.005389928817749,0.0180324222892522,1.166779637336731
3828004094.0,-0.548112154006958,0.020077945664525,9.859334945678713,1.779664158821106,0.1013170927762985,1.281031847000122
3828012427.0,-0.6016613841056824,0.2872584462165832,10.216371536254885,1.901639103889465,0.2486245781183242,1.235745906829834
3828020760.0,-0.6233837008476257,0.428405612707138,10.104732513427734,2.452665567398072,0.3420781195163727,1.2373980283737185
3828029093.0,-0.6047999262809753,0.2018446922302246,9.724863052368164,2.184535503387451,0.5630007982254028,1.1538699865341189
3828037426.0,-0.6243124604225159,0.0151631506159901,9.663817405700684,1.7172038555145264,0.5442768931388855,1.2420085668563845
3828045759.0,-0.6880791783332825,0.1369702219963073,9.963274002075195,1.5948446989059448,0.5631289482116699,1.2229516506195068
3828054092.0,-0.687792181968689,0.3385610282421112,10.020922660827637,2.1842281818389893,0.276710569858551,1.2084283828735352
3828062425.0,-0.6147274374961853,0.2500739693641662,9.770984649658203,2.411529064178467,0.0110909640789031,1.0681648254394531
3828070758.0,-0.5347681641578674,0.0399834662675857,9.602238655090332,1.9454522132873533,-0.2465754151344299,1.2177517414093018
3828079091.0,-0.5647075176239014,0.0671427547931671,9.862564086914062,1.6229690313339231,-0.2421953827142715,1.2999992370605469
3828087424.0,-0.6624113321304321,0.2748903036117553,10.105952262878418,1.938510775566101,0.0071975993923842,1.228971004486084
3828095757.0,-0.6507757306098938,0.2549151182174682,9.963342666625977,2.361734867095948,0.2985595166683197,1.2116045951843262
3828104090.0,-0.6307026147842407,0.0274274870753288,9.713459968566896,2.1342549324035645,0.4440739750862121,1.2327362298965454
3828112423.0,-0.6434338092803955,-0.0185473952442407,9.77337646484375,1.8608485460281368,0.4250425994396209,1.2502562999725342
3828120756.0,-0.6749294400215149,0.2705408930778503,10.02955436706543,2.035742282867432,0.0260240603238344,1.256813645362854
3828129089.0,-0.6633390188217163,0.3759604692459106,9.947837829589844,2.3452394008636475,-0.0548016615211963,1.2017687559127808
3828137422.0,-0.5651054382324219,0.1534136682748794,9.658379554748535,2.234457969665528,-0.2754938900470733,1.2447237968444824
3828145755.0,-0.489595353603363,-0.01634331792593,9.677480697631836,1.7358509302139282,-0.2179130911827087,1.1483885049819946
3828154088.0,-0.5915985703468323,0.1535422652959823,10.055930137634276,1.7107490301132202,-0.2688342034816742,1.2799946069717407
3828162421.0,-0.6041229963302612,0.3884717226028442,10.193367958068848,2.0923502445220947,-0.0324660427868366,1.224206805229187
3828170754.0,-0.583869993686676,0.3205527663230896,9.948201179504396,2.2961878776550293,0.1736388802528381,1.1594282388687134
3828179087.0,-0.5580788850784302,0.0892077833414077,9.710653305053713,1.9245511293411253,0.2848559021949768,1.2836061716079712
3828187420.0,-0.6384298801422119,0.0863783806562423,9.887712478637695,1.6034767627716064,0.3425903618335724,1.2046630382537842
3828195753.0,-0.6865027546882629,0.2888586819171905,10.09312915802002,1.8659714460372925,0.1909028887748718,1.2826073169708252
3828204086.0,-0.6054352521896362,0.3336814045906067,9.968209266662598,2.369009494781494,-0.0765481442213058,1.222797989845276
3828212419.0,-0.4881598651409149,0.1825722754001617,9.706027030944824,2.126903533935547,-0.2940898239612579,1.2081210613250732
3828220752.0,-0.4873966574668884,0.1353551298379898,9.810847282409668,1.6825478076934814,-0.4845572710037231,1.191753387451172
3828229085.0,-0.554918110370636,0.2721076607704162,10.076822280883787,1.600582480430603,-0.3412712514400482,1.253202199935913
3828237418.0,-0.5758224129676819,0.3319588601589203,10.16017723083496,1.9809921979904173,0.142248660326004,1.1477612257003784
3828245751.0,-0.5623145699501038,0.1987015008926391,9.932673454284668,2.2717652320861816,0.4113005697727203,1.0798577070236206
3828254084.0,-0.541843056678772,0.0613640844821929,9.887163162231444,1.9513946771621704,0.6348744034767151,1.265087008476257
3828262417.0,-0.6233087778091431,0.2533392012119293,9.943706512451172,1.807340383529663,0.6218880414962769,1.1632704734802246
3828270750.0,-0.6386375427246094,0.4458725750446319,10.010331153869627,2.1556429862976074,0.4624650776386261,1.2442883253097534
3828279083.0,-0.5724697113037109,0.3585991561412811,9.788860321044922,2.3250555992126465,0.1512520611286163,1.180893063545227
3828287416.0,-0.513380765914917,0.0873781964182853,9.65715217590332,1.822375774383545,0.0770219936966896,1.1526662111282349
3828295749.0,-0.5369038581848145,0.0647284239530563,9.853983879089355,1.6412063837051392,-0.0386646836996078,1.18194317817688
3828304082.0,-0.5884449481964111,0.3250081539154053,10.165407180786133,1.9521377086639404,0.0341950021684169,1.2790212631225586
3828312415.0,-0.5745095014572144,0.3923816978931427,10.078939437866213,2.359737157821656,0.4189208447933197,1.1907801628112793
3828320748.0,-0.5996695756912231,0.2194484770298004,9.790060997009276,1.9725010395050049,0.6691974997520447,1.300562858581543
3828329081.0,-0.6164600253105164,0.0531696639955043,9.729650497436523,1.6563187837600708,0.896242082118988,1.168956637382507
3828337414.0,-0.6975787878036499,0.1969247013330459,9.928425788879396,1.6192549467086792,0.9377883076667786,1.2476437091827393
3828345747.0,-0.6762488484382629,0.3396274447441101,9.947495460510254,2.1469337940216064,0.5937379598617554,1.2719773054122925
3828354080.0,-0.5893791913986206,0.2367554306983947,9.662641525268556,2.3924977779388428,0.2618030905723572,1.1871174573898315
3828362413.0,-0.5181243419647217,0.0745090022683143,9.658354759216309,2.0539798736572266,0.051971286535263,1.1922401189804075
3828370746.0,-0.5625184774398804,0.1252835988998413,9.88429355621338,1.7722744941711426,0.0214134994894266,1.292699098587036
3828379079.0,-0.628489077091217,0.2767308354377746,10.14165210723877,1.933772087097168,0.3357257544994354,1.235041618347168
3828387412.0,-0.6086198687553406,0.2317445576190948,9.947554588317873,2.2064359188079834,0.6183276176452637,1.1730551719665527
3828395745.0,-0.569628119468689,0.024822425097227,9.754557609558104,2.0320541858673096,0.851237952709198,1.2958754301071167
3828404078.0,-0.6280828714370728,-0.0059759635478258,9.826086044311523,1.815741777420044,0.8729844093322754,1.2668545246124268
3828412411.0,-0.682386040687561,0.2420419156551361,9.975420951843262,1.9851927757263184,0.6939280033111572,1.3444271087646484
3828420744.0,-0.6508784890174866,0.3481320142745971,9.945911407470703,2.3723647594451904,0.3567294776439667,1.2111947536468506
3828429077.0,-0.5535979270935059,0.1191207095980644,9.688261985778809,2.2505438327789307,0.1497920453548431,1.208889365196228
3828437410.0,-0.5203815698623657,-0.0578342005610466,9.742743492126465,1.7567009925842283,0.2134434133768081,1.2164969444274902
3828445743.0,-0.5266390442848206,0.1265172958374023,10.114818572998049,1.81026029586792,0.2680529654026031,1.2650102376937866
3828454076.0,-0.575709342956543,0.3401013612747192,10.241223335266112,2.374823808670044,0.4648470878601074,1.2283562421798706
3828462409.0,-0.5784054398536682,0.2525513470172882,9.891005516052246,2.486245632171631,0.6900475025177002,1.0978260040283203
3828470742.0,-0.5690948367118835,-0.0024289803113788,9.70189094543457,1.8457874059677124,0.948699951171875,1.1149619817733765
3828479075.0,-0.6610395312309265,0.0142976809293031,9.89237117767334,1.670970439910889,0.9182191491127014,1.1377588510513306
3828487408.0,-0.6782203912734985,0.2356738597154617,10.111835479736328,2.183024644851685,0.6848734021186829,1.1876040697097778
3828495741.0,-0.6053488850593567,0.3066176176071167,9.915033340454102,2.577637195587158,0.3462532162666321,1.1802270412445068
3828504074.0,-0.5061008930206299,0.1227498576045036,9.59689998626709,2.227413892745972,0.015675913542509,1.050029993057251
3828512407.0,-0.4934198260307312,0.0367002077400684,9.73560905456543,1.7787292003631592,-0.0335162244737148,1.17251718044281
3828520740.0,-0.56293785572052,0.1994548887014389,10.140222549438477,1.892072081565857,0.1065039858222007,1.244236946105957
3828529073.0,-0.6202104091644287,0.3024728298187256,10.210298538208008,2.3594298362731934,0.4212261140346527,1.2159334421157837
3828537406.0,-0.5774905681610107,0.1533116698265075,9.911942481994627,2.4513845443725586,0.9471119046211244,1.219570517539978
3828545739.0,-0.5627764463424683,0.0464987941086292,9.726926803588867,2.1467676162719727,0.9743783473968506,1.14151132106781
3828554072.0,-0.6298373341560364,0.2253425270318985,9.919342041015623,2.02616286277771,0.7711421847343445,1.1237220764160156
3828562405.0,-0.6535431742668152,0.4381387233734131,10.004920959472656,2.376462936401367,0.440206229686737,1.139346718788147
3828570738.0,-0.5910080075263977,0.3259735703468323,9.722055435180664,2.3952383995056152,0.2207178622484207,1.1080461740493774
3828579071.0,-0.5056228637695312,0.0315921492874622,9.599090576171877,1.959873080253601,0.1635468602180481,1.2212867736816406
3828587404.0,-0.5264597535133362,0.065052606165409,9.934101104736328,1.80680251121521,0.155580848455429,1.1305867433547974
3828595737.0,-0.5877379179000854,0.3618252575397491,10.260058403015137,2.2723031044006348,0.4344558119773865,1.166894793510437
3828604070.0,-0.6020854115486145,0.4861577749252319,10.078448295593262,2.6288273334503174,0.7821434736251831,1.1036278009414673
3828612403.0,-0.5831770896911621,0.2498155683279037,9.62449073791504,2.217244863510132,1.1399102210998535,1.1272567510604858
3828620736.0,-0.6087634563446045,0.0709178894758224,9.643817901611328,1.6319597959518433,1.0879902839660645,1.1977216005325315
3828629069.0,-0.6610757112503052,0.2143779993057251,9.966922760009766,1.6807036399841309,0.7157641053199768,1.2246679067611694
3828637402.0,-0.632500946521759,0.3980289697647095,10.09404468536377,2.3770523071289062,0.4522961378097534,1.1686495542526243
3828645735.0,-0.5578039288520813,0.3084942400455475,9.775516510009766,2.424489974975586,0.1222567483782768,1.1743102073669434
3828654068.0,-0.4981755316257477,0.147323802113533,9.668431282043455,1.9769576787948608,0.0793529078364372,1.2379615306854248
3828662401.0,-0.5535582900047302,0.2114526033401489,9.956649780273438,1.6729681491851809,0.3408742547035217,1.2156002521514893
3828670734.0,-0.5988699793815613,0.3784229755401611,10.188233375549316,1.9486799240112305,0.7555942535400391,1.2215684652328491
3828679067.0,-0.5965976119041443,0.3018949031829834,9.978367805480955,2.317422389984131,1.1464933156967163,1.2404462099075315
3828687400.0,-0.5973255038261414,0.0724496990442276,9.66925811767578,2.150340795516968,1.1442391872406006,1.146237015724182
3828695733.0,-0.6258700489997864,0.0753594189882278,9.80232048034668,1.8492707014083865,0.8454234004020691,1.1668051481246948
3828704066.0,-0.67641681432724,0.3600259125232696,10.076603889465332,2.0828983783721924,0.5784718990325928,1.1328407526016235
3828712399.0,-0.6449394822120667,0.4221353232860565,9.954214096069336,2.2794363498687744,0.4018873572349548,1.1271544694900513
3828720732.0,-0.5437063574790955,0.1874612420797348,9.687058448791504,2.0923502445220947,0.2815260589122772,1.1784085035324097
3828729065.0,-0.4885481595993042,0.0108246132731437,9.724980354309082,1.6440495252609253,0.3386457860469818,1.155919075012207
3828737398.0,-0.5463529229164124,0.1900711357593536,10.08126735687256,1.7429461479187012,0.2203336358070373,1.1130921840667725
3828745731.0,-0.6109917759895325,0.3727648258209228,10.22026824951172,2.258227825164795,0.6231943368911743,1.2271780967712402
3828754064.0,-0.5687783360481262,0.2363303452730178,9.906617164611816,2.3669087886810303,0.83397376537323,1.1133482456207275
3828762397.0,-0.6013393402099609,0.0148309096693992,9.656676292419434,1.8194817304611208,0.8917339444160461,1.247003436088562
3828770730.0,-0.6518266201019287,0.0651136189699173,9.851905822753906,1.5111374855041504,0.8085902333259583,1.2867056131362915
3828779063.0,-0.6961817145347595,0.2795918583869934,10.029090881347656,1.9787254333496087,0.5685592293739319,1.23012375831604
3828787396.0,-0.61379075050354,0.2683375179767608,9.819890022277832,2.3561766147613525,0.1328610479831695,1.2539193630218506
3828795729.0,-0.5112058520317078,0.0710114017128944,9.610756874084473,2.034794807434082,-0.1923500895500183,1.1516159772872925
3828804062.0,-0.5130471587181091,0.0153998462483286,9.793903350830078,1.6242241859436035,-0.2123291790485382,1.22886860370636
3828812395.0,-0.6046767830848694,0.2209431082010269,10.143494606018066,1.8193280696868896,-0.0103353448212146,1.2780479192733765
3828820728.0,-0.6197954416275024,0.2656685709953308,10.130744934082031,2.203029155731201,0.5026537179946899,1.2317373752593994
3828829061.0,-0.5830602049827576,0.1054652705788612,9.81162166595459,2.1755197048187256,0.7622028589248657,1.24021577835083
3828837394.0,-0.6112884283065796,0.0060577346011996,9.718017578125,1.8807765245437624,0.8046199679374695,1.2491037845611572
3828845727.0,-0.6810405850410461,0.2011715620756149,9.948243141174316,1.8855661153793333,0.635463535785675,1.2002317905426023
3828854060.0,-0.6767947673797607,0.3264538049697876,9.94111156463623,2.217193841934204,0.3299882113933563,1.1683166027069092
3828862393.0,-0.5708041191101074,0.1997386962175369,9.675851821899414,2.2086644172668457,0.1570664942264557,1.126258134841919
3828870726.0,-0.5330800414085388,0.0106622315943241,9.640995025634766,1.912486672401428,-0.0436082333326339,1.1444439888000488
3828879059.0,-0.5613088607788086,0.1028915122151374,9.991421699523926,1.7538578510284424,0.0889326184988021,1.2240785360336304
3828887392.0,-0.6151708364486694,0.3342527151107788,10.205127716064451,2.1827683448791504,0.2940514385700226,1.1126312017440796
3828895725.0,-0.6007416844367981,0.3345347940921783,9.99872875213623,2.430380821228028,0.5197383761405945,1.2495392560958862
3828904058.0,-0.5570141077041626,0.134688913822174,9.720534324645996,2.03978967666626,0.606391429901123,1.1543054580688477
3828912391.0,-0.6175039410591125,0.0874787420034408,9.812703132629396,1.632548689842224,0.6049313545227051,1.2454153299331665
3828920724.0,-0.6448726058006287,0.2720561623573303,9.98786163330078,1.7964800596237185,0.4379265606403351,1.1115552186965942
3828929057.0,-0.5919769406318665,0.3150286078453064,9.990458488464355,2.249314069747925,0.003124936716631,1.127359390258789
3828937390.0,-0.5143248438835144,0.1831087470054626,9.778014183044434,2.2104570865631104,-0.1356401741504669,1.1765129566192627
3828945723.0,-0.4949592053890228,0.0886592492461204,9.758678436279297,1.683393120765686,-0.1027514934539794,1.1072008609771729
3828954056.0,-0.5582093596458435,0.1999477595090866,10.105405807495115,1.737259864807129,0.1461035907268524,1.2556352615356443
3828962389.0,-0.5869258642196655,0.2461384683847427,10.15073299407959,1.9400347471237185,0.5187779068946838,1.2030878067016602
3828970722.0,-0.6098339557647705,0.0968037322163581,9.891793251037598,2.2591757774353027,0.6988588571548462,1.1393468379974363
3828979055.0,-0.5511971712112427,-0.0035594045184552,9.775962829589844,2.053570032119751,0.8000349998474121,1.249180555343628
3828987388.0,-0.593917727470398,0.1839150041341781,9.94578456878662,2.038713932037353,0.606980562210083,1.139474868774414
3828995721.0,-0.5892757177352905,0.3674066364765167,10.035037994384766,2.209740161895752,0.3921027183532715,1.2329412698745728
3829004054.0,-0.5372686982154846,0.2817632853984833,9.802773475646973,2.2701895236968994,0.200303316116333,1.1245416402816772
3829012387.0,-0.4736567735671997,0.044337335973978,9.676599502563477,1.9028687477111816,0.0888941958546638,1.1584677696228027
3829020720.0,-0.5473594069480896,0.0775222107768058,9.908135414123535,1.80319082736969,0.313390165567398,1.1867330074310305
3829029053.0,-0.6333616375923157,0.304245263338089,10.165910720825195,2.1622257232666016,0.4738889932632446,1.2780479192733765
3829037386.0,-0.620593249797821,0.3843631744384765,9.969930648803713,2.3962886333465576,0.853466272354126,1.2740263938903809
3829045719.0,-0.5852483510971069,0.2157091200351715,9.690561294555664,2.0972681045532227,0.9751082062721252,1.2743338346481323
3829054052.0,-0.5934996604919434,0.1259868890047073,9.692879676818848,1.5611363649368286,0.766224205493927,1.2276901006698608
3829062385.0,-0.6569560170173645,0.2229726314544677,9.936184883117676,1.7079061269760132,0.5870527625083923,1.2374237775802612
3829070718.0,-0.6063808798789978,0.2889223098754883,9.962377548217772,2.0941686630249023,0.2083462029695511,1.2016149759292605
3829079051.0,-0.5099176168441772,0.2132204174995422,9.738158226013184,2.22408413887024,-0.0555188581347465,1.121596097946167
3829087384.0,-0.4558680355548858,0.1237813755869865,9.761335372924805,1.81343674659729,-0.1871504187583923,1.1268982887268066
3829095717.0,-0.5227194428443909,0.2052138447761535,10.008831977844238,1.707470417022705,0.1857544183731079,1.1617591381072998
3829104050.0,-0.6105085611343384,0.2771748304367065,10.108952522277832,1.9880999326705933,0.6451712846755981,1.240190029144287
3829112383.0,-0.5979108214378357,0.1000630930066108,9.886758804321287,2.1276979446411133,1.1296902894973757,1.157686710357666
3829120716.0,-0.589411735534668,-0.0371009111404418,9.681257247924805,2.0038273334503174,1.1300488710403442,1.1096854209899902
3829129049.0,-0.6187294125556946,0.0568021871149539,9.87563705444336,1.9399709701538088,0.8005986213684082,1.1579684019088743
3829137382.0,-0.6677918434143066,0.3009270131587982,9.96090602874756,2.244319200515747,0.3961498141288757,1.245415449142456
3829145715.0,-0.5772039890289307,0.2792038023471832,9.846982955932615,2.329281806945801,0.1133942306041717,1.1506171226501465
3829154048.0,-0.4959935843944549,0.1051443070173263,9.710399627685549,2.0269315242767334,-0.0157143343240022,1.0912176370620728
3829162381.0,-0.5100947618484497,0.034509465098381,9.89749240875244,1.7037053108215332,0.0994344651699066,1.178843975067139
3829170714.0,-0.572480320930481,0.2630402445793152,10.24762725830078,2.032182216644287,0.293820858001709,1.1964151859283447
3829179047.0,-0.5849753618240356,0.4084992408752441,10.158411026000977,2.404459476470948,0.7856910824775696,1.0743635892868042
3829187380.0,-0.5761385560035706,0.266049325466156,9.85555648803711,2.2295913696289062,1.0582520961761477,1.130509853363037
3829195713.0,-0.6175409555435181,0.0496056601405143,9.763998031616213,1.72319757938385,1.0149896144866943,1.1724402904510498
3829204046.0,-0.6843180060386658,0.1210005208849906,9.940482139587402,1.6403355598449707,0.8646084666252136,1.2083258628845217
3829212379.0,-0.7014606595039368,0.2385458946228027,10.003255844116213,2.136150598526001,0.5823140144348145,1.183377742767334
3829220712.0,-0.564933180809021,0.2233810275793075,9.741721153259276,2.403486013412476,0.1847554594278335,1.1775630712509155
3829229045.0,-0.4983292520046234,0.0697542876005172,9.57302474975586,2.1676559448242188,0.0367051996290683,1.0794094800949097
3829237378.0,-0.5587579011917114,0.1149623766541481,9.877889633178713,1.726091980934143,0.0765097141265869,1.218597173690796
3829245711.0,-0.6294395327568054,0.2639593183994293,10.170536041259766,2.0530576705932617,0.3557305037975311,1.2085052728652954
3829254044.0,-0.6168491840362549,0.2471835911273956,10.028131484985352,2.362990140914917,0.9859687685966492,1.1732089519500732
3829262377.0,-0.5884711742401123,0.1137646660208702,9.76308822631836,2.2144789695739746,1.090526103973389,1.1998220682144165
3829270710.0,-0.6498082876205444,0.1600479930639267,9.84216594696045,1.806494951248169,0.9964192509651184,1.1894994974136353
3829279043.0,-0.6807991862297058,0.3615715205669403,10.015304565429688,2.0606908798217773,0.5595686435699463,1.1808674335479736
3829287376.0,-0.597177267074585,0.3253735601902008,9.826522827148438,2.225006341934204,0.1431067436933517,1.1871685981750488
3829295709.0,-0.5209071636199951,0.0581282898783683,9.552244186401367,2.089071273803711,-0.0654315650463104,1.2178798913955688
3829304042.0,-0.5422221422195435,-0.080930508673191,9.676719665527344,1.7168198823928833,-0.0719888135790824,1.188244342803955
3829312375.0,-0.568886935710907,0.0921561270952224,10.047213554382324,2.110689878463745,0.3261460661888122,1.2145758867263794
3829320708.0,-0.6009762287139893,0.2367971241474151,10.10723114013672,2.6070168018341064,0.7544160485267639,1.1423437595367432
3829329041.0,-0.5807279348373413,0.1794880181550979,9.811673164367676,2.557926893234253,1.0669991970062256,1.184517502784729
3829337374.0,-0.6081383228302002,0.0573876835405826,9.59420108795166,2.136995553970337,1.0362237691879272,1.2141404151916504
3829345707.0,-0.6095259785652161,0.1303683966398239,9.769827842712402,1.8977587223052976,0.7098217010498047,1.2502307891845703
3829354040.0,-0.6584522128105164,0.2879116535186767,9.990345001220703,2.308713436126709,0.2996609508991241,1.1512317657470703
3829362373.0,-0.5715928077697754,0.3619717359542846,9.89415168762207,2.504790544509888,-0.0478345863521099,1.141088604927063
3829370706.0,-0.4791932106018066,0.3082996308803558,9.812302589416504,2.195831537246704,-0.1890971064567566,1.1245673894882202
3829379039.0,-0.4848977029323578,0.3480604290962219,10.04265022277832,1.72673237323761,-0.0052893389947712,1.1984386444091797
3829387372.0,-0.5532169342041016,0.4701693952083587,10.31213092803955,1.737848877906799,0.4480441808700561,1.1877832412719729
3829395705.0,-0.5771045684814453,0.4203299880027771,10.221893310546877,1.8897159099578853,0.982305943965912,1.2390631437301636
3829404038.0,-0.5930296182632446,0.2689469158649444,9.949275970458984,1.8608741760253904,1.1459808349609375,1.2195961475372314
3829412371.0,-0.5884273052215576,0.1982545107603073,9.86158561706543,1.501711368560791,1.1040760278701782,1.1267188787460327
3829420704.0,-0.6677442789077759,0.3635686337947845,10.038529396057127,1.6070882081985474,0.644864022731781,1.2277415990829468
3829429037.0,-0.6737902164459229,0.4417976438999176,10.060779571533203,1.7409228086471558,0.3351622819900512,1.2247445583343506
3829437370.0,-0.5724769830703735,0.2074777632951736,9.823451042175291,1.6906418800354004,0.1084250509738922,1.0815098285675049
3829445703.0,-0.5257371068000793,-0.0057025081478059,9.840679168701172,1.3448755741119385,0.0495891608297824,1.0900394916534424
3829454036.0,-0.568888783454895,0.0926403254270553,10.146414756774902,1.5935896635055542,0.3359051048755646,1.0597121715545654
3829462369.0,-0.6300688982009888,0.2770208716392517,10.255757331848145,2.1873278617858887,0.697603702545166,1.0151946544647217
3829470702.0,-0.5837177038192749,0.2591773569583893,9.87944793701172,2.2404518127441406,0.8959604501724243,1.0316133499145508
3829479035.0,-0.6236674785614014,0.1077876314520835,9.66660499572754,1.845121383666992,0.9691401124000548,1.069650411605835
3829487368.0,-0.7178122997283936,0.1237551793456077,9.858407974243164,1.4272253513336182,0.9676547050476074,1.1202130317687988
3829495701.0,-0.7459793090820312,0.2556784451007843,10.06658935546875,1.8259106874465945,0.5540358424186707,1.171979308128357
3829504034.0,-0.6450620293617249,0.2503883242607116,9.836642265319824,2.286172866821289,0.3368527889251709,1.1868354082107544
3829512367.0,-0.5384395718574524,0.1471369862556457,9.663915634155272,1.973141312599182,-0.0826443210244178,1.1226974725723269
3829520700.0,-0.5404185056686401,0.1912006884813308,9.741326332092283,1.5364441871643066,-0.1504708230495453,1.1520514488220217
3829529033.0,-0.5827815532684326,0.3253997564315796,10.026304244995115,1.5478938817977903,0.2427461296319961,1.26746928691864
3829537366.0,-0.6044143438339233,0.2696605324745178,9.98569393157959,1.8724645376205444,0.6472076773643494,1.1611573696136477
3829545699.0,-0.6254346966743469,0.0934304744005203,9.775261878967283,1.5927058458328247,0.9942549467086792,1.1679450273513794
3829554032.0,-0.6361934542655945,0.0746176838874816,9.718384742736816,1.512571930885315,0.9809997081756592,1.2449287176132202
3829562365.0,-0.6960799694061279,0.2553860545158386,9.891493797302246,1.681984305381775,0.6160735487937927,1.2806605100631714
3829570698.0,-0.6530513763427734,0.295337438583374,9.76065731048584,1.858927607536316,0.2347544878721237,1.053539156913757
3829579031.0,-0.5405356884002686,0.1199496537446975,9.579669952392578,1.7343655824661257,-0.006441980600357,1.225385069847107
3829587364.0,-0.5098422169685364,0.0169266909360885,9.712640762329102,1.3875232934951782,-0.0992935821413993,1.2045351266860962
3829595697.0,-0.5059874057769775,0.1459069699048996,10.034749984741213,1.6050647497177124,0.0202864743769168,1.2293809652328491
3829604030.0,-0.528236985206604,0.2922781705856323,10.125993728637695,2.0140087604522705,0.5428552627563477,1.1162042617797852
3829612363.0,-0.4889310300350189,0.188813254237175,9.874090194702148,2.0705013275146484,0.8423752784729004,1.1733369827270508
3829620696.0,-0.5089941620826721,0.0903637036681175,9.703875541687012,1.6194599866867063,0.8979581594467163,1.1531529426574707
3829629029.0,-0.5939556360244751,0.0563135929405689,9.88321590423584,1.4339874982833862,0.7427873015403748,1.172363519668579
3829637362.0,-0.6495503187179565,0.2106633186340332,10.000391960144045,1.77534818649292,0.669479250907898,1.0709054470062256
3829645695.0,-0.5588275194168091,0.2198225706815719,9.844490051269531,2.141721487045288,0.2862262725830078,1.0492743253707886
3829654028.0,-0.46088308095932,0.1483685225248336,9.70502758026123,1.826717495918274,-0.0358086973428726,1.0537312030792236
3829662361.0,-0.4460338652133941,0.1494772732257843,9.90551471710205,1.4533259868621826,-0.2085895091295242,1.1242855787277222
3829670694.0,-0.4826986193656921,0.2478754371404647,10.108880043029783,1.4366512298583984,0.1130868420004844,1.1563032865524292
3829679027.0,-0.5235593318939209,0.1988961994647979,10.163192749023438,1.8526519536972048,0.7536476850509644,1.121442437171936
3829687360.0,-0.528423011302948,0.0759099200367927,9.969905853271484,1.7821874618530271,1.0273357629776,1.191164493560791
3829695693.0,-0.5589882731437683,0.0408984422683715,9.921648979187012,1.6135942935943604,1.0848653316497805,1.1907289028167725
3829704026.0,-0.6487411260604858,0.2353596985340118,10.051182746887209,1.5410034656524658,0.8119455575942993,1.1130921840667725
3829712359.0,-0.6798801422119141,0.3675299286842346,10.007683753967283,1.7746824026107788,0.4529621303081512,1.1866563558578491
3829720692.0,-0.5906345844268799,0.2458329200744629,9.780715942382812,1.6113659143447876,0.1579117476940155,1.0761051177978516
3829729025.0,-0.5837653875350952,0.0523373335599899,9.83194065093994,1.098543405532837,0.0640868097543716,1.0988506078720093
3829737358.0,-0.6176124811172485,0.1182255297899246,10.164999008178713,1.2848355770111084,0.2002520859241485,1.1895763874053955
3829745691.0,-0.6671048402786255,0.3631957471370697,10.34983253479004,1.7097501754760742,0.5757311582565308,1.2029213905334473
3829754024.0,-0.6378076076507568,0.3735995590686798,10.078322410583496,1.811438798904419,1.0320488214492798,1.1361963748931885
3829762357.0,-0.6654874682426453,0.2187827825546264,9.77537727355957,1.1881673336029053,1.1051517724990845,1.1028718948364258
3829770690.0,-0.7487313747406006,0.1649847328662872,9.90762996673584,0.8689372539520264,0.967654585838318,1.1615285873413086
3829779023.0,-0.76364666223526,0.2980413734912872,10.114643096923828,1.1994377374649048,0.7211688160896301,1.1614775657653809
3829787356.0,-0.7071540951728821,0.3077147305011749,9.98256492614746,1.5874168872833252,0.3267608284950256,1.042191982269287
3829795689.0,-0.6059197187423706,0.1802937984466552,9.737054824829102,1.6019654273986816,0.0018954534316435,1.0252865552902222
3829804022.0,-0.599651038646698,0.1288155317306518,9.8256254196167,1.1106587648391724,-0.0575423762202262,1.1280252933502195
3829812355.0,-0.6454510688781738,0.2550703883171081,10.09228229522705,1.1154743432998655,0.1835259944200515,1.0955464839935305
3829820688.0,-0.6972993612289429,0.2544592618942261,10.138067245483398,1.591719627380371,0.6663542985916138,1.0796656608581543
3829829021.0,-0.6979946494102478,0.0236918590962886,9.853737831115724,1.6583040952682495,1.0351353883743286,1.042358636856079
3829837354.0,-0.7242491841316223,-0.0834848284721374,9.678637504577637,1.4280576705932615,0.9236876964569092,1.1576993465423584
3829845687.0,-0.7401278614997864,0.0942016839981079,9.852835655212402,1.5246360301971436,0.7200673222541809,1.0376325845718384
3829854020.0,-0.7032633423805237,0.2255367934703827,9.858725547790527,1.9646885395050049,0.1627272367477417,1.0819706916809082
3829862353.0,-0.6475114226341248,0.1117952018976211,9.65115451812744,1.9820293188095093,-0.2515445947647095,1.018140196800232
3829870686.0,-0.5846526026725769,-0.0392667539417743,9.647136688232422,1.7157695293426514,-0.3475723266601562,1.1194188594818115
3829879019.0,-0.6064948439598083,0.0174718797206878,9.904870986938477,1.5372893810272217,-0.1556961238384246,1.138014793395996
3829887352.0,-0.6468212604522705,0.1933506280183792,10.10096549987793,1.9623323678970337,0.2516086101531982,1.136042594909668
3829895685.0,-0.6191196441650391,0.1322492361068725,9.820938110351562,2.2711117267608643,0.5292925834655762,1.2152674198150637
3829904018.0,-0.6333833932876587,0.029411569237709,9.579761505126951,1.829599142074585,0.6412523984909058,1.277740716934204
3829912351.0,-0.6725051403045654,0.0305745899677276,9.668625831604004,1.5328325033187866,0.3662066757678985,1.260220289230347
3829920684.0,-0.6943538188934326,0.1367552727460861,9.81957721710205,1.8221454620361328,0.0431856028735637,1.2792774438858032
3829929017.0,-0.6337915658950806,0.1350082159042358,9.803081512451172,2.074906826019287,-0.1867662221193313,1.1552789211273191
3829937350.0,-0.5167887210845947,0.0476195588707923,9.656753540039062,2.0364341735839844,-0.6549175977706909,1.376457691192627
3829945683.0,-0.4464400708675384,0.1055734530091285,9.711813926696776,1.629167914390564,-0.5304580330848694,1.2681865692138672
3829954016.0,-0.4781043231487274,0.1850363463163375,9.943306922912598,1.63126802444458,-0.3911933898925781,1.2187509536743164
3829962349.0,-0.514885663986206,0.1026362553238868,9.95132064819336,1.8257697820663448,0.1470129042863845,1.2706581354141235
3829970682.0,-0.5130847692489624,-0.0591095425188541,9.821447372436523,1.8654460906982424,0.3850715756416321,1.198605179786682
3829979015.0,-0.531986653804779,-0.1156126707792282,9.777318954467772,1.756585717201233,0.5948521494865417,1.193200707435608
3829987348.0,-0.5459072589874268,0.073872871696949,9.920125007629396,1.8658177852630613,0.2927450835704803,1.2561476230621338
3829995681.0,-0.5518877506256104,0.2152948975563049,9.85827350616455,2.207358121871948,-0.1355889588594436,1.1404482126235962
3830004014.0,-0.4613106250762939,0.0995985269546508,9.657331466674805,2.112713575363159,-0.4260287880897522,1.1453661918640137
3830012347.0,-0.3883163034915924,-0.1135286390781402,9.663262367248535,1.667076826095581,-0.4757460057735443,1.105177402496338
3830020680.0,-0.4028583467006683,-0.1198808178305625,9.980436325073242,1.6768102645874023,-0.2520056366920471,1.0422688722610474
3830029013.0,-0.3976456820964813,0.0982985943555831,10.18636989593506,2.2640936374664307,-0.0139981806278228,1.084404230117798
3830037346.0,-0.4154417514801025,0.1568170487880706,10.043661117553713,2.538114547729492,0.5586464405059814,1.139782190322876
3830045679.0,-0.4341338276863098,0.0299263093620538,9.775315284729004,2.2337918281555176,0.8296194672584534,1.1138349771499634
3830054012.0,-0.5018388032913208,-0.0258127469569444,9.806875228881836,1.8318787813186648,0.9095870852470398,1.0928056240081787
3830062345.0,-0.5116962194442749,0.0962612330913543,9.981048583984377,1.9644581079483032,0.5680468678474426,1.0086116790771484
3830070678.0,-0.4913709461688995,0.1347513496875763,9.914575576782228,2.5213372707366943,0.1541208624839782,0.9801287651062012
3830079011.0,-0.4113478362560272,0.0217151343822479,9.726806640625,2.4834797382354736,-0.0727060139179229,1.083251714706421
3830087344.0,-0.3666115999221802,0.0259179398417472,9.7558012008667,2.114736795425415,0.0024845807347446,1.0571506023406982
3830095677.0,-0.4083730578422546,0.1802325993776321,10.056386947631836,2.143911361694336,0.2069117724895477,1.2189557552337646
3830104010.0,-0.4835992753505707,0.2445099651813507,10.126490592956545,2.3927791118621826,0.6240652203559875,1.2805323600769043
3830112343.0,-0.5209153294563293,0.077385127544403,9.890578269958496,2.354050874710083,1.2668545246124268,1.2755889892578125
3830120676.0,-0.5443089604377747,-0.0017422374803572,9.746743202209473,2.1640186309814453,1.284220814704895,1.2842978239059448
3830129009.0,-0.5984225273132324,0.1635711938142776,9.878628730773926,2.104952335357666,0.9553340673446656,1.194955348968506
3830137342.0,-0.6442947387695312,0.3518400490283966,9.896380424499512,2.453587770462036,0.5823396444320679,1.261552333831787
3830145675.0,-0.6000677943229675,0.3309795558452606,9.696377754211426,2.475615978240967,0.2855731546878814,1.2689803838729858
3830154008.0,-0.5389588475227356,0.1584104746580124,9.619421005249023,2.0764694213867188,-0.0015752754407003,1.2735397815704346
3830162341.0,-0.5491510033607483,0.1523737460374832,9.900310516357422,1.895145893096924,0.1895197033882141,1.139193058013916
3830170674.0,-0.6119711995124817,0.3210224211215973,10.210121154785156,2.271547317504883,0.6111813187599182,1.3450548648834229
3830179007.0,-0.6323398947715759,0.4088466763496399,10.080870628356934,2.4984638690948486,1.018447756767273,1.261757254600525
3830187340.0,-0.6495592594146729,0.2682214081287384,9.732096672058104,2.162430763244629,1.0665767192840576,1.3104499578475952
3830195673.0,-0.6623556613922119,0.1721489578485489,9.666915893554688,1.7463270425796509,1.022571325302124,1.1966969966888428
3830204006.0,-0.7414048910140991,0.2608718574047088,9.889638900756836,1.7777814865112305,0.6971169114112854,1.2892924547195437
3830212339.0,-0.7386502027511597,0.3296885192394256,9.96553897857666,2.2081265449523926,0.2659525871276855,1.2482585906982422
3830220672.0,-0.6397536396980286,0.2569816410541534,9.799975395202637,2.3878870010375977,-0.0012422904837876,1.1444441080093384
3830229005.0,-0.5455921292304993,0.2057227790355682,9.737277030944824,1.8740397691726685,-0.0678649097681045,1.1249516010284424
3830237338.0,-0.5647595524787903,0.2365629822015762,9.989273071289062,1.6826759576797483,-0.0166364442557096,1.19969379901886
3830245671.0,-0.6112606525421143,0.2877072989940643,10.15960693359375,1.9398683309555047,0.3719698786735534,1.1399614810943604
3830254004.0,-0.6296777129173279,0.1622771918773651,9.976153373718262,2.1646077632904053,0.7769052982330322,1.1390138864517212
3830262337.0,-0.6096110939979553,0.0511434227228164,9.818199157714844,2.0848708152771,0.94877690076828,1.091576337814331
3830270670.0,-0.6241781711578369,0.1075538694858551,9.869170188903809,1.867175459861756,0.6773172616958618,1.039041519165039
3830279003.0,-0.6702200174331665,0.2826811671257019,9.962900161743164,2.0651731491088867,0.3335742056369781,1.1060993671417236
3830287336.0,-0.5979479551315308,0.2564303576946258,9.875909805297852,2.218372344970703,0.1148542314767837,1.1185736656188965
3830295669.0,-0.4906745254993438,0.0515956915915012,9.71286392211914,1.949499487876892,-0.1602810770273208,1.0917043685913086
3830304002.0,-0.4464705288410187,-0.0418420620262622,9.87466526031494,1.6475588083267212,-0.1755471676588058,1.10387122631073
3830312335.0,-0.5011600255966187,0.1213424801826477,10.202345848083496,1.9056477546691888,0.3803457915782928,1.178434133529663
3830320668.0,-0.5135189294815063,0.2306616753339767,10.15747356414795,2.3374271392822266,0.7685039639472961,1.2122961282730105
3830329001.0,-0.4922254383563995,0.1237096711993217,9.821856498718262,2.263453245162964,1.0243645906448364,1.2511017322540283
3830337334.0,-0.5238311290740967,-0.0238359589129686,9.722020149230955,1.674274444580078,1.0396305322647097,1.2831707000732422
3830345667.0,-0.5968572497367859,0.0648947954177856,9.895092010498049,1.6776043176651,0.8230878114700317,1.2066609859466553
3830354000.0,-0.5805020928382874,0.1856147199869156,10.017749786376951,2.173931360244751,0.4310876131057739,1.1429327726364136
3830362333.0,-0.4890156388282776,0.1370175331830978,9.75197410583496,2.386298894882202,0.0108604365959763,1.115243911743164
3830370666.0,-0.4239838719367981,0.0082227122038602,9.666787147521973,2.11396861076355,0.0105018364265561,1.2319934368133545
3830378999.0,-0.4702585637569427,0.0784245580434799,9.958911895751951,1.7729660272598269,0.2235097736120224,1.2019479274749756
3830387332.0,-0.5204333662986755,0.2306686639785766,10.161980628967283,2.108717441558838,0.6271901726722717,1.0977493524551392
3830395665.0,-0.5508983135223389,0.1589075773954391,9.98530387878418,2.249519109725952,1.0771299600601196,1.1986181735992432
3830403998.0,-0.5603355765342712,-0.012083419598639,9.747237205505373,2.084204912185669,1.1981059312820437,1.2756402492523191
3830412331.0,-0.6008667349815369,0.0238795280456542,9.803442001342772,1.949781060218811,1.041321039199829,1.2352464199066162
3830420664.0,-0.6582470536231995,0.2687824964523315,9.931342124938965,2.2052321434021,0.5451734066009521,1.214550256729126
3830428997.0,-0.6080078482627869,0.3217709064483642,9.830070495605469,2.4136548042297363,0.0548656955361366,1.17848539352417
3830437330.0,-0.5260438919067383,0.0916407257318496,9.623229026794434,2.061279773712158,-0.0366923883557319,1.1914204359054563
3830445663.0,-0.5237644910812378,-0.0306572653353214,9.812862396240234,1.766972303390503,0.1355505138635635,1.135299563407898
3830453996.0,-0.5803122520446777,0.1588769853115081,10.16225814819336,1.930006980895996,0.4039108157157898,1.142189860343933
3830462329.0,-0.6238099336624146,0.3216007947921753,10.205220222473145,2.494211912155152,0.9311030507087708,1.082585692405701
3830470662.0,-0.5966320633888245,0.2190744876861572,9.808612823486328,2.3565096855163574,1.1115553379058838,1.2073782682418823
3830478995.0,-0.6176203489303589,0.0069728535600006,9.615614891052246,1.834235429763794,0.9116618633270264,1.0907565355300903
3830487328.0,-0.6825493574142456,0.0410868450999259,9.869693756103516,1.7065227031707764,0.6108995079994202,1.2002317905426023
3830495661.0,-0.7109308242797852,0.2171282470226287,10.037590026855469,2.1816155910491943,0.3137743771076202,1.1926244497299194
3830503994.0,-0.5983285307884216,0.1800719797611236,9.86495304107666,2.448516130447388,0.0458494871854782,1.0704189538955688
3830512327.0,-0.4915760457515716,0.0549959801137447,9.695417404174805,2.17295789718628,-0.1242418363690376,1.0370947122573853
3830520660.0,-0.5055135488510132,0.0885460153222084,9.95002269744873,1.8531129360198968,-0.0486030131578445,1.206123113632202
3830528993.0,-0.5858973264694214,0.2600054144859314,10.18381118774414,2.0418002605438232,0.4655003547668457,1.2673540115356443
3830537326.0,-0.5773546099662781,0.1866722106933593,10.003982543945312,2.265194892883301,0.7599231004714966,1.26083505153656
3830545659.0,-0.5862236618995667,-0.0215455517172813,9.74539566040039,2.1700634956359863,1.0011323690414429,1.223054051399231
3830553992.0,-0.6314806342124939,0.0097815208137035,9.803533554077148,1.9338748455047607,0.8273910284042358,1.1465957164764404
3830562325.0,-0.6602168679237366,0.297189712524414,10.00374984741211,2.1566929817199707,0.4342381060123443,1.2636525630950928
3830570658.0,-0.6037214994430542,0.3822009861469269,9.931815147399902,2.386631965637207,0.1033022105693817,1.1070985794067385
3830578991.0,-0.5176679491996765,0.1616397351026535,9.682015419006348,2.179028511047364,-0.0318000689148902,1.132533311843872
3830587324.0,-0.4589668214321136,0.0193014107644557,9.803598403930664,1.734903335571289,-3.84213526558e-05,1.1970813274383545
3830595657.0,-0.5278960466384888,0.2003781795501709,10.15657901763916,1.98056960105896,0.3887985050678253,1.164038896560669
3830603990.0,-0.5488899946212769,0.3873858153820038,10.184514045715332,2.4545607566833496,0.7456560134887695,1.179842829704285
3830612323.0,-0.5232604742050171,0.3321479856967926,9.786989212036133,2.384634017944336,1.015066385269165,1.1900885105133057
3830620656.0,-0.5600934624671936,0.1185537427663803,9.624930381774902,1.929648399353028,1.0671659708023071,1.1285120248794556
3830628989.0,-0.6560829877853394,0.1639385521411895,9.865046501159668,1.5594714879989624,0.8993927240371704,1.1958519220352173
3830637322.0,-0.6542932987213135,0.3111476302146911,10.055294036865234,2.0280838012695312,0.39225634932518,1.075592875480652
3830645655.0,-0.5830187201499939,0.2583288550376892,9.898594856262209,2.3166284561157227,0.2470493018627166,1.0987483263015747
3830653988.0,-0.4415608048439026,0.1279175579547882,9.661776542663574,2.159920454025269,-0.0660463124513626,0.9985452890396118
3830662321.0,-0.4318363666534424,0.1550964117050171,9.853052139282228,1.7006826400756836,-0.0481931827962398,0.997443914413452
3830670654.0,-0.5055235624313354,0.2926824986934662,10.13797092437744,1.873066544532776,0.3102908134460449,1.0525400638580322
3830678987.0,-0.5494659543037415,0.2122101485729217,10.04306697845459,2.19616436958313,0.7734985947608948,1.195800542831421
3830687320.0,-0.564585268497467,-0.003485013032332,9.800724983215332,2.030389308929444,1.043652057647705,1.122595191001892
3830695653.0,-0.6139764785766602,-0.0294371545314788,9.808653831481934,1.8453775644302368,0.97813081741333,1.10732901096344
3830703986.0,-0.6742190718650818,0.2372351139783859,9.978575706481934,2.066223621368408,0.6518822908401489,1.20817232131958
3830712319.0,-0.6323207020759583,0.3346597254276275,9.874021530151367,2.3151297569274902,0.3781045377254486,1.0515795946121216
3830720652.0,-0.554489016532898,0.102772831916809,9.599855422973633,1.974345207214356,0.0631647035479545,1.2261021137237549
3830728985.0,-0.5081704258918762,-0.095939502120018,9.682694435119627,1.6750942468643188,-0.0557237640023231,1.0353273153305054
3830737318.0,-0.5272896885871887,0.0243983715772628,10.110600471496582,1.8502699136734009,0.0988453328609466,1.184709548950195
3830745651.0,-0.577475368976593,0.2312231659889221,10.241276741027832,2.28758192062378,0.5551117062568665,1.182788610458374
3830753984.0,-0.5817576050758362,0.186585783958435,9.954754829406738,2.357790470123291,0.9002635478973389,1.2352465391159058
3830762317.0,-0.5704851746559143,-0.0023785727098584,9.703890800476074,1.8383080959320068,1.05753493309021,1.189525127410889
3830770650.0,-0.6722208857536316,0.0197674259543418,9.848261833190918,1.6457916498184204,0.891273021697998,1.2187509536743164
3830778983.0,-0.6876159310340881,0.2058932483196258,9.98170280456543,2.1071808338165283,0.5994755625724792,1.282940149307251
3830787316.0,-0.6112167835235596,0.19538015127182,9.799928665161133,2.363656044006348,0.3462532162666321,1.242700219154358
3830795649.0,-0.5054736733436584,0.0213913805782794,9.608346939086914,2.185201644897461,0.0082990126684308,1.1658319234848022
3830803982.0,-0.5103977918624878,0.0394596569240093,9.8582124710083,1.8124632835388184,-0.168375164270401,1.257710099220276
3830812315.0,-0.5688573718070984,0.2309405356645584,10.23475170135498,1.914459109306336,0.1908004283905029,1.1840436458587646
3830820648.0,-0.5803290009498596,0.2241456359624862,10.126214027404783,2.309558629989624,0.7290323376655579,1.2570698261260986
3830828981.0,-0.5757362246513367,0.0510897114872932,9.822351455688477,2.2257235050201416,1.1176514625549316,1.250486969947815
3830837314.0,-0.6096832156181335,0.0196584351360797,9.75376796722412,1.949140667915344,1.0719813108444214,1.260450839996338
3830845647.0,-0.6670040488243103,0.236420676112175,9.910981178283691,2.1042351722717285,0.6177641749382019,1.0825858116149902
3830853980.0,-0.6358072757720947,0.3512255549430847,9.89393424987793,2.337247610092163,0.2038892954587936,1.1223901510238647
3830862313.0,-0.5233916640281677,0.1709170788526535,9.684871673583984,2.286454677581787,-0.0804671123623848,1.1466724872589111
3830870646.0,-0.4851542711257934,-0.0414773039519786,9.753994941711426,1.84407126903534,-0.1292878538370132,1.0712897777557373
3830878979.0,-0.5103445053100586,0.1112986430525779,10.102595329284668,1.944478869438172,0.1402891725301742,1.1416776180267334
3830887312.0,-0.5525283217430115,0.3420328497886657,10.254890441894531,2.432276725769043,0.5688921809196472,1.1690081357955933
3830895645.0,-0.5458739995956421,0.3172957897186279,9.892470359802246,2.487091064453125,0.9494941830635072,1.2117582559585571
3830903978.0,-0.554030179977417,0.0686061605811119,9.595142364501951,1.9837968349456787,1.0060503482818604,1.10556161403656
3830912311.0,-0.6041919589042664,0.0283884312957525,9.7948579788208,1.614029884338379,0.7800303101539612,1.238473892211914
3830920644.0,-0.6585657596588135,0.2220836132764816,10.069994926452637,1.952522039413452,0.4907687306404114,1.2118607759475708
3830928977.0,-0.579387903213501,0.2631188333034515,9.95451831817627,2.4352734088897705,0.1789922714233398,1.073799967765808
3830937310.0,-0.4621873199939728,0.135213240981102,9.704439163208008,2.2863523960113525,-0.068556509912014,1.1526918411254885
3830945643.0,-0.4363174140453338,0.0892418920993805,9.79955005645752,1.7789853811264038,0.0432368293404579,1.145391821861267
3830953976.0,-0.5037806034088135,0.2374631762504577,10.15658473968506,1.7737600803375244,0.267668753862381,1.0987225770950315
3830962309.0,-0.5564997792243958,0.2386569082736969,10.118897438049316,2.2476236820220947,0.8736504316329956,1.1744896173477173
3830970642.0,-0.5712859034538269,0.038639985024929,9.8149995803833,2.2159643173217773,1.1412166357040403,1.2802507877349854
3830978975.0,-0.585152268409729,-0.0245040543377399,9.717829704284668,1.9948365688323968,1.1314575672149658,1.2100932598114014
3830987308.0,-0.6602420210838318,0.2028769701719284,9.961997985839844,2.073728561401367,0.7963722348213196,1.210195779800415
3830995641.0,-0.6396728754043579,0.3682429194450378,9.971242904663086,2.3033599853515625,0.3638246059417724,1.2264608144760132
3831003974.0,-0.5591122508049011,0.2267569452524185,9.716256141662598,2.2187821865081787,0.1620869040489196,1.2383971214294434
3831012307.0,-0.4851014018058777,-0.0190493389964103,9.648176193237305,1.879316329956055,0.0565818399190902,1.23778235912323
3831020640.0,-0.5401274561882019,0.0373530760407447,10.010321617126465,1.7405256032943726,0.2635320425033569,1.2263455390930176
3831028973.0,-0.5868808031082153,0.2949771583080292,10.22659683227539,2.3578927516937256,0.5927901864051819,1.1359913349151611
3831037306.0,-0.5679810643196106,0.3274454474449157,9.999703407287598,2.511629343032837,0.9789761304855348,1.259426236152649
3831045639.0,-0.5577024817466736,0.1222146302461624,9.609599113464355,2.0040578842163086,1.1095062494277954,1.1924707889556885
3831053972.0,-0.6548008322715759,0.0452673658728599,9.753955841064451,1.5792969465255735,0.8582049012184143,1.2538679838180542
3831062305.0,-0.6895022988319397,0.1971600800752639,10.046882629394531,1.93261981010437,0.4970185756683349,1.3150092363357544
3831070638.0,-0.6459041833877563,0.2721891105175018,9.95848274230957,2.4433417320251465,0.1002028882503509,1.1581476926803589
3831078971.0,-0.5188096761703491,0.0987830087542533,9.655340194702148,2.1186556816101074,-0.1313113719224929,1.0397586822509766
3831087304.0,-0.4689004421234131,0.0700595006346702,9.752325057983398,1.7452770471572876,0.0108348214998841,1.1124260425567627
3831095637.0,-0.5227884650230408,0.2065520584583282,10.085596084594728,1.91412615776062,0.2436681985855102,1.2234125137329102
3831103970.0,-0.5917505025863647,0.2603254616260528,10.14930820465088,2.192758083343506,0.6425330638885498,1.059353590011597
3831112303.0,-0.5693429708480835,0.0818218439817428,9.894768714904783,2.20272183418274,1.114654779434204,1.1774351596832275
3831120636.0,-0.6026203036308289,-0.0640258491039276,9.74931526184082,1.946912407875061,0.992705225944519,1.1958261728286743
3831128969.0,-0.6429584622383118,0.1300861835479736,9.913623809814451,1.881672978401184,0.74867844581604,1.190114140510559
3831137302.0,-0.6468063592910767,0.3393605649471283,10.009328842163086,2.290271043777466,0.318410575389862,1.199079155921936
3831145635.0,-0.5495206713676453,0.2200103104114532,9.737751960754396,2.251235246658325,0.0648552477359771,1.1000289916992188
3831153968.0,-0.4906844198703766,-0.0434192791581153,9.662707328796388,1.908593773841858,-0.0747551545500755,1.0693432092666626
3831162301.0,-0.4893911480903625,0.0064522949978709,9.998211860656738,1.8071355819702148,0.071591779589653,1.0896550416946411
3831170634.0,-0.5723534226417542,0.240805298089981,10.286802291870115,2.208920478820801,0.5292413830757141,1.2081468105316162
3831178967.0,-0.5721617937088013,0.3055785000324249,10.025407791137695,2.542776107788086,0.953899621963501,1.164884090423584
3831187300.0,-0.5343789458274841,0.1137772500514984,9.692879676818848,2.197471141815185,1.0253634452819824,1.1647049188613892
3831195633.0,-0.6101964712142944,-0.0170084033161401,9.707704544067385,1.6956368684768677,0.8853303790092468,1.2124241590499878
3831203966.0,-0.6625711917877197,0.159236267209053,9.97932243347168,1.863384246826172,0.5182015299797058,1.183710694313049
3831212299.0,-0.6129549741744995,0.2630599737167358,9.96735954284668,2.3934712409973145,0.3374932110309601,1.1054335832595823
3831220632.0,-0.4955549240112304,0.129831850528717,9.733562469482422,2.371826648712158,0.0367564260959625,1.0824319124221802
3831228965.0,-0.4589479565620422,0.0516686849296093,9.703909873962402,1.8673288822174072,-0.1466543078422546,1.226845145225525
3831237298.0,-0.5027415156364441,0.1899718791246414,10.062847137451172,1.7931500673294067,0.1993555873632431,1.214754939079285
3831245631.0,-0.5549980998039246,0.2827703356742859,10.192790985107422,2.180232524871826,0.6615645289421082,1.2028446197509766
3831253964.0,-0.5700594186782837,0.1469653248786926,9.892818450927734,2.270010471343994,1.1010791063308716,1.2300211191177368
3831262297.0,-0.567477285861969,-0.0451365932822227,9.696562767028809,2.056464433670044,1.142215609550476,1.2503076791763306
3831270630.0,-0.6250099539756775,0.1041521430015564,9.859527587890623,1.87485945224762,0.8125858902931213,1.17833149433136
3831278963.0,-0.663754940032959,0.3565818667411804,10.012800216674805,2.2240583896636963,0.4110316336154938,1.2852455377578735
3831287296.0,-0.5759328603744507,0.3017687499523163,9.772621154785156,2.3830716609954834,0.0760742798447609,1.2198266983032229
3831295629.0,-0.49498051404953,0.0287397988140583,9.656732559204102,1.924960970878601,0.0446712262928485,1.1528966426849363
3831303962.0,-0.5309795141220093,-0.0102191185578703,9.884626388549805,1.626042723655701,0.2022243738174438,1.1748992204666138
3831312295.0,-0.5571384429931641,0.2251636385917663,10.21455192565918,2.0811567306518555,0.4767833948135376,1.2196475267410278
3831320628.0,-0.5814198851585388,0.3389485478401184,10.114217758178713,2.4869630336761475,0.9036446213722228,1.1541261672973633
3831328961.0,-0.5678310990333557,0.1688607335090637,9.68520164489746,2.247213840484619,1.1446746587753296,1.1434195041656494
3831337294.0,-0.6251626014709473,-0.010777547955513,9.680785179138184,1.5840097665786743,1.0707517862319946,1.2205950021743774
3831345627.0,-0.6932770013809204,0.1368431746959686,9.97034740447998,1.7502208948135376,0.6912514567375183,1.1783829927444458
3831353960.0,-0.6669779419898987,0.255103588104248,10.05413055419922,2.240605115890503,0.2721768915653229,1.1696995496749878
3831362293.0,-0.5505921244621277,0.177422285079956,9.787296295166016,2.451333522796631,0.0256910789757967,1.1852219104766846
3831370626.0,-0.4714501500129699,0.0439253114163875,9.649991035461426,2.031746864318848,-0.1423767358064651,1.1148340702056885
3831378959.0,-0.4997257888317108,0.1462777853012085,10.007962226867676,1.74094820022583,0.1228714883327484,1.0464950799942017
3831387292.0,-0.5597624778747559,0.260888397693634,10.220807075500488,2.1290042400360107,0.5436365604400635,1.2768440246582031
3831395625.0,-0.575027585029602,0.1727025359869003,9.985054969787598,2.201415538787842,0.849086344242096,1.2469778060913086
3831403958.0,-0.585277259349823,-0.0288148801773786,9.724470138549805,1.9556468725204468,1.2400621175765991,1.210887432098389
3831412291.0,-0.6369601488113403,0.0386580042541027,9.813422203063965,1.90167772769928,0.8761605620384216,1.2072501182556152
3831420624.0,-0.6624106764793396,0.3011776208877563,10.012221336364746,2.1720871925354004,0.4955330193042755,1.1524357795715332
3831428957.0,-0.5830209851264954,0.3233076632022857,9.855032920837402,2.3921902179718018,0.0237187817692756,1.104127287864685
3831437290.0,-0.5060165524482727,0.0612406954169273,9.619685173034668,1.9839506149291992,-0.0175585579127073,1.1901655197143557
3831445623.0,-0.4737339615821838,-0.0409081205725669,9.80080795288086,1.701579213142395,0.0629597827792167,1.1158584356307983
3831453956.0,-0.5324952602386475,0.165944293141365,10.237561225891112,2.0742666721343994,0.3697158992290497,1.1805602312088013
3831462289.0,-0.5447385311126709,0.327510803937912,10.18003749847412,2.465293407440185,0.70426344871521,1.231276273727417
3831470622.0,-0.5457208156585693,0.1827792376279831,9.790267944335938,2.315194129943848,0.978335738182068,1.2380385398864746
3831478955.0,-0.5665920972824097,-0.0089133195579051,9.639219284057615,1.7529103755950928,0.9128401875495912,1.2063792943954468
3831487288.0,-0.6509512066841125,0.1431787759065628,9.880289077758787,1.7370293140411377,0.6617950201034546,1.2946202754974363
3831495621.0,-0.6607806086540222,0.277437150478363,10.031662940979004,2.327962636947632,0.3248269259929657,1.2890748977661133
3831503954.0,-0.5464398264884949,0.2087944000959396,9.797507286071776,2.3799850940704346,0.1769815534353256,1.0492743253707886
3831512287.0,-0.4611822664737701,0.0471327491104602,9.649670600891112,2.0116395950317383,0.0089393677189946,1.0968782901763916
3831520620.0,-0.4936089217662811,0.092939481139183,9.912546157836914,1.6769126653671265,-0.0354372896254062,1.2043299674987793
3831528953.0,-0.5580434203147888,0.2635267674922943,10.223920822143556,2.0513927936553955,0.3869798481464386,1.255789041519165
3831537286.0,-0.5644076466560364,0.1970907151699066,10.049542427062988,2.322493553161621,0.9136083722114564,1.2048934698104858
3831545619.0,-0.5763154625892639,-0.0035027381964027,9.707115173339844,2.146754503250122,1.1688543558120728,1.241675615310669
3831553952.0,-0.6043723225593567,0.0064737861976027,9.764219284057615,1.947680711746216,1.0663975477218628,1.2728224992752075
3831562285.0,-0.6496254801750183,0.268411248922348,9.999194145202637,2.1553099155426025,0.543713390827179,1.2199804782867432
3831570618.0,-0.6298104524612427,0.3256969451904297,9.884370803833008,2.411426544189453,0.1432348042726516,1.1443159580230713
3831578951.0,-0.5054488778114319,0.093014545738697,9.667976379394531,2.146165609359741,-0.030673049390316,1.1666772365570068
3831587284.0,-0.5048719048500061,-0.0605082437396049,9.766317367553713,1.7683812379837036,0.1069394424557685,1.137451410293579
3831595617.0,-0.5625041127204895,0.1107744127511978,10.181700706481934,1.942506670951844,0.2440780401229858,1.1944942474365234
3831603950.0,-0.5784851908683777,0.3238744437694549,10.194490432739258,2.463423490524292,0.7324646711349487,1.1738234758377075
3831612283.0,-0.5602390766143799,0.2311946153640747,9.825709342956545,2.32344126701355,1.0891684293746948,1.2590676546096802
3831620616.0,-0.5924654603004456,0.0190101508051157,9.628104209899902,1.856007695198059,1.028949499130249,1.146006464958191
3831628949.0,-0.6590963006019592,0.0608546882867813,9.892718315124512,1.7325979471206665,0.7385351657867432,1.1370925903320312
3831637282.0,-0.6680498123168945,0.2404824048280716,10.065489768981934,2.1461143493652344,0.4950463473796844,1.165191650390625
3831645615.0,-0.5680489540100098,0.2238488942384719,9.865448951721191,2.4316108226776123,0.2451282143592834,1.1753860712051392
3831653948.0,-0.4807174205780029,0.0591077134013175,9.666457176208496,2.1738545894622803,0.0226686000823974,1.1055104732513428
3831662281.0,-0.4963712096214294,0.100795954465866,9.889758110046388,1.7105441093444824,-0.0562616623938083,1.1412166357040403
3831670614.0,-0.550923228263855,0.2712315618991852,10.2062406539917,2.061561822891236,0.4336234331130981,1.1646281480789185
3831678947.0,-0.5681251883506775,0.2436631470918655,10.097957611083984,2.2594826221466064,0.9476754069328308,1.156354546546936
3831687280.0,-0.5612966418266296,0.0287367217242717,9.75556468963623,2.116043329238892,1.0648350715637207,1.1389882564544678
3831695613.0,-0.5899991393089294,-0.0048422026447951,9.770318031311035,1.9419690370559688,0.8851511478424072,1.1726197004318235
3831703946.0,-0.630030632019043,0.2763906419277191,9.96157169342041,2.0685031414031982,0.5813663601875305,1.1785110235214231
3831712279.0,-0.6092560291290283,0.3928053379058838,9.913413047790527,2.367011308670044,0.2861365973949432,1.2264864444732666
3831720612.0,-0.5167477130889893,0.1651713252067566,9.665568351745604,2.171062707901001,0.0380627550184726,1.1511037349700928
3831728945.0,-0.4722198247909546,-0.0244508814066648,9.74669361114502,1.7256054878234863,-0.075728490948677,1.1275641918182373
3831737278.0,-0.5015219449996948,0.1166501194238662,10.117575645446776,1.7886162996292114,0.2167476564645767,1.2036128044128418
3831745611.0,-0.5650365352630615,0.3361362814903259,10.242605209350586,2.378281831741333,0.7749843001365662,1.2187254428863523
3831753944.0,-0.5613890290260315,0.278061956167221,9.88864803314209,2.454253911972046,1.0417053699493408,1.053539156913757
3831762277.0,-0.5657343864440918,0.0533032417297363,9.608768463134766,1.8458387851715088,0.9730592966079712,1.215293049812317
3831770610.0,-0.6466991901397705,0.0481181256473064,9.830562591552734,1.5874422788619995,0.7031876444816589,1.2342731952667236
3831778943.0,-0.6746522784233093,0.25110524892807,10.099813461303713,2.089967966079712,0.4513740241527557,1.2031774520874023
3831787276.0,-0.571245014667511,0.2846478521823883,9.905220985412598,2.4349660873413086,0.1473843157291412,1.2039203643798828
3831795609.0,-0.4744816720485687,0.1144214421510696,9.659707069396973,2.183997869491577,-0.076573759317398,1.09016752243042
3831803942.0,-0.4804275035858154,0.0714191049337387,9.786126136779783,1.721942663192749,0.0627036541700363,1.1808929443359375
3831812275.0,-0.5286847949028015,0.2403158098459243,10.163540840148926,1.840869426727295,0.3977634012699127,1.1406530141830444
3831820608.0,-0.5795359015464783,0.2226011604070663,10.14674949645996,2.2451391220092773,0.9042850136756896,1.0847628116607666
3831828941.0,-0.5799008011817932,0.058840911835432,9.822996139526367,2.077032804489136,1.1577377319335938,1.1842740774154663
3831837274.0,-0.606234073638916,-0.0121108246967196,9.73838710784912,1.857441782951355,1.0767968893051147,1.1281276941299438
3831845607.0,-0.6502472758293152,0.2281774878501892,9.951239585876465,2.0453221797943115,0.6110787987709045,1.1957749128341677
3831853940.0,-0.6161977648735046,0.3477628827095032,9.941686630249023,2.22541618347168,0.1766101568937301,1.1588904857635498
3831862273.0,-0.5461149215698242,0.1533329933881759,9.691718101501465,2.144218921661377,-0.0320049859583377,1.1435731649398804
3831870606.0,-0.4718086719512939,-0.0981159657239914,9.707120895385742,1.7006828784942627,-0.0662512183189392,1.1886284351348877
3831878939.0,-0.5331722497940063,0.0446582809090614,10.103353500366213,1.776526689529419,0.1785056143999099,1.1796894073486328
3831887272.0,-0.5882304906845093,0.3026676177978515,10.25519561767578,2.3483901023864746,0.7780323624610901,1.1736185550689695
3831895605.0,-0.5616541504859924,0.291429191827774,9.920573234558104,2.436810255050659,0.950262486934662,1.2936725616455078
3831903938.0,-0.5714263916015625,0.0603256709873676,9.59816074371338,1.890125751495361,1.0335856676101685,1.3016387224197388
3831912271.0,-0.6518952250480652,-0.0079391133040189,9.758612632751465,1.6421797275543213,0.7073626518249512,1.165857434272766
3831920604.0,-0.6852922439575195,0.1639080643653869,10.04677677154541,1.997065186500549,0.3879019618034363,1.2048169374465942
3831928937.0,-0.6002025008201599,0.2226343750953674,9.96424388885498,2.505866289138794,0.0823753848671913,1.2220295667648315
3831937270.0,-0.4858135282993316,0.0841627269983291,9.702020645141602,2.3400139808654785,-0.0640483945608139,1.1435731649398804
3831945603.0,-0.4511012732982635,0.0600130669772625,9.750412940979004,1.843827724456787,-0.0353988707065582,1.142971158027649
3831953936.0,-0.5444707870483398,0.2102273404598236,10.12813949584961,1.9513949155807493,0.2421057373285293,1.1436243057250977
3831962269.0,-0.559524655342102,0.2281881272792816,10.121051788330078,2.201748371124268,0.7799534797668457,1.1672918796539309
3831970602.0,-0.5745217204093933,0.0387145653367042,9.858287811279297,2.2502362728118896,1.0960075855255127,1.1298439502716064
3831978935.0,-0.596007764339447,-0.0468535684049129,9.713933944702148,2.0671966075897217,1.1642693281173706,1.2171627283096311
3831987268.0,-0.6525260210037231,0.1725929677486419,9.917159080505373,2.0442464351654053,0.7362299561500549,1.1216983795166016
3831995601.0,-0.6535420417785645,0.3755172491073608,9.967341423034668,2.3917036056518555,0.4047817885875702,1.105766534805298
3832003934.0,-0.5460641384124756,0.2183643579483032,9.70206356048584,2.255551338195801,0.0051612691022455,1.1184840202331543
3832012267.0,-0.4768560230731964,-0.0408300943672657,9.676682472229004,1.7630277872085571,-0.0296740904450416,1.033431887626648
3832020600.0,-0.5009646415710449,0.0292710158973932,10.015562057495115,1.76592218875885,0.2240477353334427,1.2911624908447266
3832028933.0,-0.5494318604469299,0.2719656825065613,10.306904792785645,2.250723123550415,0.592278003692627,1.158685564994812
3832037266.0,-0.5528164505958557,0.2986840307712555,10.010637283325195,2.516163110733032,0.8851767778396606,1.1267958879470823
3832045599.0,-0.5585103631019592,0.0884616300463676,9.654362678527832,2.0343339443206787,0.9821010828018188,1.2908294200897217
3832053932.0,-0.6375846862792969,0.0274794194847345,9.763346672058104,1.7051140069961548,0.8823336362838745,1.2585299015045166
3832062265.0,-0.6813206672668457,0.2021152973175048,10.031509399414062,1.947911262512207,0.614536702632904,1.1903448104858398
3832070598.0,-0.6235069632530212,0.2954785227775574,9.94563102722168,2.42267107963562,0.41256844997406,1.16544771194458
3832078931.0,-0.513266384601593,0.156024768948555,9.653360366821287,2.285558223724365,0.0416999757289886,1.1384503841400146
3832087264.0,-0.4474214613437652,0.0688248425722122,9.718599319458008,1.874705791473389,-0.1850756555795669,1.112784743309021
3832095597.0,-0.5435842871665955,0.2062247693538665,10.07878303527832,1.786131739616394,0.169386938214302,1.2382433414459229
3832103930.0,-0.5761030912399292,0.2485358119010925,10.19430923461914,2.151339769363404,0.733130693435669,1.256839394569397
3832112263.0,-0.5673501491546631,0.090228259563446,9.921256065368652,2.246137857437134,1.1540749073028564,1.200103759765625
3832120596.0,-0.5743005871772766,-0.0111764697358012,9.712424278259276,1.9236290454864504,1.2156003713607788,1.1863232851028442
3832128929.0,-0.6229385733604431,0.2002055644989013,9.8837890625,2.0291342735290527,0.8251882195472717,1.235579490661621
3832137262.0,-0.6226444840431213,0.3817104995250702,9.91753101348877,2.239734411239624,0.269974023103714,1.1059969663619995
3832145595.0,-0.5503710508346558,0.2222106903791427,9.718340873718262,2.227388381958008,-0.014612921513617,1.0783079862594604
3832153928.0,-0.5013831257820129,-0.0219749622046947,9.687894821166992,1.7615420818328855,-0.0382036343216896,1.190523982048035
3832162261.0,-0.5146291851997375,0.0322045050561428,10.050453186035156,1.7220706939697266,0.1819635182619094,1.251306653022766
3832170594.0,-0.5917096734046936,0.3110227286815643,10.311610221862791,2.2433714866638184,0.634823203086853,1.188884735107422
3832178927.0,-0.5547151565551758,0.3527619838714599,10.040159225463867,2.497490406036377,1.0267722606658936,1.2010003328323364
3832187260.0,-0.5739288926124573,0.121761754155159,9.6345796585083,1.9854106903076167,0.9409390091896056,1.2826842069625854
3832195593.0,-0.6177842020988464,-0.0096691874787211,9.682554244995115,1.6120575666427612,0.8305414915084839,1.2313531637191772
3832203926.0,-0.6444842219352722,0.1734242886304855,10.008838653564451,1.857006311416626,0.4758868813514709,1.2461836338043213
3832212259.0,-0.6154967546463013,0.2575773894786834,9.99604606628418,2.497720956802368,0.0860126093029975,1.1661906242370603
3832220592.0,-0.5045118927955627,0.1443886458873748,9.738426208496094,2.367831230163574,-0.0194283984601497,1.17082679271698
3832228925.0,-0.4542902708053589,0.0761678516864776,9.745564460754396,1.8427393436431885,0.032222706824541,1.128486394882202
3832237258.0,-0.5500719547271729,0.1989872306585312,10.086030960083008,1.829291820526123,0.3097785413265228,1.2187509536743164
3832245591.0,-0.6072742938995361,0.2182202637195587,10.161306381225586,2.09916353225708,0.7550308108329773,1.1819945573806765
3832253924.0,-0.6002411842346191,0.0407046675682067,9.863077163696287,2.189223051071167,1.1228768825531006,1.1579171419143677
3832262257.0,-0.5973554253578186,-0.0463568195700645,9.716670036315918,2.0577197074890137,0.9372504949569702,1.1673943996429443
3832270590.0,-0.6129236817359924,0.1345690339803695,9.878756523132324,1.953392744064331,0.6609240770339966,1.1142704486846924
3832278923.0,-0.6114668250083923,0.3489538729190826,9.963897705078123,2.2574849128723145,0.1671328842639923,1.2058669328689575
3832287256.0,-0.5332385301589966,0.2142211198806762,9.73776912689209,2.2534124851226807,-0.1320798099040985,1.079588770866394
3832295589.0,-0.4776508510112762,-0.0680514872074127,9.690443992614746,1.7857604026794434,0.0642533078789711,1.1999629735946655
3832303922.0,-0.5237109661102295,-0.0418116338551044,10.004355430603027,1.7479408979415894,0.2264810502529144,1.2684680223464966
3832312255.0,-0.5676847696304321,0.2247986793518066,10.270930290222168,2.292909622192383,0.6822351813316345,1.1992073059082031
3832320588.0,-0.584355890750885,0.3056097030639648,10.039765357971191,2.5715925693511963,1.004001259803772,1.233607053756714
3832328921.0,-0.5639457702636719,0.1170843169093132,9.61855125427246,2.081284284591675,1.0835331678390503,1.2873456478118896
3832337254.0,-0.6057451963424683,0.0145771978422999,9.674741744995115,1.633368730545044,0.7469879984855652,1.1900629997253418
3832345587.0,-0.6527816653251648,0.1414719671010971,9.966423034667969,1.8298550844192505,0.333394855260849,1.150770664215088
3832353920.0,-0.5874029397964478,0.2340286076068878,10.0210599899292,2.3712377548217773,0.1457193791866302,1.1940076351165771
3832362253.0,-0.4762695133686065,0.1228117048740387,9.77530002593994,2.324953079223633,-0.0132553661242127,1.111632227897644
3832370586.0,-0.4228621423244476,0.0637268871068954,9.729162216186523,1.9924287796020508,-0.0762151554226875,1.088861107826233
3832378919.0,-0.5220714807510376,0.1930726170539856,10.049091339111328,1.862820744514465,0.3793980479240417,1.2294576168060305
3832387252.0,-0.5718693137168884,0.280965507030487,10.141033172607422,2.105131387710572,0.9203706979751588,1.2264608144760132
3832395585.0,-0.6008151173591614,0.1079966500401496,9.85910701751709,2.2861216068267822,1.1488752365112305,1.1441365480422974
3832403918.0,-0.6023034453392029,-0.0441253259778022,9.690465927124023,2.043452501296997,1.119034767150879,1.110018610954285
3832412251.0,-0.6312425136566162,0.1331273913383484,9.87157154083252,1.9630239009857176,0.615510106086731,1.2448261976242063
3832420584.0,-0.653542697429657,0.3816333413124084,10.008788108825684,2.238837957382202,0.2368036210536956,1.157942771911621
3832428917.0,-0.5639611482620239,0.3185830414295196,9.786885261535645,2.384557247161865,-0.0329783223569393,1.1448537111282349
3832437250.0,-0.494754433631897,0.0500889346003532,9.667654991149902,1.9092081785202024,-0.0042135412804782,1.1165244579315186
3832445583.0,-0.521892786026001,0.0163208879530429,9.945008277893066,1.7086999416351318,0.1965124011039734,1.2151392698287964
3832453916.0,-0.5502496361732483,0.2689023315906524,10.246882438659668,2.1514551639556885,0.5699295997619629,1.153780460357666
3832462249.0,-0.5843568444252014,0.3621935844421386,10.054478645324709,2.448387861251831,1.0506960153579712,1.1824555397033691
3832470582.0,-0.5630372762680054,0.1722216457128524,9.67474365234375,2.107027053833008,1.0850447416305542,1.2119117975234983
3832478915.0,-0.6205176711082458,0.0168778710067272,9.69743537902832,1.6990690231323242,0.7844616174697876,1.1005924940109253
3832487248.0,-0.6708022356033325,0.1663588583469391,9.994595527648926,1.78316068649292,0.4237107038497925,1.1967483758926392
3832495581.0,-0.6365692019462585,0.2962916493415832,10.017943382263184,2.305383682250977,0.2008412182331085,1.158096432685852
3832503914.0,-0.5325141549110413,0.2046089023351669,9.768441200256348,2.402000665664673,0.0570941306650638,1.0312033891677856
3832512247.0,-0.4705332815647125,0.0761271342635154,9.669153213500977,1.9504212141036987,-0.0494738928973674,1.1586341857910156
3832520580.0,-0.523140013217926,0.1535576432943344,10.026434898376465,1.675222396850586,0.3505052030086517,1.212116837501526
3832528913.0,-0.5913439989089966,0.2724558115005493,10.22000789642334,2.014943838119507,0.7696821093559265,1.2105799913406372
3832537246.0,-0.5885612964630127,0.1698249876499176,9.9342622756958,2.295137882232666,0.985891819000244,1.241112232208252
3832545579.0,-0.5761377811431885,-0.0072424765676259,9.698156356811523,2.1535680294036865,1.0789228677749634,1.2428796291351318
3832553912.0,-0.620162844657898,0.0960298180580139,9.801837921142578,1.8480669260025024,0.640407145023346,1.151641607284546
3832562245.0,-0.6304876208305359,0.3493296802043915,9.98811149597168,2.0272130966186523,0.2238171845674514,1.247157096862793
3832570578.0,-0.5710429549217224,0.3253349065780639,9.842531204223633,2.3307418823242188,0.0196461211889982,1.179049015045166
3832578911.0,-0.4940132200717926,0.0308265779167413,9.66637134552002,1.8895363807678225,-0.0661743730306625,1.2078392505645752
3832587244.0,-0.5159339308738708,-0.0600145868957042,9.857857704162598,1.6647459268569946,0.1516618877649307,1.2223113775253296
3832595577.0,-0.5577941536903381,0.1831885129213333,10.257670402526855,2.105003595352173,0.4431262910366058,1.1824811697006226
3832603910.0,-0.5781924724578857,0.3343571722507477,10.12666130065918,2.4699552059173584,0.9821779131889344,1.1670101881027222
3832612243.0,-0.5797141790390015,0.1945297867059707,9.728799819946287,2.1171703338623047,1.1043578386306765,1.1553558111190796
3832620576.0,-0.6036527752876282,-0.052393864840269,9.616580963134766,1.667819857597351,0.9089980721473694,1.1900629997253418
3832628909.0,-0.6203383207321167,0.0626806989312172,9.932668685913086,1.6135945320129397,0.5539590716362,1.2338377237319946
3832637242.0,-0.6340438723564148,0.2255262583494186,10.07191276550293,2.267039060592652,0.233653038740158,1.173234462738037
3832645575.0,-0.5268561840057373,0.1735123395919799,9.802746772766112,2.484170913696289,-0.008926561102271,1.0378631353378296
3832653908.0,-0.4411853849887848,0.0259650200605392,9.66258716583252,1.9798778295516968,-0.0184806697070598,1.1565850973129272
3832662241.0,-0.4848791360855102,0.0436683259904384,9.944194793701172,1.678116798400879,0.39691823720932,1.2448005676269531
3832670574.0,-0.569535493850708,0.191089242696762,10.2479829788208,2.004159927368164,0.5881028175354004,1.1058945655822754
3832678907.0,-0.5882131457328796,0.1779965460300445,10.002805709838867,2.3472628593444824,0.9821521639823914,1.1869124174118042
3832687240.0,-0.577065646648407,-0.0119361691176891,9.664436340332031,2.127851247787476,1.0565615892410278,1.1748480796813965
3832695573.0,-0.5971369743347168,-0.0125832688063383,9.686753273010254,1.94063687324524,0.8728049993515015,1.1648329496383667
3832703906.0,-0.6390281915664673,0.2274879664182663,9.978565216064451,2.098292589187622,0.2699996829032898,1.153921365737915
3832712239.0,-0.5921522378921509,0.3102670013904571,9.975360870361328,2.41619086265564,0.0577600970864295,1.208633303642273
3832720572.0,-0.5185511708259583,0.0900773331522941,9.73147964477539,2.1194498538970947,0.0199278742074966,1.2126802206039429
3832728905.0,-0.4991447627544403,-0.0674972534179687,9.807629585266112,1.8447884321212769,0.2080900222063064,1.1274104118347168
3832737238.0,-0.5561438798904419,0.1374941766262054,10.167155265808104,2.0803112983703613,0.5409725904464722,1.1995145082473757
3832745571.0,-0.5926823616027832,0.3363554179668426,10.155476570129396,2.438705921173096,0.898726761341095,1.2640882730484009
3832753904.0,-0.584392249584198,0.2444516271352768,9.775922775268556,2.4101457595825195,1.0135554075241089,1.1441878080368042
3832762237.0,-0.5776503086090088,0.0208515934646129,9.580362319946287,1.8397170305252075,0.8734966516494751,1.155970335006714
3832770570.0,-0.6491748094558716,0.0676512569189071,9.883423805236816,1.7460967302322388,0.5420483350753784,1.2811213731765747
3832778903.0,-0.6331977248191833,0.2765001058578491,10.090474128723145,2.213838577270508,0.1908772885799408,1.1241319179534912
3832787236.0,-0.5644484758377075,0.3023880124092102,9.901945114135742,2.490574836730957,0.0814020335674285,1.155791163444519
3832795569.0,-0.4593192040920257,0.1141962930560112,9.653340339660645,2.096320152282715,0.1313498020172119,1.2173932790756226
3832803902.0,-0.4842936992645263,0.1009561493992805,9.869876861572266,1.7489142417907717,0.1642384827136993,1.1628093719482422
3832812235.0,-0.5940489172935486,0.2715098261833191,10.177581787109377,1.9617429971694944,0.5461723208427429,1.197209358215332
3832820568.0,-0.6198163032531738,0.2649639546871185,10.056806564331056,2.3302807807922363,0.8748030066490173,1.2239763736724854
3832828901.0,-0.6052160859107971,0.0845381841063499,9.7080078125,2.261404275894165,1.075260043144226,1.1941100358963013
3832837234.0,-0.5759793519973755,-0.0012665782123804,9.702438354492188,1.8966827392578125,0.7237814664840698,1.2603739500045776
3832845567.0,-0.6296133399009705,0.2672811448574066,9.983304977416992,1.9407137632369995,0.2752761840820312,1.104997992515564
3832853900.0,-0.6292104125022888,0.4027463495731354,10.016446113586426,2.237710952758789,0.0048154760152101,1.07351815700531
3832862233.0,-0.5209828615188599,0.2282885909080505,9.716411590576172,2.2251086235046387,-0.0318769142031669,1.180201530456543
3832870566.0,-0.500429093837738,-0.000981846707873,9.70473289489746,1.77895987033844,0.0500502176582813,1.1222108602523804
3832878899.0,-0.5364245176315308,0.1280217468738556,10.079177856445312,1.7723768949508667,0.5479140877723694,1.122569561004639
3832887232.0,-0.6009616851806641,0.3194022178649902,10.209776878356934,2.2041563987731934,0.7534939646720886,1.1507195234298706
3832895565.0,-0.619209349155426,0.290169358253479,9.918560028076172,2.451743125915528,0.9124814867973328,1.1417032480239868
3832903898.0,-0.5959048867225647,0.0684218034148216,9.595090866088867,1.81807279586792,0.8631997108459473,1.1320723295211792
3832912231.0,-0.5846824049949646,0.0421562120318412,9.779778480529783,1.6049622297286987,0.4693808555603027,1.2612448930740356
3832920564.0,-0.6395490765571594,0.2202728986740112,10.082356452941896,2.0153026580810547,0.3809349536895752,1.280583739280701
3832928897.0,-0.5921462178230286,0.2622760236263275,9.92385482788086,2.39180588722229,0.2033770084381103,1.168342113494873
3832937230.0,-0.493284672498703,0.0767574235796928,9.678863525390623,2.165581226348877,0.078968696296215,1.1487215757369995
3832945563.0,-0.4707567095756531,-0.0025942684151232,9.763033866882324,1.7064460515975952,0.256219208240509,1.17487370967865
3832953896.0,-0.5521221160888672,0.1775531768798828,10.142101287841797,1.8897415399551392,0.5597734451293945,1.1515647172927856
3832962229.0,-0.6238393187522888,0.2320727854967117,10.127761840820312,2.1388399600982666,0.9917832612991332,1.3139846324920654
3832970562.0,-0.5833048820495605,0.0596790835261344,9.808272361755373,2.252976894378662,1.105868935585022,1.1236964464187622
3832978895.0,-0.5687556266784668,-0.068634457886219,9.635390281677246,1.8863091468811035,0.8233696818351746,1.0892454385757446
3832987228.0,-0.6296885013580322,0.1266467273235321,9.921536445617676,1.931057095527649,0.3208951354026794,1.1743868589401243
3832995561.0,-0.6067606210708618,0.299310952425003,10.045379638671877,2.308380365371704,0.080428697168827,1.173234462738037
3833003894.0,-0.5238407850265503,0.1973716020584106,9.809714317321776,2.347877264022827,0.0618071481585502,1.09429132938385
3833012227.0,-0.4698081612586975,-0.0396646261215209,9.703256607055664,1.8930200338363647,0.2403127402067184,1.1558679342269895
3833020560.0,-0.5140690207481384,-0.0103384982794523,9.982588768005373,1.7229926586151123,0.4485564529895782,1.1525124311447144
3833028893.0,-0.5898206830024719,0.2409956753253936,10.199832916259766,2.186943531036377,0.7133308053016663,1.1937514543533323
3833037226.0,-0.5766056776046753,0.3006424903869629,9.9490327835083,2.453818321228028,1.0289238691329956,1.1685725450515747
3833045559.0,-0.5620232820510864,0.0791642069816589,9.631370544433594,2.1100752353668213,0.8555667400360107,1.2015382051467896
3833053892.0,-0.6000624299049377,-0.0344709083437919,9.700563430786133,1.5809873342514038,0.6063913702964783,1.1621177196502686
3833062225.0,-0.6441112160682678,0.1514386534690857,10.035941123962402,1.8908683061599727,0.3960217237472534,1.2633196115493774
3833070558.0,-0.5933149456977844,0.2866076231002807,10.036697387695312,2.3817906379699707,0.1515338122844696,1.258094310760498
3833078891.0,-0.5139070749282837,0.1559584736824035,9.731926918029783,2.3389124870300293,0.0750497058033943,1.183685064315796
3833087224.0,-0.4536419808864593,0.0330891720950603,9.6725435256958,1.911411166191101,0.1320413798093795,1.1511292457580566
3833095557.0,-0.5197750329971313,0.1634895950555801,10.023515701293944,1.7903581857681274,0.3905914723873138,1.2206718921661377
3833103890.0,-0.5965517163276672,0.2911538481712341,10.165518760681152,2.235380172729492,0.7945023775100708,1.1558936834335327
3833112223.0,-0.6110899448394775,0.1422136723995208,9.849251747131348,2.3523857593536377,0.9618399739265442,1.1215704679489136
3833120556.0,-0.5852058529853821,-0.0138296922668814,9.681530952453612,2.0494463443756104,1.006844401359558,1.1547666788101196
3833128889.0,-0.6256961822509766,0.1251005977392196,9.841314315795898,1.911026954650879,0.5448916554450989,1.1688287258148191
3833137222.0,-0.6388517022132874,0.3633385002613067,10.02671718597412,2.269728660583496,0.2077570706605911,1.18194317817688
3833145555.0,-0.5637603998184204,0.3415674865245819,9.82681655883789,2.463935852050781,0.0068646152503788,1.2733604907989502
3833153888.0,-0.5098864436149597,0.0426416024565696,9.62636661529541,1.871119856834412,0.0007428128737956,1.1643719673156738
3833162221.0,-0.5041505098342896,-0.0146005833521485,9.854727745056152,1.6920506954193115,0.2489703446626663,1.251485824584961
3833170554.0,-0.5889450907707214,0.2390672117471695,10.219058990478516,1.9838227033615112,0.591099739074707,1.178920865058899
3833178887.0,-0.5853634476661682,0.3729134500026703,10.095415115356444,2.5115528106689453,0.9238030314445496,1.167932391166687
3833187220.0,-0.5886093974113464,0.2300435453653335,9.684327125549316,2.239478349685669,0.8717549443244934,1.2673667669296265
3833195553.0,-0.6198692917823792,0.0351671539247036,9.65643310546875,1.585137128829956,0.8468835353851318,1.3230777978897097
3833203886.0,-0.6521440148353577,0.1740723401308059,9.982606887817385,1.612825870513916,0.5115419030189514,1.1887823343276978
3833212219.0,-0.6345793604850769,0.2927997410297394,10.093490600585938,2.309251308441162,0.2045809030532837,1.102436661720276
3833220552.0,-0.5452213883399963,0.2170282304286956,9.813555717468262,2.444955348968506,0.0043800338171422,1.1090706586837769
3833228885.0,-0.4594215154647827,0.1019934862852096,9.685601234436035,1.9779822826385496,0.110346108675003,1.1703143119812012
3833237218.0,-0.5108293890953064,0.1493620127439499,9.9965181350708,1.702322244644165,0.3286562860012054,1.232147216796875
3833245551.0,-0.5805566310882568,0.3129024505615234,10.160567283630373,2.004313945770264,0.6183276176452637,1.2561990022659302
3833253884.0,-0.598899781703949,0.2310724854469299,9.958909034729004,2.2569727897644043,0.8664271831512451,1.1901655197143557
3833262217.0,-0.5746977925300598,-0.0315395034849643,9.716130256652832,2.0054924488067627,1.0454450845718384,1.1614775657653809
3833270550.0,-0.6003545522689819,0.0015069679357111,9.806756973266602,1.7022963762283323,0.8125859498977661,1.199668288230896
3833278883.0,-0.6427032947540283,0.2723818123340606,10.032477378845217,2.1215243339538574,0.4543965458869934,1.2852967977523804
3833287216.0,-0.6060629487037659,0.359979510307312,9.93500804901123,2.346494436264038,0.1851653009653091,1.2245652675628662
3833295549.0,-0.5239830017089844,0.1125782057642936,9.710077285766602,2.000573873519897,0.1202332079410553,1.1382709741592407
3833303882.0,-0.5005328059196472,-0.0656765699386596,9.76897144317627,1.6445107460021973,0.1419797241687774,1.2334790229797363
3833312215.0,-0.5615109801292419,0.0906041637063026,10.184261322021484,1.7989386320114136,0.3326264321804046,1.1764873266220093
3833320548.0,-0.6036180853843689,0.3204283714294433,10.200170516967772,2.3772571086883545,0.678623616695404,1.2022297382354736
3833328881.0,-0.5689823627471924,0.2315283417701721,9.830850601196287,2.4327120780944824,0.8377136588096619,1.2651127576828003
3833337214.0,-0.569819450378418,-0.017261641100049,9.602362632751465,1.7718902826309204,0.8427851796150208,1.11263108253479
3833345547.0,-0.6425905227661133,0.0077302767895162,9.84009075164795,1.569204807281494,0.5940197110176086,1.1441110372543335
3833353880.0,-0.6417141556739807,0.1970592439174652,10.102235794067385,2.1258277893066406,0.3917953073978424,1.1568667888641355
3833362213.0,-0.5789536833763123,0.2186972349882125,9.860968589782717,2.5317623615264893,0.1221286803483963,1.0658082962036133
3833370546.0,-0.4711806178092956,0.0292971543967723,9.623791694641112,2.137046813964844,0.1138808950781822,1.1768717765808103
3833378879.0,-0.4854248762130737,0.0122990272939205,9.800666809082031,1.7076497077941897,0.1523790806531906,1.1756677627563477
3833387212.0,-0.5569886565208435,0.1726659536361694,10.188939094543455,1.8586970567703247,0.4635152220726013,1.049133539199829
3833395545.0,-0.6062748432159424,0.2300251126289367,10.093746185302734,2.356330156326294,0.7970380783081055,1.266470193862915
3833403878.0,-0.5873375535011292,0.0494526363909244,9.73905086517334,2.297801733016968,1.0321513414382937,1.203715443611145
3833412211.0,-0.5947933197021484,-0.0606815479695797,9.655021667480469,1.962076187133789,0.9387362003326416,1.262013554573059
3833420544.0,-0.6317678093910217,0.1690547466278076,9.938474655151367,1.8906890153884888,0.4928434491157532,1.1271030902862549
3833428877.0,-0.6223657727241516,0.3333197832107544,10.030176162719728,2.4176509380340576,0.0589895844459533,1.1812516450881958
3833437210.0,-0.5355180501937866,0.229300394654274,9.746268272399902,2.363886594772339,-0.0114111425355076,1.197132587432861
3833445543.0,-0.4557383060455322,-0.0388773567974567,9.667131423950195,1.961691856384277,0.1486650258302688,1.2972328662872314
3833453876.0,-0.4829765260219574,0.0294483099132776,10.009588241577148,1.8195327520370483,0.4561382830142975,1.2012819051742554
3833462209.0,-0.5702979564666748,0.2992451786994934,10.271687507629396,2.3451881408691406,0.6428148746490479,1.169033765792847
3833470542.0,-0.5756314396858215,0.3569037616252899,9.98343563079834,2.517162322998047,1.0201637744903564,1.197798490524292
3833478875.0,-0.5608313083648682,0.1221803575754165,9.608687400817873,2.109870195388794,0.9758512377738952,1.1821482181549072
3833487208.0,-0.6102455854415894,0.009040517732501,9.710105895996094,1.6148748397827148,0.780644953250885,1.220902442932129
3833495541.0,-0.6499053835868835,0.1923548877239227,10.07528305053711,1.9232704639434808,0.3250446617603302,1.1693410873413086
3833503874.0,-0.613672137260437,0.3285290002822876,10.035295486450195,2.539267301559448,0.2280435264110565,1.1301000118255615
3833512207.0,-0.5128200650215149,0.2161694318056106,9.75589084625244,2.487347364425659,-0.0347969383001327,1.058943748474121
3833520540.0,-0.4705522656440735,0.0703581944108009,9.702902793884276,1.8171504735946653,0.0683131664991378,1.1172672510147097
3833528873.0,-0.5099132061004639,0.1810560971498489,10.0547513961792,1.7327004671096802,0.308958888053894,1.1671124696731567
3833537206.0,-0.5831360816955566,0.3010165095329284,10.242321968078612,2.188121795654297,0.6920711398124695,1.259989857673645
3833545539.0,-0.583109974861145,0.2047448307275772,9.857398986816406,2.3882455825805664,1.0206760168075562,1.2098115682601929
3833553872.0,-0.5839052200317383,-0.0020538298413157,9.626144409179688,2.024958848953247,1.0262343883514404,1.1762312650680542
3833562205.0,-0.6275948882102966,0.0823009684681892,9.847979545593262,1.7328284978866575,0.6612314581871033,1.138911485671997
3833570538.0,-0.6466940641403198,0.3323524594306946,10.089157104492188,2.136483192443848,0.3895925283432007,1.2059438228607178
3833578871.0,-0.5892486572265625,0.3485927879810333,9.93142795562744,2.435094118118286,0.1410319805145263,1.202409029006958
3833587204.0,-0.4820803701877594,0.0786841288208961,9.614923477172852,1.9789303541183472,0.26646488904953,1.1256433725357056
3833595537.0,-0.4743894040584564,-0.048789344727993,9.781123161315918,1.5774013996124268,0.2485092878341674,1.2438015937805176
3833603870.0,-0.5398644208908081,0.1934338808059692,10.169116020202637,1.927727222442627,0.4809328317642212,1.3271502256393433
3833612203.0,-0.5457218885421753,0.3431135714054107,10.114386558532717,2.446364164352417,0.6619742512702942,1.2234638929367063
3833620536.0,-0.5745242834091187,0.2099272012710571,9.772427558898926,2.356919765472412,0.95028817653656,1.2680329084396362
3833628869.0,-0.6059319972991943,-0.0248441379517316,9.612010955810549,1.6970456838607788,0.8917083144187927,1.2745898962020874
3833637202.0,-0.6564792990684509,0.0774112790822982,9.94997787475586,1.5830365419387815,0.6200181841850281,1.2123985290527344
3833645535.0,-0.6642870903015137,0.2639481127262115,10.065690994262695,2.171677350997925,0.4265538156032562,1.2371675968170166
3833653868.0,-0.5858349204063416,0.2392118573188781,9.807315826416016,2.426795244216919,0.2086023241281509,1.0851470232009888
3833662201.0,-0.4647838175296783,0.0237794611603021,9.588173866271973,1.945119380950928,0.038139596581459,1.1034868955612185
3833670534.0,-0.4823207557201385,0.024690456688404,9.848007202148438,1.6688953638076782,0.043134368956089,1.1185990571975708
3833678867.0,-0.5433048009872437,0.2120550572872162,10.238225936889648,1.938408374786377,0.2861622273921966,1.1075338125228882
3833687200.0,-0.5689849257469177,0.2363201975822448,10.091012001037598,2.331715106964112,0.7514448165893555,1.123645305633545
3833695533.0,-0.560780942440033,0.0368345975875854,9.763815879821776,2.2014408111572266,0.9785405993461608,1.099644660949707
3833703866.0,-0.5850433707237244,-0.0418901368975639,9.707639694213867,1.7901790142059326,0.9120717644691468,1.234017014503479
3833712199.0,-0.6355922818183899,0.1822012960910797,9.971949577331545,1.95331609249115,0.5783438086509705,1.2470290660858154
3833720532.0,-0.6276227235794067,0.3376969695091247,10.00163745880127,2.33486557006836,0.2286326587200164,1.2051753997802734
3833728865.0,-0.5382363200187683,0.1440999954938888,9.723111152648926,2.307279109954834,0.0265363492071628,1.1325846910476685
3833737198.0,-0.4722388386726379,-0.0624634325504303,9.696324348449709,1.8604899644851685,0.0196205042302608,1.1521539688110352
3833745531.0,-0.4996530711650848,0.0557798221707344,10.058772087097168,1.757392644882202,0.262520283460617,1.160248041152954
3833753864.0,-0.5429136157035828,0.2897662222385406,10.288606643676758,2.2650411128997803,0.5354655981063843,1.162117838859558
3833762197.0,-0.5688567161560059,0.2627165019512176,9.991677284240724,2.5030996799468994,0.9554877877235411,1.1730551719665527
3833770530.0,-0.5572633147239685,0.0443820767104625,9.637598991394045,1.9729878902435305,0.987684965133667,1.2311482429504397
3833778863.0,-0.598103404045105,0.0027768181171268,9.766462326049805,1.6446387767791748,0.9001098871231079,1.3021254539489746
3833787196.0,-0.6676384210586548,0.1869202256202697,10.046305656433104,2.079184293746948,0.5739381909370422,1.3030730485916138
3833795529.0,-0.6212449073791504,0.2567536532878876,9.96916961669922,2.523693799972534,0.2163122296333313,1.1355302333831787
3833803862.0,-0.5125033855438232,0.1073663830757141,9.685955047607422,2.3059983253479004,0.0516639091074466,1.1253613233566284
3833812195.0,-0.4569660127162933,0.0124537041410803,9.76050853729248,1.7630534172058103,0.0413157567381858,1.1867587566375732
3833820528.0,-0.5145868062973022,0.1893600225448608,10.129496574401855,1.7667161226272583,0.1782494336366653,1.204867959022522
3833828861.0,-0.5871066451072693,0.2621552646160126,10.188239097595217,2.353666543960572,0.6938384175300598,1.18319833278656
3833837194.0,-0.5891425609588623,0.1291270107030868,9.85175609588623,2.290732383728028,1.1410629749298096,1.2293809652328491
3833845527.0,-0.5601834058761597,-0.0318375304341316,9.632649421691896,1.891918659210205,1.010379195213318,1.158583164215088
3833853860.0,-0.6285485625267029,0.1432336866855621,9.85876750946045,1.9064418077468872,0.7181974649429321,1.1955187320709229
3833862193.0,-0.662434458732605,0.3505577743053436,10.091212272644045,2.254667282104492,0.371893048286438,1.228842854499817
3833870526.0,-0.5820980668067932,0.3079689443111419,9.837220191955566,2.39954161643982,0.1883414834737777,1.1670100688934326
3833878859.0,-0.4937645494937897,0.0475327596068382,9.615629196166992,2.023037910461426,0.059578713029623,1.1310222148895264
3833887192.0,-0.5026758313179016,0.0239159800112247,9.851404190063477,1.6595205068588257,0.2101647853851318,1.278995394706726
3833895525.0,-0.5526142716407776,0.2594780027866363,10.189420700073242,2.0444514751434326,0.4480186402797699,1.2414708137512207
3833903858.0,-0.5797728300094604,0.3529277443885803,10.063628196716309,2.5665462017059326,0.8274165987968445,1.233479142189026
3833912191.0,-0.5558169484138489,0.1642457544803619,9.7119722366333,2.165222644805908,0.947547435760498,1.2643187046051023
3833920524.0,-0.5884412527084351,0.0013411414111033,9.685941696166992,1.6479942798614502,0.9867628812789916,1.220595121383667
3833928857.0,-0.6476793885231018,0.1485328823328018,9.963180541992188,1.7077009677886963,0.5878466963768005,1.085915446281433
3833937190.0,-0.6611079573631287,0.3278842270374298,10.046588897705078,2.336172103881836,0.300992876291275,1.0743635892868042
3833945523.0,-0.5319163799285889,0.2023951262235641,9.722490310668944,2.3626060485839844,0.1513032913208007,1.13819420337677
3833953856.0,-0.4466115236282348,0.0034383959136903,9.632378578186035,1.8409974575042725,0.1175693273544311,1.2042019367218018
3833962189.0,-0.4992338120937347,0.0792383626103401,9.97233772277832,1.6038352251052856,0.1363445818424224,1.1848375797271729
3833970522.0,-0.5710518956184387,0.2763604819774627,10.260029792785645,2.09916353225708,0.4441252648830414,1.1644999980926514
3833978855.0,-0.5845010876655579,0.2368881702423095,10.026926040649414,2.466958522796631,0.9218051433563232,1.2430845499038696
3833987188.0,-0.5450080633163452,-0.0002770327264443,9.6980619430542,2.0467309951782227,1.0515412092208862,1.2374237775802612
3833995521.0,-0.6057440638542175,0.0005562586011365,9.774258613586426,1.7754249572753906,0.7968587875366211,1.2405229806900024
3834003854.0,-0.6286070942878723,0.2825782299041748,10.03857421875,2.0098977088928223,0.4293714165687561,1.1520259380340576
3834012187.0,-0.6160581111907959,0.3407174944877624,9.941055297851562,2.352744579315185,0.13752281665802,1.2284843921661377
3834020520.0,-0.5175918340682983,0.0958998650312423,9.638087272644045,2.089506864547729,-0.1277509927749633,1.2006161212921145
3834028853.0,-0.500932514667511,-0.074327751994133,9.74807071685791,1.735620617866516,0.1625991612672805,1.1779218912124634
3834037186.0,-0.5507158041000366,0.1519338190555572,10.173762321472168,1.867226481437683,0.4400525391101837,1.2199546098709106
3834045519.0,-0.5877907872200012,0.3432956039905548,10.203219413757324,2.36293888092041,0.7731657028198242,1.1681115627288818
3834053852.0,-0.5761057138442993,0.2426812946796417,9.811531066894531,2.323006391525269,0.9672191739082336,1.18327534198761
3834062185.0,-0.5774344801902771,-0.0176735334098339,9.589727401733398,1.7667676210403442,0.926774263381958,1.2036898136138916
3834070518.0,-0.6379476189613342,0.0433124862611293,9.85324478149414,1.6409502029418943,0.7167887091636658,1.1453148126602173
3834078851.0,-0.6573556065559387,0.2283316850662231,10.078062057495115,2.094655036926269,0.392819881439209,1.1992839574813845
3834087184.0,-0.5877411365509033,0.2501988708972931,9.867279052734377,2.4572503566741943,0.1594486385583877,1.17487370967865
3834095517.0,-0.4824757575988769,0.0705971717834472,9.646368026733398,2.0767767429351807,0.0425708554685115,1.143112063407898
3834103850.0,-0.5082533359527588,0.0415851399302482,9.856683731079102,1.6987104415893557,0.1088348776102066,1.1292290687561035
3834112183.0,-0.5703442096710205,0.2188560217618942,10.170843124389648,1.8422781229019165,0.5061628818511963,1.1746432781219482
3834120516.0,-0.6229056715965271,0.2325751185417175,10.085349082946776,2.3034112453460693,0.8795928955078125,1.174720048904419
3834128849.0,-0.5890988707542419,0.0698854848742485,9.718218803405762,2.2006726264953613,1.0207271575927734,1.2858858108520508
3834137182.0,-0.5624653100967407,-0.0166781321167945,9.64897918701172,1.7633607387542725,0.8826920986175537,1.3118841648101809
3834145515.0,-0.6401539444923401,0.2032849639654159,9.911069869995115,1.8798285722732544,0.4157958626747131,1.101642608642578
3834153848.0,-0.618926465511322,0.343883216381073,10.020764350891112,2.309558868408203,0.124766930937767,1.0791276693344116
3834162181.0,-0.546295702457428,0.1953979879617691,9.754385948181152,2.24890398979187,0.0972316414117813,1.1177541017532349
3834170514.0,-0.4903931617736816,-0.0427878461778163,9.681666374206545,1.8476827144622805,0.1619075685739517,1.178895115852356
3834178847.0,-0.5280342102050781,0.0797142907977104,9.997164726257324,1.9184547662734983,0.3783734738826751,1.2785345315933228
3834187180.0,-0.5767490267753601,0.3102680742740631,10.165236473083496,2.315885305404663,0.6556732058525085,1.1842740774154663
3834195513.0,-0.5623834133148193,0.2971497476100921,9.939424514770508,2.4523580074310303,0.8458589315414429,1.2374494075775146
3834203846.0,-0.5501748323440552,0.0486335381865501,9.619306564331056,2.0171210765838623,0.8080011010169983,1.086094856262207
3834212179.0,-0.5997543334960938,-0.0252104736864566,9.743734359741213,1.5155941247940063,0.6459140777587891,1.2981805801391602
3834220512.0,-0.6645328402519226,0.1966727524995803,10.103361129760742,1.9569787979125977,0.3703818023204803,1.11322021484375
3834228845.0,-0.5785518288612366,0.2883018255233764,10.031431198120115,2.434248924255371,0.1723581850528717,1.1252845525741575
3834237178.0,-0.4896136820316314,0.1567255854606628,9.713272094726562,2.3103015422821045,0.0695170313119888,1.162604570388794
3834245511.0,-0.4566572308540344,0.0385028831660747,9.717280387878418,1.7742211818695068,0.026280203834176,1.1480813026428225
3834253844.0,-0.5059970617294312,0.1523737460374832,10.096735954284668,1.7458664178848269,0.3590347468852997,1.2428027391433716
3834262177.0,-0.5818552374839783,0.2474937587976455,10.214313507080078,2.298365592956543,0.6715284585952759,1.271772384643555
3834270510.0,-0.5875205993652344,0.1334393620491027,9.908717155456545,2.370802402496338,1.005999207496643,1.2274342775344849
3834278843.0,-0.5771545767784119,-0.0370373763144016,9.714734077453612,2.059922218322754,0.9412207007408142,1.1430864334106443
3834287176.0,-0.6201391816139221,0.1210076659917831,9.905061721801758,1.9186086654663088,0.6095932126045227,1.2069171667099
3834295509.0,-0.6445099115371704,0.3488844931125641,10.053295135498049,2.198572397232056,0.2599076330661773,1.145263671875
3834303842.0,-0.5678029656410217,0.2925827801227569,9.819698333740234,2.3842756748199463,-0.0090034054592251,1.222208857536316
3834312175.0,-0.4990832805633545,0.0156510043889284,9.67137050628662,1.9799803495407104,-0.0155094200745224,1.155048370361328
3834320508.0,-0.5238438844680786,-0.0346369557082653,9.897589683532717,1.707829236984253,0.2722537517547607,1.2880632877349854
3834328841.0,-0.5809713006019592,0.2494862526655197,10.236010551452637,2.112483024597168,0.6002184152603149,1.1986181735992432
3834337174.0,-0.5897151827812195,0.3587840497493744,10.146653175354004,2.5229508876800537,0.8658380508422852,1.2298418283462524
3834345507.0,-0.5760870575904846,0.1600886881351471,9.686917304992676,2.312145471572876,0.9036446213722228,1.0558699369430542
3834353840.0,-0.6098339557647705,-0.0102229863405227,9.604759216308594,1.7377721071243286,0.775394082069397,1.2980525493621826
3834362173.0,-0.6461526155471802,0.1278338432312011,9.924015998840332,1.8487073183059688,0.4894368052482605,1.1168830394744873
3834370506.0,-0.6199200749397278,0.2767978608608246,10.05945873260498,2.270957946777344,0.2913875579833984,1.1651147603988647
3834378839.0,-0.5208556056022644,0.1835057586431503,9.76113510131836,2.427922010421753,0.1427481323480606,1.2266401052474976
3834387172.0,-0.4666709005832672,0.0267445407807827,9.682644844055176,1.867995023727417,0.1006895676255226,1.0628114938735962
3834395505.0,-0.5189172625541687,0.1055226773023605,9.980695724487305,1.738719820976257,0.3223294913768768,1.2355793714523315
3834403838.0,-0.5818369388580322,0.2635034620761871,10.172463417053224,2.1709859371185303,0.6511651873588562,1.1774351596832275
3834412171.0,-0.5912879109382629,0.2175577878952026,9.936144828796388,2.412041425704956,0.9330242276191713,1.1867332458496094
3834420504.0,-0.5768530964851379,0.0103147430345416,9.637598991394045,2.105336427688598,0.918039858341217,1.114193558692932
3834428837.0,-0.5909602046012878,0.0067573934793472,9.757120132446287,1.8237847089767456,0.6095932126045227,1.2407535314559937
3834437170.0,-0.6235957741737366,0.2873769700527191,10.053452491760254,2.122523784637451,0.3593164980411529,1.287730097770691
3834445503.0,-0.5747442245483398,0.3543609380722046,10.011832237243652,2.4306883811950684,0.0050716181285679,1.3142919540405271
3834453836.0,-0.4994137287139892,0.1356456875801086,9.721052169799805,2.136380672454834,0.2225108742713928,1.2707477807998655
3834462169.0,-0.473425805568695,-0.036135233938694,9.78114891052246,1.7159743309020996,0.2669771611690521,1.1476200819015503
3834470502.0,-0.522923469543457,0.1545848846435547,10.129793167114258,1.807981014251709,0.5934818387031555,1.166318655014038
3834478835.0,-0.579175591468811,0.3412277996540069,10.178828239440918,2.275363683700561,0.640612006187439,1.1722097396850586
3834487168.0,-0.5584456324577332,0.2454282343387603,9.79481029510498,2.4375789165496826,0.905744969844818,1.077975153923035
3834495501.0,-0.5551111102104187,0.0072850217111408,9.59727668762207,1.7693288326263428,0.7918384075164795,1.1889359951019287
3834503834.0,-0.6144656538963318,0.0518391467630863,9.899365425109863,1.5486880540847778,0.5636668801307678,1.2436480522155762
3834512167.0,-0.6485779285430908,0.268835037946701,10.170997619628906,2.1402487754821777,0.5084938406944275,1.2050472497940063
3834520500.0,-0.5595235228538513,0.276995301246643,9.920147895812988,2.460401058197021,0.2169269770383834,1.1885005235671997
3834528833.0,-0.4688955843448639,0.0671297088265419,9.644508361816406,2.100367307662964,0.1007151678204536,1.1932134628295898
3834537166.0,-0.4816087782382965,0.0401569046080112,9.798568725585938,1.6834444999694824,0.1179279386997222,1.275153398513794
3834545499.0,-0.5379440784454346,0.2210853695869445,10.166461944580078,1.7434327602386477,0.2392369508743286,1.2195192575454712
3834553832.0,-0.569117546081543,0.2449259161949157,10.105584144592283,2.363066911697388,0.6463239789009094,1.188679814338684
3834562165.0,-0.5787933468818665,0.0848577320575714,9.796725273132324,2.2791290283203125,0.8247783780097961,1.1786646842956543
3834570498.0,-0.5816091299057007,-0.0328608229756355,9.722570419311523,1.7664600610733032,1.0268746614456177,1.19262433052063
3834578831.0,-0.6587851643562317,0.1743793189525604,10.01328945159912,1.936769366264344,0.6328253149986267,1.221927285194397
3834587164.0,-0.6476662755012512,0.3546640574932098,10.029434204101562,2.396237134933472,0.3266839385032654,1.17251718044281
3834595497.0,-0.5671718120574951,0.1933762282133102,9.698978424072266,2.306408166885376,0.1943095922470092,1.1594027280807495
3834603830.0,-0.4825262427330017,-0.0612674914300441,9.613313674926758,1.825449585914612,0.1133173778653144,1.1374000310897827
3834612163.0,-0.4985494613647461,0.0074385427869856,9.994423866271973,1.6847764253616333,0.3068329393863678,1.2724385261535645
3834620496.0,-0.5810996294021606,0.2644003927707672,10.254908561706545,2.136124849319458,0.5515000820159912,1.1580708026885986
3834628829.0,-0.6088694930076599,0.3259444832801819,10.003307342529297,2.486732244491577,0.829849898815155,1.2421364784240725
3834637162.0,-0.5845094919204712,0.0743491649627685,9.645191192626951,2.042633056640625,1.0299739837646484,1.2142683267593384
3834645495.0,-0.630788266658783,-0.0413531139492988,9.723000526428224,1.549072027206421,0.813277542591095,1.29876971244812
3834653828.0,-0.6585756540298462,0.1561677604913711,10.018099784851074,1.8454545736312864,0.530726969242096,1.2156261205673218
3834662161.0,-0.61534583568573,0.2971031665802002,9.974000930786133,2.4234650135040283,0.3548852503299713,1.1379122734069824
3834670494.0,-0.5154834389686584,0.1635908335447311,9.675402641296388,2.4145772457122803,0.161446526646614,1.157840371131897
3834678827.0,-0.4733148515224457,0.0008425451233051,9.624143600463867,1.8311105966567995,-0.0287007521837949,1.1287938356399536
3834687160.0,-0.5221893787384033,0.1137460470199585,10.060998916625977,1.7346984148025513,0.1518924087285995,1.1442134380340576
3834695493.0,-0.6065182089805603,0.2496751397848129,10.241766929626465,2.2848920822143555,0.5357472896575928,1.1883467435836792
3834703826.0,-0.5859706997871399,0.1769714951515197,9.947365760803224,2.3541789054870605,0.8787988424301147,1.1362987756729126
3834712159.0,-0.566093921661377,-0.0148986419662833,9.649336814880373,2.029748678207397,1.076284408569336,1.1770764589309692
3834720492.0,-0.6029682159423828,0.0512535572052001,9.7944974899292,1.86853289604187,0.7407892942428589,1.1557399034500122
3834728825.0,-0.6237978339195251,0.3261216580867767,10.033814430236816,2.0756752490997314,0.4188440144062042,1.204996109008789
3834737158.0,-0.5604255199432373,0.3304516971111297,9.88351345062256,2.452409029006958,0.0885996371507644,1.1046394109725952
3834745491.0,-0.4941717684268951,0.0657897293567657,9.644875526428224,2.089890956878662,0.09864042699337,1.24603009223938
3834753824.0,-0.485129714012146,-0.0640652552247047,9.836740493774414,1.6445876359939575,0.2159024029970169,1.1817896366119385
3834762157.0,-0.556464672088623,0.2031066268682479,10.230635643005373,1.967557668685913,0.5498352646827698,1.3060954809188845
3834770490.0,-0.5792973041534424,0.373530626296997,10.18327522277832,2.411426782608032,0.8374062180519104,1.1912925243377686
3834778823.0,-0.5742607712745667,0.2505463063716888,9.744390487670898,2.38068962097168,1.0249024629592896,1.0468794107437134
3834787156.0,-0.5858625173568726,-0.0240663755685091,9.558516502380373,1.715590238571167,0.8007521629333496,1.1607602834701538
3834795489.0,-0.6208006739616394,0.0475992299616336,9.9002685546875,1.673275351524353,0.5833641886711121,1.24713134765625
3834803822.0,-0.6488983035087585,0.2675521075725555,10.156136512756348,2.220523834228516,0.2828324139118194,1.1750274896621704
3834812155.0,-0.5495309233665466,0.2801994681358337,9.898553848266602,2.464857816696167,0.1433116644620895,1.0617612600326538
3834820488.0,-0.4563946425914764,0.0758230537176132,9.661395072937012,2.0873806476593018,0.0814788788557052,1.1510781049728394
3834828821.0,-0.4800685942173004,0.0445559807121753,9.841089248657228,1.5855978727340698,0.2873404920101166,1.2272547483444214
3834837154.0,-0.5719451308250427,0.2064510881900787,10.178757667541504,1.9125123023986816,0.4912553429603576,1.2162917852401731
3834845487.0,-0.6148132681846619,0.2515654563903808,10.089618682861328,2.4098129272460938,0.8329236507415771,1.1347874402999878
3834853820.0,-0.5957951545715332,0.0537780597805976,9.717361450195312,2.1638646125793457,0.9872238039970398,1.2020758390426636
3834862153.0,-0.5695191621780396,-0.0487898886203765,9.675542831420898,1.8018590211868288,0.837149977684021,1.1840180158615112
3834870486.0,-0.6227402091026306,0.1959157288074493,10.014684677124023,2.035307168960572,0.4587253928184509,1.2133463621139526
3834878819.0,-0.6108812093734741,0.366573691368103,10.051854133605955,2.3250555992126465,0.1632139086723327,1.0638104677200315
3834887152.0,-0.5660508871078491,0.2264953553676605,9.74355697631836,2.3053579330444336,0.2179002910852432,1.213192582130432
3834895485.0,-0.5001404285430908,-0.0476039201021194,9.639752388000488,1.852498173713684,0.3191533386707306,1.2712857723236084
3834903818.0,-0.513098955154419,0.0262003727257251,10.00306510925293,1.6582142114639282,0.3699976205825805,1.274999737739563
3834912151.0,-0.5850628614425659,0.3056750893592834,10.239914894104004,2.2422189712524414,0.6086710691452026,1.2844771146774292
3834920484.0,-0.6082584261894226,0.3355934917926788,9.95241355895996,2.507121562957764,0.8464224338531494,1.151206135749817
3834928817.0,-0.5961371660232544,0.0733071789145469,9.607906341552734,1.9913017749786377,0.7971149682998657,1.13576078414917
3834937150.0,-0.6147585511207581,-0.033387005329132,9.713065147399902,1.585726022720337,0.6026517748832703,1.1804832220077517
3834945483.0,-0.6642340421676636,0.165445864200592,10.096850395202637,1.6995558738708496,0.5340823531150818,1.3307620286941528
3834953816.0,-0.6078454256057739,0.3175037503242492,10.02358627319336,2.5172390937805176,0.2238684147596359,1.058841347694397
3834962149.0,-0.5075740218162537,0.1878436505794525,9.705854415893556,2.3894753456115723,0.1748683899641037,1.1240551471710205
3834970482.0,-0.4676935076713562,-1.46243255585e-05,9.64718246459961,1.720738649368286,0.1748427599668502,1.2968742847442627
3834978815.0,-0.5144662857055664,0.1503664404153823,10.022961616516112,1.6461501121520996,0.2871099412441253,1.190447211265564
3834987148.0,-0.6014878749847412,0.2652829587459564,10.216941833496094,2.253028154373169,0.6259095072746277,1.2338120937347412
3834995481.0,-0.5902506113052368,0.1865675896406173,9.907949447631836,2.4012577533721924,0.7929655313491821,1.2034848928451538
3835003814.0,-0.5505042672157288,-0.0229008216410875,9.624034881591797,1.98284924030304,0.9240846633911132,1.2049192190170288
3835012147.0,-0.5954264998435974,0.0358656793832778,9.851059913635254,1.7728126049041748,0.5617714524269104,1.1328407526016235
3835020480.0,-0.6270173192024231,0.3083438277244568,10.090859413146973,2.0397894382476807,0.2425411939620971,1.213218331336975
3835028813.0,-0.5702795386314392,0.3051206767559051,9.927078247070312,2.461656093597412,0.0789174512028694,1.0656802654266355
3835037146.0,-0.4840563535690307,0.0495484434068203,9.614740371704102,2.150289535522461,0.1172107309103012,1.1500792503356934
3835045479.0,-0.4759755432605743,-0.0639800503849983,9.792152404785156,1.617743730545044,0.3035286962985992,1.138936996459961
3835053812.0,-0.5400631427764893,0.1896285116672516,10.18008041381836,1.9769322872161863,0.4855947196483612,1.249001383781433
3835062145.0,-0.5651295781135559,0.3429120779037475,10.160171508789062,2.455636501312256,0.678623616695404,1.2664958238601685
3835070478.0,-0.543339192867279,0.2233176976442337,9.79245948791504,2.336376905441284,0.9312568306922911,1.154920220375061
3835078811.0,-0.580179750919342,-0.0279679577797651,9.626545906066896,1.7923816442489624,0.902876079082489,1.2153186798095703
3835087144.0,-0.6468338966369629,0.0744754523038864,9.931562423706056,1.785747766494751,0.7185304760932922,1.2577868700027466
3835095477.0,-0.6414679288864136,0.2581824958324432,10.125761032104492,2.232203722000122,0.488335371017456,1.2438783645629885
3835103810.0,-0.5774894952774048,0.2930626571178436,9.855111122131348,2.449105262756348,0.248073861002922,1.113527536392212
3835112143.0,-0.4692243039608001,0.0725242793560028,9.612445831298828,2.069399833679199,0.1688490509986877,1.1447514295578003
3835120476.0,-0.493888109922409,0.0221240874379873,9.864198684692385,1.7322137355804443,0.1019190400838851,1.178843975067139
3835128809.0,-0.5692541003227234,0.2240986675024032,10.197502136230469,2.0095133781433105,0.3809348940849304,1.1738234758377075
3835137142.0,-0.5962554216384888,0.2664938569068908,10.075153350830078,2.4984381198883057,0.753032922744751,1.215497970581055
3835145475.0,-0.5641059875488281,0.047424703836441,9.734644889831545,2.2471110820770264,1.0748502016067505,1.1759495735168457
3835153808.0,-0.592715859413147,-0.0235598813742399,9.685669898986816,1.7710708379745483,0.9234957098960876,1.2558404207229614
3835162141.0,-0.6507924199104309,0.2160995155572891,9.973482131958008,1.9358729124069207,0.5430474281311035,1.320618748664856
3835170474.0,-0.6326557397842407,0.3887927830219269,9.993465423583984,2.3415255546569824,0.3245323598384857,1.1507450342178345
3835178807.0,-0.5454787015914917,0.1878848820924759,9.674296379089355,2.2984936237335205,0.0875494554638862,1.1488240957260132
3835187140.0,-0.4944195449352264,-0.0423930548131465,9.635946273803713,1.721199631690979,0.1511239856481552,1.236578345298767
3835195473.0,-0.5281853675842285,0.0263586640357971,10.032495498657228,1.662235975265503,0.267540693283081,1.1432145833969116
3835203806.0,-0.5797368884086609,0.3119985461235046,10.286277770996094,2.364936590194702,0.5820322632789612,1.1255919933319092
3835212139.0,-0.5967065095901489,0.3352972269058227,9.96503734588623,2.559476852416992,0.8082315921783447,1.2948508262634275
3835220472.0,-0.5867190957069397,0.0829929783940315,9.61136531829834,2.0000874996185303,0.9064109325408936,1.2241555452346802
3835228805.0,-0.6107897162437439,-0.0210941899567842,9.727130889892578,1.63126802444458,0.8515964150428772,1.1685214042663574
3835237138.0,-0.6542507410049438,0.1865493655204773,10.048723220825195,1.974934339523316,0.568226158618927,1.092831254005432
3835245471.0,-0.6099164485931396,0.3093050718307495,10.003381729125977,2.4860408306121826,0.2561423480510711,1.2286635637283323
3835253804.0,-0.5036892890930176,0.1526722759008407,9.701531410217283,2.297750473022461,0.188392698764801,1.1832751035690308
3835262137.0,-0.4705049991607666,-0.0168212428689003,9.717814445495604,1.7325724363327026,0.1166984513401985,1.21280837059021
3835270470.0,-0.5215411186218262,0.1414284855127334,10.097533226013184,1.6770919561386108,0.2690518796443939,1.1942124366760254
3835278803.0,-0.5769922733306885,0.2871262431144714,10.198083877563477,2.2311532497406006,0.6174567341804504,1.2003343105316162
3835287136.0,-0.5802883505821228,0.1949439346790313,9.877453804016112,2.473540782928467,0.9836890697479248,1.26444673538208
3835295469.0,-0.5481886863708496,-0.0357944145798683,9.614642143249512,1.971450924873352,0.9856356978416444,1.2102214097976685
3835303802.0,-0.5947783589363098,0.0317515917122364,9.877483367919922,1.794533133506775,0.6715027689933777,1.262986660003662
3835312135.0,-0.6102311015129089,0.3096182346343994,10.120057106018066,2.2124552726745605,0.2791951298713684,1.1797915697097778
3835320468.0,-0.5670987963676453,0.3371065855026245,9.879439353942873,2.382815361022949,0.1719483584165573,1.1020269393920898
3835328801.0,-0.5050740242004395,0.0882089808583259,9.650760650634766,2.143014669418335,0.2084742784500122,1.1153463125228882
3835337134.0,-0.4938948154449463,-0.0484564639627933,9.779414176940918,1.6662826538085938,0.2329102009534835,1.1178818941116333
3835345467.0,-0.5502738952636719,0.1717532575130462,10.202038764953612,1.9307754039764404,0.504369854927063,1.2139097452163696
3835353800.0,-0.5908012390136719,0.3585069477558136,10.181066513061523,2.460707902908325,0.7614087462425232,1.1577377319335938
3835362133.0,-0.5587834715843201,0.2141400426626205,9.749064445495604,2.332355499267578,0.9096640348434448,1.225231409072876
3835370466.0,-0.5554677844047546,-0.0024043279699981,9.580655097961426,1.784159541130066,0.7785702347755432,1.2209537029266355
3835378799.0,-0.6297584772109985,0.0658017098903656,9.90130615234375,1.6106998920440674,0.4390279650688171,1.1340702772140503
3835387132.0,-0.6320692896842957,0.2953084707260132,10.105478286743164,2.1911697387695312,0.2203592658042907,1.1884747743606567
3835395465.0,-0.5345773100852966,0.28997603058815,9.890149116516112,2.5093753337860107,0.1568103432655334,1.105868935585022
3835403798.0,-0.4659180045127868,0.0546453595161438,9.627119064331056,2.065967321395874,0.19717837870121,1.1775119304656982
3835412131.0,-0.5017028450965881,0.0225275736302137,9.877118110656738,1.6604939699172974,0.3775794208049774,1.18319833278656
3835420464.0,-0.57975834608078,0.2286823391914367,10.221233367919922,2.0078999996185303,0.5955309867858887,1.173003911972046
3835428797.0,-0.6050406694412231,0.3005849123001098,10.064238548278809,2.4691355228424072,0.7927094101905823,1.1445209980010986
3835437130.0,-0.5804439187049866,0.0852754488587379,9.674503326416016,2.2780532836914062,0.9283111691474916,1.296541452407837
3835445463.0,-0.5694781541824341,-0.0656921714544296,9.653454780578612,1.756982684135437,0.824650228023529,1.045931696891785
3835453796.0,-0.6135551333427429,0.1448393911123275,10.025144577026367,1.8675594329833984,0.4207906424999237,1.139474868774414
3835462129.0,-0.6197918653488159,0.3699898719787597,10.091068267822266,2.372774362564087,0.1524559259414672,1.2183409929275513
3835470462.0,-0.55616694688797,0.2602575123310089,9.762598037719728,2.446261644363404,0.0924161523580551,1.1657038927078247
3835478795.0,-0.4921957850456238,-0.0099895223975181,9.59972095489502,1.8368991613388064,0.2797330319881439,1.1597100496292114
3835487128.0,-0.5196526050567627,0.0080008646473288,9.951647758483888,1.6241475343704224,0.4619015157222748,1.2133208513259888
3835495461.0,-0.5806754231452942,0.2713900506496429,10.262746810913086,2.198137044906616,0.5717865824699402,1.1020269393920898
3835503794.0,-0.5980374813079834,0.3559918999671936,10.022457122802734,2.598385095596313,0.6836951375007629,1.1871685981750488
3835512127.0,-0.5708304047584534,0.1027836352586746,9.593900680541992,2.097703456878662,0.8220376372337341,1.2218246459960938
3835520460.0,-0.5943549871444702,-0.0337549969553947,9.687830924987791,1.6036304235458374,0.6492696404457092,1.229406476020813
3835528793.0,-0.6399394869804382,0.171517327427864,10.048548698425291,1.845070242881775,0.5312135815620422,1.1987717151641846
3835537126.0,-0.6378516554832458,0.3123954534530639,10.068984031677246,2.480175256729126,0.3480206429958343,1.270722270011902
3835545459.0,-0.5328195095062256,0.1873273253440857,9.729066848754885,2.4832231998443604,0.1521229296922683,1.163552165031433
3835553792.0,-0.4599539637565613,0.0177142284810543,9.667774200439451,1.778268337249756,0.1387779265642166,1.1673943996429443
3835562125.0,-0.5111061930656433,0.092141143977642,10.018638610839844,1.7576743364334106,0.2794769406318664,1.225615382194519
