SampleTimeFine,Acc_X,Acc_Y,Acc_Z,Gyr_X,Gyr_Y,Gyr_Z
2473860827.0,0.0,0.0,0.0,0.0,0.0,0.0
2473869160.0,-0.6422178149223328,0.3268559277057647,10.18386936187744,2.817796230316162,0.799548327922821,1.3075811862945557
2473877493.0,-0.6069013476371765,0.3395524621009826,9.90659523010254,3.1230924129486084,1.1185224056243896,1.2316861152648926
2473885826.0,-0.5850310921669006,0.2593622505664825,9.560783386230469,2.821408033370972,1.0292824506759644,1.3262537717819214
2473894159.0,-0.662738025188446,0.2344797700643539,9.581082344055176,2.5080690383911133,0.7020093202590942,1.3030472993850708
2473902492.0,-0.6696682572364807,0.3458565175533294,9.798590660095217,2.536449670791626,0.2860341668128967,1.2675715684890747
2473910825.0,-0.6102389097213745,0.3682238161563873,9.898982048034668,2.8676674365997314,0.0232064966112375,1.2990003824234009
2473919158.0,-0.4615496098995209,0.2889666259288788,9.725234985351562,2.7201805114746094,-0.1518027633428573,1.293134689331055
2473927491.0,-0.4712186455726623,0.3001715242862701,9.803095817565918,2.560168504714966,-0.2055670469999313,1.345874309539795
2473935824.0,-0.5248959064483643,0.5032448172569275,9.928011894226074,2.5251026153564453,0.1986896246671676,1.2284331321716309
2473944157.0,-0.5518852472305298,0.5760454535484314,10.092427253723145,2.635397434234619,0.8477798700332642,1.2279975414276123
2473952490.0,-0.5782701373100281,0.4472451210021972,9.911093711853027,2.542238473892212,1.2862701416015625,1.2626793384552002
2473960823.0,-0.5809009075164795,0.4022572934627533,9.914266586303713,2.205641746520996,1.1758984327316284,1.2573517560958862
2473969156.0,-0.6173331141471863,0.6259421110153198,10.016589164733888,2.129849433898926,0.8776462078094482,1.3116281032562256
2473977489.0,-0.6451197266578674,0.8520911335945129,10.046622276306152,2.271573066711426,0.3401314318180084,1.3206443786621094
2473985822.0,-0.5545599460601807,0.8124659061431885,9.892640113830566,2.102057933807373,0.1237935945391655,1.248565912246704
2473994155.0,-0.5334006547927856,0.6998584866523743,9.874866485595703,1.3994594812393188,0.0994344651699066,1.1674457788467407
2474002488.0,-0.5604609847068787,0.6586480736732483,10.137974739074709,0.9432440996170044,0.248662993311882,1.1879369020462036
2474010821.0,-0.6018189191818237,0.6905104517936707,10.38864517211914,1.1952883005142212,0.7217322587966919,1.071955680847168
2474019154.0,-0.6515869498252869,0.6222348809242249,10.25705909729004,1.4457954168319702,1.2697744369506836,1.0734925270080566
2474027487.0,-0.6716994047164917,0.457349956035614,9.908317565917969,1.3226165771484375,1.3545575141906738,1.0972625017166138
2474035820.0,-0.7269073724746704,0.3865851163864136,9.799607276916504,1.0759514570236206,1.246439814567566,1.092882513999939
2474044153.0,-0.7676451206207275,0.3285346627235412,9.917332649230955,1.1507450342178345,0.8847156167030334,0.8931427001953125
2474052486.0,-0.7723537683486938,0.1908150762319564,10.000359535217283,1.4742016792297363,0.4413588941097259,1.0496970415115356
2474060819.0,-0.7369231581687927,0.0160426050424575,9.945062637329102,1.6676918268203735,0.1670048236846923,1.0376325845718384
2474069152.0,-0.6564517617225647,0.0435698367655277,9.947331428527832,1.7302926778793335,-0.0098230587318539,1.034149169921875
2474077485.0,-0.67145836353302,0.1940597295761108,9.960813522338867,1.996809005737305,0.178403154015541,0.90874183177948
2474085818.0,-0.753372311592102,0.2585200071334839,10.016437530517578,2.207614183425904,0.7918641567230225,0.9868140816688538
2474094151.0,-0.7664331197738647,0.1395588219165802,9.903202056884766,2.191476821899414,1.1363242864608765,1.0337390899658203
2474102484.0,-0.741356372833252,0.0746672749519348,9.883371353149414,1.9373327493667605,1.1441110372543335,1.143521785736084
2474110817.0,-0.7562288641929626,0.1570349782705307,9.953850746154783,2.0624325275421143,0.765148401260376,1.1467492580413818
2474119150.0,-0.7953327298164368,0.3796696364879608,9.924612998962402,2.3403468132019043,0.4337514340877533,1.1908056735992432
2474127483.0,-0.7193946242332458,0.4523896872997284,9.765369415283203,2.412553310394287,0.2290937006473541,1.1509498357772827
2474135816.0,-0.6356433033943176,0.3870832920074463,9.592249870300291,1.7189712524414062,-0.0252172145992517,1.33199143409729
2474144149.0,-0.6102811694145203,0.3040863573551178,9.754897117614746,1.3388047218322754,-0.0540332272648811,1.3321706056594849
2474152482.0,-0.6576497554779053,0.3228268325328827,10.093022346496582,1.2980269193649292,0.3039897382259369,1.2571722269058228
2474160815.0,-0.6984952092170715,0.4081180989742279,10.200434684753418,1.773145318031311,0.7186585664749146,1.351022720336914
2474169148.0,-0.6568784117698669,0.392311155796051,9.91573715209961,1.696892023086548,0.936533272266388,1.399715542793274
2474177481.0,-0.6005480885505676,0.3431569635868072,9.64015769958496,1.320772409439087,0.7948352694511414,1.4229987859725952
2474185814.0,-0.6867806315422058,0.3228201866149902,9.825519561767578,1.2075830698013306,0.5485032796859741,1.3080165386199951
2474194147.0,-0.6623628735542297,0.3597093224525451,10.037187576293944,1.301100730895996,0.2297340631484985,1.2768182754516602
2474202480.0,-0.6224080324172974,0.2380745261907577,9.954371452331545,1.6478662490844729,0.1809389591217041,1.0259782075881958
2474210813.0,-0.4810994863510132,0.199011817574501,9.840594291687012,1.515748143196106,-0.0678649246692657,1.155253291130066
2474219146.0,-0.5015104413032532,0.2707992196083069,9.857366561889648,1.4690532684326172,-0.1593333631753921,1.0990300178527832
2474227479.0,-0.5426463484764099,0.3303335905075073,10.019014358520508,1.5661826133728027,-0.0123076410964131,1.0562031269073486
2474235812.0,-0.5481905937194824,0.2441831678152084,10.032907485961914,1.8958632946014404,0.5850547552108765,1.0257219076156616
2474244145.0,-0.5908211469650269,0.0784721598029136,9.908528327941896,1.8094666004180908,0.8846900463104248,0.9480853080749512
2474252478.0,-0.594956636428833,0.0589936561882495,9.813447952270508,1.8749874830245967,1.0219310522079468,1.0025668144226074
2474260811.0,-0.6858358979225159,0.2079788744449615,9.86116886138916,2.1367905139923096,0.6321337223052979,0.9454724788665771
2474269144.0,-0.6634390354156494,0.3214005827903747,9.73088836669922,2.418752193450928,0.1468207985162735,0.8936038017272949
2474277477.0,-0.5712097883224487,0.1953857988119125,9.52025032043457,2.058180570602417,-0.2641724348068237,0.9991599917411804
2474285810.0,-0.5209336280822754,0.0507034063339233,9.606904029846191,1.6954317092895508,-0.5726958513259888,1.0450352430343628
2474294143.0,-0.543843686580658,0.0650358572602272,9.825399398803713,1.7339558601379397,-0.2735472321510315,1.0835590362548828
2474302476.0,-0.6177875995635986,0.1885460466146469,10.042529106140137,2.255640745162964,0.1610367000102996,1.140960454940796
2474310809.0,-0.5883589386940002,0.1648467928171157,9.860722541809082,2.4336085319519043,0.772653341293335,1.2099652290344238
2474319142.0,-0.5951473712921143,0.1063584834337234,9.63887882232666,2.324005126953125,0.9453189969062804,1.2576076984405518
2474327475.0,-0.6683759689331055,0.1096434593200683,9.633644104003906,2.045450448989868,0.8333591222763062,1.3277907371520996
2474335808.0,-0.7136651277542114,0.2060906738042831,9.740022659301758,2.193475246429444,0.608210027217865,1.2762036323547363
2474344141.0,-0.6489865779876709,0.2003629058599472,9.729784965515137,2.426590204238892,0.268283486366272,1.3433642387390137
2474352474.0,-0.5338820815086365,0.1283818930387497,9.6571683883667,2.272955894470215,-0.1176846027374267,1.2922126054763794
2474360807.0,-0.4944638013839721,0.1461025178432464,9.76605224609375,2.122036933898926,-0.2848687171936035,1.343569040298462
2474369140.0,-0.5142503976821899,0.3120609521865845,10.019428253173828,2.302643060684204,-0.0766249895095825,1.429479479789734
2474377473.0,-0.5409756302833557,0.3944524526596069,10.038779258728027,2.539318323135376,0.6958618760108948,1.369900465011597
2474385806.0,-0.5352745056152344,0.2522397637367248,9.87091064453125,2.4901134967803955,1.0506447553634644,1.3775848150253296
2474394139.0,-0.5571557283401489,0.1348415613174438,9.797250747680664,2.307125329971313,1.277868628501892,1.4693862199783323
2474402472.0,-0.6237526535987854,0.2528798580169678,9.938804626464844,2.308431386947632,1.071238398551941,1.2567111253738403
2474410805.0,-0.6350080966949463,0.4572115242481231,9.999584197998049,2.7406463623046875,0.5590819120407104,1.2620645761489868
2474419138.0,-0.531229555606842,0.4458720684051513,9.738861083984377,2.684730291366577,0.0696707218885421,1.2945690155029297
2474427471.0,-0.4650086760520935,0.2742700576782226,9.643798828125,2.170473575592041,-0.1279559284448623,1.1513599157333374
2474435804.0,-0.5105493664741516,0.2259417474269867,9.915433883666992,1.83538818359375,-0.1301331222057342,1.1493622064590454
2474444137.0,-0.5726833343505859,0.3681349754333496,10.3015775680542,2.235200881958008,0.409008115530014,1.0664231777191162
2474452470.0,-0.5930709838867188,0.4149024486541748,10.283821105957031,2.708782196044922,0.8803101181983948,1.1547155380249023
2474460803.0,-0.5857055187225342,0.3266265988349914,9.923093795776367,2.6226158142089844,1.146877408027649,1.101412057876587
2474469136.0,-0.6547674536705017,0.2813999950885772,9.736404418945312,2.1732399463653564,0.9881715178489684,1.089398980140686
2474477469.0,-0.7151806354522705,0.3816710710525512,9.874682426452637,2.117426633834839,0.8435024619102478,1.1449050903320312
2474485802.0,-0.715652585029602,0.3964007794857025,9.974675178527832,2.265092134475708,0.5380270481109619,1.1068423986434937
2474494135.0,-0.6169415712356567,0.2789037227630615,9.847200393676758,2.33494234085083,0.0452859699726104,1.108353614807129
2474502468.0,-0.5546002388000488,0.2492559105157852,9.89232063293457,2.0242159366607666,-0.1770840138196945,0.99739271402359
2474510801.0,-0.6073325276374817,0.3972615599632263,10.01539134979248,2.024062395095825,-0.1514697521924972,1.0667303800582886
2474519134.0,-0.671684980392456,0.4731370210647583,10.126164436340332,2.202849864959717,0.2836776077747345,1.131508708000183
2474527467.0,-0.693763017654419,0.2860898971557617,9.96290111541748,2.2099194526672363,0.8341020941734314,1.1101210117340088
2474535800.0,-0.7178770899772644,0.1670373827219009,9.874011993408203,1.9650729894638064,1.263473391532898,1.213653802871704
2474544133.0,-0.7656314373016357,0.2785150110721588,9.981893539428713,2.0765717029571533,1.0765663385391235,1.1241064071655271
2474552466.0,-0.7721464037895203,0.4534294605255127,10.008278846740724,2.434863567352295,0.6966303586959839,1.1610164642333984
2474560799.0,-0.7420828342437744,0.4638029634952545,9.7955961227417,2.6347572803497314,0.160831794142723,1.2331461906433103
2474569132.0,-0.6372171640396118,0.3377714455127716,9.627223014831545,2.0375354290008545,-0.0716302096843719,1.244083285331726
2474577465.0,-0.605983316898346,0.2665313482284546,9.802014350891112,1.7294987440109253,-0.257179707288742,1.2892411947250366
2474585798.0,-0.632864236831665,0.3622996509075165,10.150198936462402,1.9807745218276973,0.2866233289241791,1.3154704570770264
2474594131.0,-0.6528594493865967,0.4487114548683166,10.20141887664795,2.3789222240448,0.6659188866615295,1.2428027391433716
2474602464.0,-0.6563394665718079,0.401421844959259,9.884697914123535,2.4375789165496826,1.0001846551895142,1.371795892715454
2474610797.0,-0.6539269089698792,0.3423053026199341,9.658077239990234,2.1458070278167725,1.078026294708252,1.3555052280426023
2474619130.0,-0.701025664806366,0.4215494394302368,9.7232084274292,1.9370766878128047,0.8800538778305054,1.3065564632415771
2474627463.0,-0.7275207042694092,0.4897145330905914,9.868916511535645,2.0008814334869385,0.4965575337409973,1.2287917137145996
2474635796.0,-0.6179990768432617,0.3834389150142669,9.79582405090332,2.0764694213867188,0.0918014198541641,1.251665115356445
2474644129.0,-0.5190110802650452,0.2081559002399444,9.300639152526855,1.926907539367676,0.1746634691953659,1.2094014883041382
2474652462.0,-0.4914433658123016,0.3579576313495636,10.104517936706545,1.6128770112991333,-0.5032044053077698,1.1349411010742188
2474660795.0,-0.5260112285614014,0.4758884906768799,10.393342971801758,2.0268800258636475,-0.2226004898548126,1.2302517890930176
2474669128.0,-0.5131711363792419,0.3991914093494415,10.061697006225586,2.294574499130249,0.6402022242546082,1.218289852142334
2474677461.0,-0.4601432383060455,0.2068749219179153,9.629950523376465,2.1601767539978027,1.3782507181167605,1.0992861986160278
2474685794.0,-0.6060891151428223,0.1481745690107345,9.817131996154783,1.9591302871704104,1.4677468538284302,1.1641156673431396
2474694127.0,-0.6262292265892029,0.337296575307846,10.086396217346191,2.0522894859313965,1.3861912488937378,1.1719281673431396
2474702460.0,-0.6361991167068481,0.445596694946289,9.91970157623291,2.51895523071289,1.0002871751785278,1.069624900817871
2474710793.0,-0.5654443502426147,0.2951896488666534,9.527679443359377,2.4180095195770264,0.284010648727417,1.0262598991394043
2474719126.0,-0.5057361125946045,0.1484013348817825,9.503129959106444,1.7664856910705566,-0.183052122592926,1.1141679286956787
2474727459.0,-0.5410394668579102,0.2077334523200988,9.895906448364258,1.724068522453308,-0.2182973027229309,1.0408344268798828
2474735792.0,-0.5523232817649841,0.3259605169296264,10.354220390319824,1.9796472787857056,0.2594721913337707,1.0560237169265747
2474744125.0,-0.5392375588417053,0.2683233022689819,10.183391571044922,2.343395233154297,0.8769802451133728,0.9743911623954772
2474752458.0,-0.5848016738891602,0.1323684006929397,9.838709831237791,2.2300264835357666,1.291853904724121,1.0535646677017212
2474760791.0,-0.6282599568367004,0.1692304760217666,9.825887680053713,2.121088981628418,1.5484830141067505,1.1534345149993896
2474769124.0,-0.7201836109161377,0.2746932804584503,9.949995994567873,2.1720359325408936,1.6524766683578491,1.1622458696365356
2474777457.0,-0.6941136121749878,0.2724754214286804,9.899584770202637,2.48145604133606,1.1840949058532717,1.0263625383377075
2474785790.0,-0.6221471428871155,0.1592573672533035,9.777520179748535,2.451077461242676,0.6595665812492371,1.0295898914337158
2474794123.0,-0.600862979888916,0.1673365086317062,9.75338077545166,2.258150815963745,0.1012274622917175,1.0737742185592651
2474802456.0,-0.6307441592216492,0.2852078080177307,9.982008934020996,2.2725720405578613,0.1393414437770843,1.0566641092300415
2474810789.0,-0.6786465644836426,0.323604553937912,10.093173027038574,2.455047607421875,0.7522388100624084,1.058534026145935
2474819122.0,-0.6500428318977356,0.1569971144199371,9.970935821533203,2.386913537979126,1.1263859272003174,1.1683677434921265
2474827455.0,-0.6956263780593872,0.0917059034109115,9.92382526397705,2.323006153106689,1.5036835670471191,1.1569950580596924
2474835788.0,-0.7246868014335632,0.2855295836925506,9.949604988098145,2.539881944656372,1.3987420797348022,1.0390926599502563
2474844121.0,-0.7483006119728088,0.4611967802047729,9.986169815063477,2.740518569946289,1.0009530782699585,1.0673965215682983
2474852454.0,-0.6713261008262634,0.3902672231197357,9.7294340133667,2.753197431564331,0.7655839323997498,1.031818389892578
2474860787.0,-0.631705641746521,0.1991675794124603,9.578631401062012,2.299722909927368,0.4960964918136596,1.108712077140808
2474869120.0,-0.6243286728858948,0.2413284331560135,9.841619491577148,2.061023712158203,0.4303191304206848,1.062145471572876
2474877453.0,-0.6646372675895691,0.3806814849376678,10.171679496765137,2.4011809825897217,0.5201227068901062,1.11624276638031
2474885786.0,-0.6466426849365234,0.4587422311306,10.14036750793457,2.7450008392333984,0.8253162503242493,0.9540278315544128
2474894119.0,-0.6417327523231506,0.337221622467041,9.90004062652588,2.7903380393981934,1.0891427993774414,0.885714590549469
2474902452.0,-0.6577317714691162,0.2700119316577911,9.733054161071776,2.492085695266724,1.2642161846160889,0.9401703476905824
2474910785.0,-0.7000070214271545,0.3721718788146972,9.840777397155762,2.3922157287597656,1.245799541473389,0.868911623954773
2474919118.0,-0.6738588213920593,0.4359335303306579,9.875194549560549,2.557478904724121,0.9622243642807008,1.0329196453094482
2474927451.0,-0.5702681541442871,0.343960553407669,9.800411224365234,2.459709405899048,0.5470432639122009,1.002720594406128
2474935784.0,-0.5239128470420837,0.2549023628234863,9.76992130279541,2.4615280628204346,0.3228930830955505,0.8565657138824463
2474944117.0,-0.5356329083442688,0.3772328495979309,9.884960174560549,2.4153199195861816,0.2636217176914215,1.067780613899231
2474952450.0,-0.5845226049423218,0.4805261194705963,10.012929916381836,2.429151773452759,0.5311623811721802,0.97905296087265
2474960783.0,-0.5861203074455261,0.3517878949642181,9.9296236038208,2.4749755859375,1.0095338821411133,0.9339975118637084
2474969116.0,-0.5815926790237427,0.1496641486883163,9.83167552947998,2.326361894607544,1.4172357320785522,0.935047686100006
2474977449.0,-0.6317821741104126,0.224081739783287,9.94594669342041,2.4569687843322754,1.2985905408859253,0.9183984398841858
2474985782.0,-0.618199348449707,0.4972330629825592,10.08318328857422,2.704453706741333,1.1440086364746094,0.8567450046539307
2474994115.0,-0.5837437510490417,0.542664647102356,9.897480010986328,2.8832664489746094,1.0078946352005005,0.9091261625289916
2475002448.0,-0.5807368159294128,0.3117491006851196,9.584091186523438,2.6601152420043945,0.7284944653511047,0.8131495714187622
2475010781.0,-0.5803351998329163,0.1631332337856292,9.572867393493652,2.1050801277160645,0.826263964176178,1.042858004570007
2475019114.0,-0.6065549850463867,0.3180258274078369,9.94454288482666,2.123958110809326,0.7983956933021545,1.033278226852417
2475027447.0,-0.6083644032478333,0.4794023633003235,10.118000984191896,2.3342764377593994,0.9796677231788636,0.949801504611969
2475035780.0,-0.5932157635688782,0.4101897180080414,10.003400802612305,2.59090542793274,1.1347362995147705,1.0020289421081543
2475044113.0,-0.6549229621887207,0.2403126806020736,9.73774242401123,2.387093067169189,1.0597890615463257,0.98174250125885
2475052446.0,-0.74275141954422,0.2706030011177063,9.797649383544922,2.240707874298096,1.069240689277649,1.0222129821777344
2475060779.0,-0.775089681148529,0.4110937416553497,9.925264358520508,2.205078363418579,1.135786533355713,1.1041529178619385
2475069112.0,-0.6715463399887085,0.369512677192688,9.836600303649902,2.381150722503662,0.9336644411087036,1.0342003107070925
2475077445.0,-0.598946213722229,0.2286047041416168,9.723726272583008,2.2506206035614014,0.3948434889316559,1.066090106964111
2475085778.0,-0.6048957109451294,0.2632113099098205,9.814641952514648,2.120269536972046,0.1320413947105407,1.0851471424102783
2475094111.0,-0.6600777506828308,0.4414645731449127,9.992300987243652,2.153491258621216,0.2930780947208404,1.1548947095870972
2475102444.0,-0.6697738766670227,0.4008623659610748,9.974220275878906,2.253950357437134,0.6969633102416992,1.081714749336243
2475110777.0,-0.6601535677909851,0.1807367652654647,9.845026969909668,2.0098466873168945,1.0347639322280884,1.1023855209350586
2475119110.0,-0.7197824716567993,0.0862579047679901,9.911596298217772,2.020015239715576,1.1629630327224731,1.1796892881393433
2475127443.0,-0.757722020149231,0.3281619548797607,10.041930198669434,2.14652419090271,0.7585911750793457,1.1018732786178589
2475135776.0,-0.7270132899284363,0.5027256608009338,9.958257675170898,2.3463151454925537,0.4462255835533142,1.1329176425933838
2475144109.0,-0.6594461798667908,0.3361633419990539,9.64770793914795,2.239504098892212,0.1142394766211509,1.1290241479873655
2475152442.0,-0.6067656874656677,0.1015362665057182,9.556936264038086,1.7816237211227417,-0.0502679385244846,1.2292015552520752
2475160775.0,-0.6194570660591125,0.1867737025022506,9.947103500366213,1.5330630540847778,0.1556577086448669,1.1958516836166382
2475169108.0,-0.6293036341667175,0.3371258378028869,10.274447441101074,2.007464408874512,0.3580613732337951,1.1438292264938354
2475177441.0,-0.6304478645324707,0.3528044819831848,10.133078575134276,2.3674981594085693,0.6167652010917664,1.1695716381072998
2475185774.0,-0.6456483006477356,0.2366512566804886,9.744949340820312,2.3435490131378174,0.8902740478515625,1.0387340784072876
2475194107.0,-0.7108641266822815,0.2053608298301696,9.704050064086914,1.9722448587417605,0.7939900755882263,1.154792308807373
2475202440.0,-0.7320511937141418,0.3253437578678131,9.89087200164795,1.9326705932617188,0.7259330153465271,1.1399613618850708
2475210773.0,-0.6790424585342407,0.3733195662498474,9.951796531677246,2.2315378189086914,0.4717117547988891,1.0424739122390747
2475219106.0,-0.570091962814331,0.2428859323263168,9.84206485748291,2.2557177543640137,0.1344235092401504,1.122569561004639
2475227439.0,-0.5411897301673889,0.2220181375741958,9.80440616607666,2.256537437438965,-0.0555700846016407,1.1341984272003174
2475235772.0,-0.5811624526977539,0.3863386213779449,9.96817684173584,2.1551051139831543,0.1085275262594223,1.1418826580047607
2475244105.0,-0.6215284466743469,0.4528240263462066,10.036925315856934,2.223904609680176,0.6638953685760498,1.1479018926620483
2475252438.0,-0.5983933210372925,0.2753379940986633,9.843572616577148,2.258458137512207,1.1544848680496216,1.1678298711776731
2475260771.0,-0.6272271871566772,0.135255217552185,9.762619018554688,2.045834541320801,1.244595646858215,1.1847865581512451
2475269104.0,-0.6875139474868774,0.2846506834030151,9.92920207977295,2.1752376556396484,1.0603525638580322,1.2497954368591309
2475277437.0,-0.704272449016571,0.5175274014472961,9.97848129272461,2.524385452270508,0.6644588708877563,0.9576650857925416
2475285770.0,-0.601384699344635,0.5210772156715393,9.741740226745604,2.511322021484375,0.2554251551628113,0.99680358171463
2475294103.0,-0.5670797228813171,0.286351591348648,9.529020309448242,2.256844520568848,0.1728192418813705,1.068036675453186
2475302436.0,-0.5593763589859009,0.2082971632480621,9.779539108276367,1.9256271123886108,0.2677712142467499,1.245441198348999
2475310769.0,-0.6348282098770142,0.396846204996109,10.142069816589355,2.013688802719116,0.6381018757820129,1.248361110687256
2475319102.0,-0.6151869297027588,0.5015670657157898,10.206375122070312,2.433813571929932,0.9274914860725404,0.953976571559906
2475327435.0,-0.6306923627853394,0.4082334041595459,9.901405334472656,2.4932641983032227,1.0796400308609009,1.0314083099365234
2475335768.0,-0.6748253703117371,0.2631575763225555,9.65001392364502,2.291680097579956,1.0340977907180786,1.0167313814163208
2475344101.0,-0.7368627786636353,0.3770821094512939,9.768611907958984,2.121908903121948,0.9709588885307312,1.147287368774414
2475352434.0,-0.7460755109786987,0.4460925459861755,9.908602714538574,2.1504430770874023,0.8590245842933655,1.0328171253204346
2475360767.0,-0.6313206553459167,0.3430213034152984,9.84580421447754,2.235943555831909,0.4916140139102936,1.0482369661331177
2475369100.0,-0.591310441493988,0.2129303812980651,9.789183616638184,2.20044207572937,0.0219770148396492,1.063605546951294
2475377433.0,-0.6166825890541077,0.3223206698894501,9.906415939331056,2.16568374633789,0.0821960940957069,1.190882682800293
2475385766.0,-0.681588888168335,0.4622655212879181,10.070234298706056,2.2314608097076416,0.5143594145774841,1.0580726861953735
2475394099.0,-0.6707980632781982,0.3869974017143249,10.011466979980469,2.3195486068725586,1.0334831476211548,1.0402710437774658
2475402432.0,-0.6826895475387573,0.1573505997657776,9.843779563903809,2.0574891567230225,1.2903683185577393,1.0345590114593506
2475410765.0,-0.6961761713027954,0.1693359166383743,9.940523147583008,2.075880289077759,1.0182427167892456,0.9752107858657836
2475419098.0,-0.7273130416870117,0.3946961462497711,10.060726165771484,2.4341976642608643,0.7968845367431641,0.9501600861549376
2475427431.0,-0.6528147459030151,0.5192327499389648,9.9850492477417,2.668670177459717,0.4615172147750854,0.9643245339393616
2475435764.0,-0.570639431476593,0.2901355326175689,9.651718139648438,2.583221435546875,0.319640040397644,0.9463180303573608
2475444097.0,-0.636378824710846,0.1015957072377204,9.42080307006836,2.087252855300904,0.3952533006668091,1.0629138946533203
2475452430.0,-0.6409202814102173,0.2304454892873764,9.833656311035156,1.7007852792739868,0.4746574461460113,1.0947524309158323
2475460763.0,-0.6781153082847595,0.4226537942886352,10.264958381652832,1.9595401287078853,0.625602126121521,1.0721349716186523
2475469096.0,-0.6530858278274536,0.3453701734542846,10.172406196594238,2.481123208999634,0.629367470741272,1.1057409048080444
2475477429.0,-0.6376702189445496,0.2220658361911773,9.786819458007812,2.5753061771392822,0.6616157293319702,1.0160143375396729
2475485762.0,-0.6981553435325623,0.2185367792844772,9.669403076171877,2.3056652545928955,0.7559272646903992,1.0365567207336426
2475494095.0,-0.7555155158042908,0.3676049411296844,9.795785903930664,2.119091510772705,0.7803120613098145,1.0707517862319946
2475502428.0,-0.6640831828117371,0.3556552231311798,9.832213401794434,2.203208446502685,0.6429685354232788,1.081304907798767
2475510761.0,-0.5577490925788879,0.2316546589136123,9.776244163513184,2.301951169967652,0.4083421230316162,1.1171135902404783
2475519094.0,-0.5612329244613647,0.212091252207756,9.84067726135254,2.116350650787353,0.0131144896149635,1.12103271484375
2475527427.0,-0.5849834084510803,0.4205209016799927,9.994038581848145,2.238043546676636,0.1581678986549377,0.9577418565750122
2475535760.0,-0.6118022799491882,0.456257164478302,9.95324420928955,2.288836717605591,0.5699936151504517,1.0414490699768066
2475544093.0,-0.6116725206375122,0.2383830547332763,9.814772605895996,2.229232788085937,0.9744936227798462,1.0649631023406982
2475552426.0,-0.6415185928344727,0.0956117063760757,9.832484245300291,1.9869475364685056,1.0867863893508911,1.082764983177185
2475560759.0,-0.6985887885093689,0.3172526061534881,10.042797088623049,2.165632486343384,0.9508516788482666,1.157942771911621
2475569092.0,-0.6951422691345215,0.5778571367263794,10.06572151184082,2.4629623889923096,0.4965063631534576,1.1114273071289062
2475577425.0,-0.5703473091125488,0.5390665531158447,9.704549789428713,2.586679220199585,0.1130868569016456,0.9997236728668212
2475585758.0,-0.5501340627670288,0.2570310533046722,9.515623092651367,2.0066192150115967,0.011731319129467,1.069522500038147
2475594091.0,-0.5913111567497253,0.1937935948371887,9.79226016998291,1.546613097190857,0.1859593391418457,1.118701696395874
2475602424.0,-0.6602004170417786,0.4016304612159729,10.257917404174805,1.8954533338546755,0.4909992516040802,1.2547132968902588
2475610757.0,-0.6491404175758362,0.4752026796340942,10.312949180603027,2.26107120513916,0.865812361240387,1.1926499605178833
2475619090.0,-0.6421122550964355,0.3424777090549469,9.90376091003418,2.443521022796631,0.9891961216926576,1.1913948059082031
2475627423.0,-0.6890528798103333,0.2583411931991577,9.640689849853516,2.040634870529175,0.9212160110473632,1.1139631271362305
2475635756.0,-0.7262953519821167,0.3849005997180938,9.745545387268066,1.921246886253357,0.8054907917976379,1.1369901895523071
2475644089.0,-0.7362768650054932,0.4342317283153534,9.943475723266602,1.9852570295333865,0.5477860569953918,1.1928037405014038
2475652422.0,-0.6302650570869446,0.3099337518215179,9.870977401733398,2.0416338443756104,0.3037848472595215,1.163577914237976
2475660755.0,-0.5942898392677307,0.188893437385559,9.78331184387207,1.9746525287628167,0.0630878582596778,1.1404993534088137
2475669088.0,-0.6339919567108154,0.3503381013870239,9.943087577819824,1.9925568103790283,-0.0047258264385163,1.2668545246124268
2475677421.0,-0.6902459859848022,0.5109546184539795,10.04574966430664,2.1328461170196533,0.5547786951065063,1.181815266609192
2475685754.0,-0.6996142864227295,0.4220554530620575,9.892356872558594,2.2332539558410645,0.9961631298065186,1.2347599267959597
2475694087.0,-0.7040134072303772,0.1834897100925445,9.714171409606934,1.830034852027893,1.1012840270996094,1.1700838804244995
2475702420.0,-0.7544068098068237,0.1701346188783645,9.829235076904297,1.797991156578064,0.8255212306976318,1.1284352540969849
2475710753.0,-0.7617948651313782,0.4094359874725342,9.956881523132324,2.171395778656006,0.6056997776031494,1.259554386138916
2475719086.0,-0.711718738079071,0.5239670276641846,9.861279487609863,2.3108906745910645,0.0605520494282245,1.2415730953216553
2475727419.0,-0.597835898399353,0.323030024766922,9.581345558166504,2.190990209579468,-0.186177060008049,1.1882187128067017
2475735752.0,-0.5645268559455872,0.1642360240221023,9.629236221313477,1.608983874320984,-0.2047986388206482,1.2612706422805786
2475744085.0,-0.6209162473678589,0.2687006294727325,10.040002822875977,1.551761507987976,0.2207690924406051,1.2469520568847656
2475752418.0,-0.6555019021034241,0.4709726870059967,10.286795616149902,1.9859998226165767,0.6934030055999756,1.2654200792312622
2475760751.0,-0.6394060850143433,0.3999015688896179,9.986124992370604,2.3390915393829346,0.8389942049980164,1.131841778755188
2475769084.0,-0.6703964471817017,0.2016243934631347,9.620906829833984,2.0943737030029297,0.7600768804550171,1.1916766166687012
2475777417.0,-0.7343536615371704,0.2494020313024521,9.706609725952148,1.8049325942993164,0.5707619190216064,1.2254105806350708
2475785750.0,-0.7650095224380493,0.439054012298584,9.972623825073242,1.838128566741944,0.388696014881134,1.191574215888977
2475794083.0,-0.6916466355323792,0.4197868406772613,9.959506034851074,1.95626163482666,0.0879336670041084,1.152025818824768
2475802416.0,-0.5659074783325195,0.2391991019248962,9.769049644470217,1.960231900215149,-0.2920919358730316,1.1155768632888794
2475810749.0,-0.5488228797912598,0.2494518905878067,9.817259788513184,1.735517978668213,-0.1530578583478927,1.200411081314087
2475819082.0,-0.5840747952461243,0.4198390543460846,10.023252487182615,1.8001171350479126,-0.1394054889678955,1.265189528465271
2475827415.0,-0.5906115770339966,0.440218061208725,10.066304206848145,2.0041089057922363,0.5965299010276794,1.2676997184753418
2475835748.0,-0.6162874698638916,0.1986052840948104,9.867328643798828,1.9201968908309937,0.8083085417747498,1.2561222314834597
2475844081.0,-0.6789538860321045,0.1095731183886528,9.836386680603027,1.7381306886672974,0.7579251527786255,1.3119865655899048
2475852414.0,-0.7148980498313904,0.2866491675376892,9.96485996246338,1.8405108451843264,0.4565224945545196,1.3107059001922607
2475860747.0,-0.7072012424468994,0.4619195163249969,9.997767448425291,2.205385684967041,0.1027387008070945,1.2593752145767212
2475869080.0,-0.6255298256874084,0.3549234271049499,9.673542976379396,2.162737846374512,-0.2206794470548629,1.3161873817443848
2475877413.0,-0.5999825596809387,0.113393023610115,9.494367599487305,1.658214449882507,-0.4237235188484192,1.3008958101272583
2475885746.0,-0.595683753490448,0.1534950584173202,9.739985466003418,1.283631682395935,-0.3678331971168518,1.4127018451690674
2475894079.0,-0.611140787601471,0.3163846731185913,10.12034034729004,1.473151445388794,-0.106901004910469,1.436932921409607
2475902412.0,-0.6144328713417053,0.3718845248222351,10.22843074798584,2.0067217350006104,0.1864460408687591,1.4718196392059326
2475910745.0,-0.6481674313545227,0.2834596931934356,9.913171768188477,2.192168474197388,0.3081392049789428,1.527709722518921
2475919078.0,-0.6801102757453918,0.2991267442703247,9.739109992980955,1.9176098108291624,0.4226092398166656,1.4945650100708008
2475927411.0,-0.7037687301635742,0.4388009905815124,9.741861343383787,1.621509075164795,0.4650007784366607,1.3881120681762695
2475935744.0,-0.7242936491966248,0.4481981992721557,9.891508102416992,1.637338638305664,0.2268908768892288,1.3574007749557495
2475944077.0,-0.6429011821746826,0.3184773325920105,9.823177337646484,1.595484972000122,-0.1401738822460174,1.4520965814590454
2475952410.0,-0.5842986702919006,0.2246493250131607,9.768648147583008,1.4987143278121948,-0.4901923835277557,1.5154917240142822
2475960743.0,-0.6145703792572021,0.3619700074195862,9.882298469543455,1.4156218767166138,-0.735781729221344,1.5203841924667358
2475969076.0,-0.656223714351654,0.4670970737934112,10.052705764770508,1.5569868087768557,-0.2453203350305557,1.4672091007232666
2475977409.0,-0.6927497982978821,0.3358883261680603,9.926279067993164,1.5889790058135986,0.1179791688919067,1.5467156171798706
2475985742.0,-0.6678401231765747,0.1449125260114669,9.764469146728516,1.3417505025863647,0.392666220664978,1.6202796697616575
2475994075.0,-0.6792746782302856,0.2028379440307617,9.848206520080566,1.2790979146957395,0.3559610247611999,1.5278891324996948
2476002408.0,-0.7081618905067444,0.4664372503757477,10.000484466552734,1.5109580755233765,-0.0450170151889324,1.4552212953567505
2476010741.0,-0.6582635641098022,0.55380779504776,9.995659828186035,1.9311598539352417,-0.4605055451393127,1.4755338430404663
2476019074.0,-0.6137650609016418,0.3345586359500885,9.723647117614746,1.7332385778427124,-0.7861136794090271,1.5440261363983154
2476027407.0,-0.5535227060317993,0.2503014504909515,9.655014038085938,1.1436755657196045,-0.7699510455131531,1.6090092658996582
2476035740.0,-0.6001594066619873,0.3694317936897278,10.002082824707031,1.0676782131195068,-0.6154460310935974,1.5689998865127563
2476044073.0,-0.5935730934143066,0.5106627941131592,10.259827613830566,1.4534028768539429,-0.1007279679179191,1.2719773054122925
2476052406.0,-0.598392903804779,0.3495354652404785,10.096109390258787,1.7528845071792605,0.1223848089575767,1.3347065448760986
2476060739.0,-0.6492461562156677,0.1887338012456894,9.845680236816406,1.752500295639038,0.3471241295337677,1.4212570190429688
2476069072.0,-0.7061106562614441,0.2439626306295395,9.77279281616211,1.5727651119232178,0.4887964129447937,1.543692946434021
2476077405.0,-0.7452276945114136,0.4078764021396637,9.87386989593506,1.698428750038147,0.4503238797187805,1.5003281831741333
2476085738.0,-0.6324392557144165,0.3836563229560852,9.812010765075684,1.7231464385986328,0.1379582732915878,1.4660561084747314
2476094071.0,-0.5442338585853577,0.2292498499155044,9.716126441955566,1.5992248058319092,-0.3263125419616699,1.42451012134552
2476102404.0,-0.5689550638198853,0.2988220453262329,9.862269401550291,1.4631363153457642,-0.6595025062561035,1.3791216611862185
2476110737.0,-0.5539464950561523,0.479112446308136,10.02129364013672,1.602477788925171,-0.477948784828186,1.5248920917510986
2476119070.0,-0.5529019832611084,0.4051784873008728,10.03349781036377,1.7695339918136597,0.0220026299357414,1.3515608310699463
2476127403.0,-0.5573018789291382,0.1578386127948761,9.94213581085205,1.62360942363739,0.4859788417816162,1.4099611043930054
2476135736.0,-0.6265572309494019,0.1539672613143921,10.031702041625977,1.5191287994384766,0.9062315225601196,1.533908486366272
2476144069.0,-0.6910092234611511,0.3853432536125183,10.134714126586914,1.889715552330017,1.017064332962036,1.325203537940979
2476152402.0,-0.6850497722625732,0.524242103099823,9.931222915649414,2.132487535476685,0.9340486526489258,1.340341567993164
2476160735.0,-0.6079320907592773,0.3609694242477417,9.551496505737305,2.025855541229248,0.5028843283653259,1.1775633096694946
2476169068.0,-0.5763363242149353,0.1403741538524627,9.5115966796875,1.459089279174805,0.1853958219289779,1.304020643234253
2476177401.0,-0.6448398232460022,0.2343800067901611,9.885934829711914,1.4355497360229492,-0.0739611014723777,1.3467708826065063
2476185734.0,-0.6370836496353149,0.3966935873031616,10.223491668701172,1.789026141166687,-0.0311853308230638,1.2144221067428589
2476194067.0,-0.6176514029502869,0.3506164848804474,10.071385383605955,2.092273235321045,0.2414654195308685,1.2113996744155884
2476202400.0,-0.6130306124687195,0.2311122715473175,9.845087051391602,1.896605849266052,0.5113625526428223,1.2375516891479492
2476210733.0,-0.685926079750061,0.2554888129234314,9.783230781555176,1.6705090999603271,0.687716543674469,1.2369112968444824
2476219066.0,-0.7311853766441345,0.3136506974697113,9.907430648803713,1.776065468788147,0.8416581153869629,1.2948250770568848
2476227399.0,-0.659474790096283,0.2751901745796203,9.8631591796875,1.9787254333496087,0.6371028423309326,1.1885772943496704
2476235732.0,-0.5658394694328308,0.1435839980840683,9.778435707092283,1.9380755424499512,0.2106514871120453,1.26444673538208
2476244065.0,-0.586366593837738,0.2059301435947418,9.84030532836914,1.7561631202697754,-0.2544389963150024,1.1419081687927246
2476252398.0,-0.663435697555542,0.3700409829616546,9.934980392456056,1.797888994216919,-0.2157871127128601,1.1824300289154053
2476260731.0,-0.6345972418785095,0.3975937068462372,9.931200981140137,2.039968729019165,0.2252515852451324,1.1365548372268677
2476269064.0,-0.6026947498321533,0.1755742579698562,9.861270904541016,1.7435866594314575,0.7488322257995605,1.2508457899093628
2476277397.0,-0.6145079731941223,0.0925312563776969,9.87000846862793,1.793124437332153,0.8067971467971802,1.245261788368225
2476285730.0,-0.6359332203865051,0.2346947193145752,10.04838752746582,2.014098644256592,0.8349728584289551,1.1552276611328125
2476294063.0,-0.6816449761390686,0.3769758343696594,9.98563289642334,2.534400463104248,0.5580060482025146,1.2642674446105957
2476302396.0,-0.5605849623680115,0.3455323874950409,9.666181564331056,2.4170875549316406,0.3487122356891632,1.2534838914871216
2476310729.0,-0.5553023219108582,0.1691333800554275,9.579354286193848,1.7590575218200684,0.0205682292580604,1.242930889129639
2476319062.0,-0.5781483054161072,0.1704028695821762,9.860193252563477,1.6338038444519043,0.0413157567381858,1.2163175344467163
2476327395.0,-0.6426002383232117,0.3281220495700836,10.220032691955566,2.0360753536224365,0.1912102550268173,1.2454153299331665
2476335728.0,-0.6206126809120178,0.3761548101902008,10.074135780334473,2.26563024520874,0.5665613412857056,1.211527705192566
2476344061.0,-0.5834838151931763,0.2841476798057556,9.74138069152832,2.218090295791626,0.6367698311805725,1.1479532718658447
2476352394.0,-0.6374360918998718,0.2322644591331482,9.712709426879885,1.81284773349762,0.7109231352806091,1.2888314723968506
2476360727.0,-0.6883406043052673,0.3461246192455292,9.90982151031494,1.7074960470199585,0.7169167995452881,1.1896531581878662
2476369060.0,-0.6489142179489136,0.399308830499649,10.027240753173828,2.016327142715454,0.5532675385475159,1.235477089881897
2476377393.0,-0.5421120524406433,0.2957782447338104,9.890990257263184,2.089890956878662,0.3138768374919891,1.1961592435836792
2476385726.0,-0.5118073225021362,0.2237037569284439,9.788753509521484,1.810695767402649,0.13716422021389,1.1998988389968872
2476394059.0,-0.5537583827972412,0.3386422097682953,9.95773220062256,1.7753993272781372,0.0652394518256187,1.2083771228790283
2476402392.0,-0.6481655240058899,0.4171911478042602,10.063186645507812,1.9422249794006348,0.510440468788147,1.2409584522247314
2476410725.0,-0.6429161429405212,0.2640277445316314,9.90816879272461,2.055619239807129,0.8515453338623047,1.1731064319610596
2476419058.0,-0.6378194689750671,0.1243428364396095,9.896698951721191,1.7581866979599,1.1495155096054075,1.1112991571426392
2476427391.0,-0.6692172884941101,0.2151094377040863,10.00714874267578,1.9149458408355715,0.8784913420677185,1.354788303375244
2476435724.0,-0.7323593497276306,0.4441121220588684,10.013164520263672,2.229104518890381,0.53410804271698,1.148439884185791
2476444057.0,-0.6605051755905151,0.4435625374317169,9.717975616455078,2.4012575149536133,0.3990185558795929,1.0657057762145996
2476452390.0,-0.5806850790977478,0.2284057289361953,9.539899826049805,1.9237059354782104,-0.0054942537099123,1.2016661167144775
2476460723.0,-0.5512819290161133,0.1195902824401855,9.741786003112791,1.6054489612579346,0.026126516982913,1.1483373641967771
2476469056.0,-0.6179298758506775,0.249529629945755,10.148173332214355,1.9336953163146973,0.1666462123394012,1.1970300674438477
2476477389.0,-0.6365034580230713,0.3571749329566955,10.23819065093994,2.390986204147339,0.5770887136459351,1.1899349689483645
2476485722.0,-0.622065007686615,0.2880643308162689,9.868952751159668,2.5182125568389893,0.8903252482414246,1.1387321949005127
2476494055.0,-0.6519646048545837,0.226780891418457,9.618054389953612,2.1275954246521,1.0020289421081543,1.247746229171753
2476502388.0,-0.6997328996658325,0.3028092384338379,9.741983413696287,1.7907936573028564,1.0014910697937012,1.232429027557373
2476510721.0,-0.7199422717094421,0.3339928090572357,9.908421516418455,2.017991542816162,0.6246542930603027,1.2763572931289673
2476519054.0,-0.609243631362915,0.2446362823247909,9.842548370361328,1.99757719039917,0.1095264703035354,1.227434158325195
2476527387.0,-0.5193049311637878,0.24994857609272,9.776167869567873,2.043221950531006,-0.3244682848453522,1.1924961805343628
2476535720.0,-0.5167607665061951,0.3907929360866546,9.9284086227417,1.9314156770706177,-0.3208566904067993,1.2158052921295166
2476544053.0,-0.5912782549858093,0.4945353865623474,10.016663551330566,1.9484747648239136,0.0834767818450927,1.239319086074829
2476552386.0,-0.6023032069206238,0.3449297249317169,9.97299575805664,1.8601826429367063,0.6391264200210571,1.2488734722137451
2476560719.0,-0.6332913041114807,0.1833703368902206,9.912334442138672,1.657727837562561,1.0503116846084597,1.343979001045227
2476569052.0,-0.6628646850585938,0.1899977028369903,10.008146286010742,1.7222754955291748,1.1889359951019287,1.2894972562789917
2476577385.0,-0.708025336265564,0.3689118921756744,10.017629623413086,2.0944504737854004,0.8399932980537415,1.2608351707458496
2476585718.0,-0.677970290184021,0.4532125890254974,9.843111038208008,2.07552170753479,0.4394378662109375,1.31365168094635
2476594051.0,-0.59442138671875,0.3282002210617065,9.638545036315918,1.6974811553955078,0.0829645097255706,1.2785857915878296
2476602384.0,-0.577008843421936,0.2616716027259826,9.775056838989258,1.439545512199402,-0.227441594004631,1.2984622716903689
2476610717.0,-0.5899714231491089,0.3456419110298157,10.160492897033691,1.4987400770187378,-0.0117953550070524,1.2024602890014648
2476619050.0,-0.6040154695510864,0.4806611537933349,10.320569038391112,1.906723499298096,0.4802668988704681,1.28278648853302
2476627383.0,-0.5679201483726501,0.4298493862152099,10.120417594909668,2.05981993675232,0.805823802947998,1.110325813293457
2476635716.0,-0.6212150454521179,0.3879747092723846,9.904648780822754,1.706599473953247,0.993883490562439,1.016808271408081
2476644049.0,-0.746203601360321,0.4827818274497986,9.979263305664062,1.41905415058136,1.0047951936721802,1.1807905435562134
2476652382.0,-0.7751340866088867,0.5908300876617432,10.084997177124023,1.534138798713684,0.961532711982727,1.15056574344635
2476660715.0,-0.7190431952476501,0.4882766604423523,9.98365879058838,1.5501477718353271,0.6864358186721802,1.028539538383484
2476669048.0,-0.6364885568618774,0.4180550575256347,9.86741828918457,1.3143688440322876,0.0202352441847324,1.022750735282898
2476677381.0,-0.6241427659988403,0.3787573277950287,9.89186668395996,1.0742610692977903,-0.18748340010643,1.070956826210022
2476685714.0,-0.7306843400001526,0.4728672802448272,10.012535095214844,1.1151156425476074,0.0366539694368839,1.1330713033676147
2476694047.0,-0.693897545337677,0.388334184885025,10.10849380493164,1.220159649848938,0.3731225430965423,1.211322784423828
2476702380.0,-0.6955932378768921,0.2396114915609359,10.031429290771484,1.0986202955245972,0.7855374217033386,1.0787179470062256
2476710713.0,-0.748539388179779,0.2497471272945404,10.02197265625,1.144239068031311,0.9594836235046388,1.202409029006958
2476719046.0,-0.7551483511924744,0.4022475183010101,9.994695663452148,1.5637489557266235,0.9256728291511536,1.0780775547027588
2476727379.0,-0.7553062438964844,0.4176253378391266,9.874604225158691,1.7037309408187866,0.6052131652832031,1.0100204944610596
2476735712.0,-0.6631067395210266,0.2680224180221557,9.624163627624512,1.5279659032821655,0.0596555545926094,1.1243112087249756
2476744045.0,-0.6324830055236816,0.204599916934967,9.64236831665039,1.16360342502594,-0.2174264341592788,1.1604273319244385
2476752378.0,-0.6739851236343384,0.2017048150300979,9.940643310546877,1.3483076095581057,-0.1746506541967392,1.1381428241729736
2476760711.0,-0.7024791240692139,0.2985541522502899,10.133544921875,1.628706693649292,0.1680293828248977,1.004513382911682
2476769044.0,-0.6692384481430054,0.2532945275306701,10.005117416381836,1.9088495969772337,0.5438926815986633,1.1683677434921265
2476777377.0,-0.6985106468200684,0.2316798418760299,9.725017547607422,1.6780141592025757,0.5779851675033569,1.3004345893859863
2476785710.0,-0.7198917865753174,0.279895931482315,9.624969482421877,1.5046058893203735,0.6244494915008545,1.1660881042480469
2476794043.0,-0.7291364669799805,0.2944026589393616,9.75185489654541,1.5110092163085938,0.3718418180942535,1.259118914604187
2476802376.0,-0.6729874610900879,0.1906076371669769,9.754562377929688,1.683521389961243,0.0678265020251274,1.2157796621322632
2476810709.0,-0.5968051552772522,0.1449597328901291,9.74338436126709,1.66641104221344,-0.4775390326976776,1.2408818006515503
2476819042.0,-0.5473363995552063,0.2404393702745437,9.768790245056152,1.512059450149536,-0.5617329478263855,1.335628628730774
2476827375.0,-0.5732822418212891,0.3506954610347748,9.800082206726074,1.7071889638900757,-0.3570240437984466,1.2255643606185913
2476835708.0,-0.6090540885925293,0.2437883615493774,9.77391529083252,1.590874433517456,0.2166964262723922,1.226537585258484
2476844041.0,-0.5928356647491455,0.0328069478273391,9.74933624267578,1.3169816732406616,0.5160244703292847,1.269697666168213
2476852374.0,-0.6071090698242188,0.0099551398307085,9.806082725524902,1.3899052143096924,0.545634388923645,1.2696720361709597
2476860707.0,-0.6350076794624329,0.1278999000787735,9.90804672241211,1.7632070779800415,0.3695622086524963,1.1528199911117554
2476869040.0,-0.6322497725486755,0.2565537393093109,9.80145263671875,1.9683258533477783,-0.0223740339279174,1.120494723320007
2476877373.0,-0.5306248664855957,0.1574170887470245,9.55107307434082,1.9074921607971191,-0.3167584538459778,1.2218246459960938
2476885706.0,-0.4253289699554443,-0.0146654555574059,9.552075386047363,1.3642653226852417,-0.6384731531143188,1.1652940511703491
2476894039.0,-0.4612083733081817,-0.0240289494395256,9.906820297241213,1.386396050453186,-0.5227481722831726,1.147978901863098
2476902372.0,-0.4748684465885162,0.0499285645782947,10.15937328338623,1.8472473621368408,-0.1084634736180305,1.1116578578948977
2476910705.0,-0.4650680124759674,0.0679456889629364,10.107791900634766,2.2481353282928467,0.4789349436759949,0.9895035028457642
2476919038.0,-0.4719997048377991,-0.0312930382788181,9.824576377868652,2.144500255584717,0.7371776103973389,1.141344666481018
2476927371.0,-0.5390341877937317,-0.0001420956104993,9.734495162963867,1.9744222164154053,0.7455280423164368,1.0625553131103516
2476935704.0,-0.5877806544303894,0.1083574146032333,9.859734535217283,2.0946807861328125,0.5670479536056519,1.174310326576233
2476944037.0,-0.5365613102912903,0.1214747354388237,9.897109985351562,2.293268203735352,0.3622108995914459,1.1226975917816162
2476952370.0,-0.4748216867446899,0.0094687072560191,9.759892463684082,2.308533906936645,-0.1243443042039871,1.0801266431808472
2476960703.0,-0.4189858734607696,-0.0204388480633497,9.76883029937744,2.154823064804077,-0.3758504688739776,1.1006436347961426
2476969036.0,-0.4356448054313659,0.1600866764783859,9.948634147644045,2.270880937576294,-0.1271106451749801,1.1184712648391724
2476977369.0,-0.4858829081058502,0.2488962113857269,10.09634017944336,2.440140008926392,0.2910801768302917,1.154792308807373
2476985702.0,-0.5176270008087158,0.1470920443534851,9.945282936096191,2.5074284076690674,1.0889122486114502,1.131380558013916
2476994035.0,-0.5514702796936035,0.052151184529066,9.817359924316406,2.235738515853882,1.3640861511230469,1.3098095655441284
2477002368.0,-0.6140625476837158,0.1694879680871963,9.92345142364502,2.3209826946258545,1.2307127714157104,1.2846564054489136
2477010701.0,-0.6502524614334106,0.3995636701583862,9.99316692352295,2.627431154251098,0.9549242854118348,1.1990535259246826
2477019034.0,-0.5837404727935791,0.4069989919662475,9.73543930053711,2.7775564193725586,0.4351346492767334,1.344568133354187
2477027367.0,-0.5140018463134766,0.2589925527572632,9.528717041015623,2.311633586883545,0.0200815610587596,1.3081958293914795
2477035700.0,-0.5103048086166382,0.247347816824913,9.74327564239502,1.9370251893997192,-0.0930693224072456,1.2570184469223022
2477044033.0,-0.5822710990905762,0.3959429562091827,10.16116714477539,2.1129696369171143,0.3521188795566559,1.2262815237045288
2477052366.0,-0.6249335408210754,0.4830385148525238,10.217280387878418,2.6684398651123047,0.8381234407424927,1.3025351762771606
2477060699.0,-0.6234639883041382,0.4354834258556366,9.84325122833252,2.521465301513672,1.2715163230895996,1.2224394083023071
2477069032.0,-0.6750060319900513,0.3627188503742218,9.627050399780272,2.101827383041382,1.2001038789749146,1.3697724342346191
2477077365.0,-0.7491902709007263,0.428703248500824,9.796229362487791,2.083538293838501,1.0638614892959597,1.2894716262817385
2477085698.0,-0.7654889822006226,0.4739613533020019,9.92705535888672,2.1342806816101074,0.6738592982292175,1.2216198444366455
2477094031.0,-0.6803698539733887,0.4081466495990753,9.822978019714355,2.328564405441284,0.1541720777750015,1.1578658819198608
2477102364.0,-0.5964818596839905,0.3408953845500946,9.737945556640623,2.055311679840088,-0.2026213854551315,1.168803095817566
2477110697.0,-0.5958136916160583,0.4228153228759765,9.890592575073242,1.9641250371932983,-0.2291833758354187,1.2132694721221924
2477119030.0,-0.634666383266449,0.5323100090026855,10.08455753326416,2.14542293548584,0.3306029438972473,1.123158574104309
2477127363.0,-0.6437850594520569,0.4461149871349334,9.995787620544434,2.289400339126587,0.8301829695701599,1.1261297464370728
2477135696.0,-0.6715415120124817,0.2349570542573928,9.838818550109863,1.9214264154434204,1.1948273181915283,1.1134251356124878
2477144029.0,-0.73835289478302,0.2140679657459259,9.897032737731934,1.9216822385787964,1.1208789348602295,1.229662537574768
2477152362.0,-0.7873769402503967,0.4170430898666382,10.02138900756836,2.21199369430542,0.7663266658782959,1.0957001447677612
2477160695.0,-0.699265718460083,0.5068179965019226,9.872167587280272,2.37994647026062,0.2140325456857681,1.1418825387954712
2477169028.0,-0.6067683696746826,0.3522129356861114,9.597992897033691,2.000318050384521,-0.1223976165056228,1.1447769403457642
2477177361.0,-0.5400564670562744,0.1659704446792602,9.67215633392334,1.4569631814956665,-0.2716773748397827,1.2335046529769895
2477185694.0,-0.5587361454963684,0.2063248008489608,10.03557014465332,1.5132375955581665,-0.1190165430307388,1.196645736694336
2477194027.0,-0.5973622798919678,0.3485506176948547,10.314390182495115,1.9719375371932983,0.2388271391391754,1.2647284269332886
2477202360.0,-0.6026497483253479,0.2966366112232208,10.024226188659668,2.299979448318481,0.7455280423164368,1.2846564054489136
2477210693.0,-0.5999295711517334,0.1716075837612152,9.76406192779541,1.932056307792664,0.974621593952179,1.150745153427124
2477219026.0,-0.6602158546447754,0.1950837671756744,9.751346588134766,1.7299340963363647,1.0100716352462769,1.2398314476013184
2477227359.0,-0.71663898229599,0.3044526278972626,9.966171264648438,1.9708105325698853,0.7181207537651062,1.1771022081375122
2477235692.0,-0.6240665316581726,0.234193205833435,9.880400657653809,2.060818910598755,0.368179053068161,1.1806113719940186
2477244025.0,-0.4819433689117431,0.0619441792368888,9.714895248413086,1.9948621988296509,-0.1751629263162613,1.1396796703338623
2477252358.0,-0.4808734059333801,0.1122027337551117,9.847270965576172,1.835336685180664,-0.2879936695098877,1.2692879438400269
2477260691.0,-0.5069193840026855,0.2731847465038299,10.067055702209473,2.021245002746582,-0.1542617231607437,1.210221290588379
2477269024.0,-0.5448309779167175,0.288614273071289,10.09518814086914,2.1918869018554688,0.4774237275123596,1.243955373764038
2477277357.0,-0.5270205736160278,0.0945614725351333,9.87373161315918,2.01548171043396,1.126795768737793,1.2973352670669556
2477285690.0,-0.5909199118614197,0.0285707451403141,9.81725025177002,1.9403551816940308,1.3446447849273682,1.261116862297058
2477294023.0,-0.6666515469551086,0.1675703823566436,9.97250747680664,2.2081520557403564,1.112887263298035,1.298539400100708
2477302356.0,-0.655632734298706,0.382913738489151,9.902119636535645,2.526997804641724,0.6272157430648804,1.1755908727645874
2477310689.0,-0.5975871682167053,0.3122101724147796,9.60525608062744,2.404254674911499,0.0918014198541641,1.100566864013672
2477319022.0,-0.5129119753837585,0.0797730758786201,9.511960983276367,1.829650640487671,-0.1910181641578674,1.2136794328689575
2477327355.0,-0.5474987030029297,0.096338152885437,9.929512977600098,1.6666926145553589,-0.0482956394553184,1.1531784534454346
2477335688.0,-0.579544186592102,0.2701190412044525,10.304171562194824,2.1164019107818604,0.2630581855773926,1.1930598020553589
2477344021.0,-0.59127277135849,0.332949161529541,10.162567138671877,2.4999232292175293,0.9514918923377992,1.1476969718933103
2477352354.0,-0.5939731597900391,0.1963213086128235,9.750214576721191,2.373594284057617,1.2617827653884888,1.2724896669387815
2477360687.0,-0.6388691663742065,0.1316815465688705,9.626389503479004,2.035947322845459,1.0822782516479492,1.236322283744812
2477369020.0,-0.7055564522743225,0.2420520484447479,9.854913711547852,1.877779483795166,0.9628391861915588,1.159377098083496
2477377353.0,-0.7135499715805054,0.3165090680122375,9.991348266601562,2.2858142852783203,0.4710457623004913,1.098671317100525
2477385686.0,-0.6137173771858215,0.1912282854318618,9.800586700439451,2.294830322265625,0.1582703292369842,1.1711339950561523
2477394019.0,-0.5487760901451111,0.1469759941101074,9.721354484558104,2.121011972427368,-0.1250102669000625,1.1459295749664309
2477402352.0,-0.599925696849823,0.3025261461734772,9.97677516937256,2.1212940216064453,0.0509979389607906,1.2184178829193115
2477410685.0,-0.6450442671775818,0.4291627705097198,10.133609771728516,2.261634349822998,0.4760406017303467,1.095751404762268
2477419018.0,-0.6434942483901978,0.2626076340675354,9.925929069519045,2.3822004795074463,1.0054612159729004,1.1876039505004885
2477427351.0,-0.6321156620979309,0.0983267650008201,9.769006729125977,2.012561559677124,1.0647324323654177,1.269492745399475
2477435684.0,-0.6930872797966003,0.2052159309387207,9.938451766967772,2.068246841430664,0.9187313318252563,1.258350491523743
2477444017.0,-0.7389596700668335,0.4442166984081268,10.028736114501951,2.4600932598114014,0.3850587904453277,1.2930833101272583
2477452350.0,-0.6715129613876343,0.4684629142284393,9.792457580566406,2.5472333431243896,0.1945401132106781,1.0581753253936768
2477460683.0,-0.5811881422996521,0.2803791165351867,9.578069686889648,2.150494337081909,-0.0788534283638,1.2365528345108032
2477469016.0,-0.5672716498374939,0.1863332241773605,9.758137702941896,1.6310887336730957,-0.0345151796936988,1.1891664266586304
2477477349.0,-0.6045010089874268,0.3139915466308594,10.188854217529297,1.917046070098877,0.1868045926094055,1.199309468269348
2477485682.0,-0.6304353475570679,0.4580010175704956,10.237019538879396,2.46024751663208,0.7276748418807983,1.232275366783142
2477494015.0,-0.6217317581176758,0.3761034309864044,9.8373384475708,2.477024555206299,0.9050533175468444,1.1873223781585691
2477502348.0,-0.6251829862594604,0.2705746591091156,9.599886894226074,2.0373051166534424,0.9876593351364136,1.2447494268417358
2477510681.0,-0.6935936808586121,0.3330064117908478,9.785242080688477,1.8615659475326536,0.7862802147865295,1.2860652208328247
2477519014.0,-0.7017819285392761,0.4216446280479431,10.003495216369627,2.033385992050171,0.4422809779644012,1.1314831972122192
2477527347.0,-0.6113349795341492,0.3609293103218078,9.912418365478516,2.2522084712982178,0.0793272852897644,1.1289730072021484
2477535680.0,-0.4900529384613037,0.2485021948814392,9.692120552062988,2.051264524459839,-0.1744457334280014,1.1490545272827148
2477544013.0,-0.4934780597686767,0.2992388904094696,9.7880220413208,1.85482919216156,-0.1135350912809372,1.1369132995605469
2477552346.0,-0.5669997334480286,0.4035150706768036,10.059281349182127,1.9604368209838867,0.2519416511058807,1.2584530115127563
2477560679.0,-0.6120671629905701,0.3666300773620605,10.062217712402344,2.1354331970214844,0.8304390907287598,1.164474368095398
2477569012.0,-0.5968207120895386,0.1725581288337707,9.860607147216797,2.01194715499878,1.1301769018173218,1.2990003824234009
2477577345.0,-0.6287075281143188,0.121850199997425,9.793325424194336,1.850090742111206,1.1180356740951538,1.2264608144760132
2477585678.0,-0.6817151308059692,0.3007100820541382,9.93287181854248,2.088354110717773,0.7251133322715759,1.1648073196411133
2477594011.0,-0.6731074452400208,0.4568067789077759,9.879582405090332,2.287043809890747,0.2916949093341827,1.2279465198516846
2477602344.0,-0.5518369674682617,0.2949433326721191,9.593868255615234,2.2201907634735107,-0.0179171580821275,1.2163689136505127
2477610677.0,-0.5099604725837708,0.0768697634339332,9.629890441894531,1.6190500259399414,-0.1637646108865738,1.218622803688049
2477619010.0,-0.5347262024879456,0.1397536695003509,10.001848220825195,1.6761698722839355,-0.0046233688481152,1.2279462814331057
2477627343.0,-0.5956593155860901,0.3182330727577209,10.31715488433838,2.0681958198547363,0.5399737358093262,1.0950342416763306
2477635676.0,-0.578114926815033,0.3320494592189789,10.037323951721191,2.539651393890381,0.9272096157073976,1.1047931909561155
2477644009.0,-0.6163082718849182,0.1578493118286132,9.659010887145996,2.108743190765381,1.1184455156326294,1.1494388580322266
2477652342.0,-0.6633224487304688,0.1270096153020858,9.696763038635254,1.6411808729171753,1.025209665298462,1.2916489839553833
2477660675.0,-0.7328210473060608,0.2160335779190063,9.948416709899902,1.807212352752685,0.8121249675750732,1.296131610870361
2477669008.0,-0.6819308400154114,0.2404490411281585,9.988667488098145,2.187583923339844,0.3521957695484161,1.279636025428772
2477677341.0,-0.5602787137031555,0.1607171148061752,9.793730735778809,2.2115840911865234,-0.0310316439718008,1.24308443069458
2477685674.0,-0.5191501975059509,0.1409144103527069,9.737196922302246,1.9594122171401973,-0.2452178746461868,1.199360966682434
2477694007.0,-0.5544416904449463,0.274674654006958,10.02406120300293,1.931492567062378,-0.0522914603352546,1.148695945739746
2477702340.0,-0.621228039264679,0.3092120885848999,10.138250350952148,2.130694627761841,0.5353631377220154,1.0896040201187134
2477710673.0,-0.6066503524780273,0.1442967802286148,9.947525024414062,2.0999319553375244,1.040911316871643,1.187834620475769
2477719006.0,-0.6292896270751953,0.024638844653964,9.82559299468994,2.089967966079712,1.2046886682510376,1.1884748935699463
2477727339.0,-0.6836960315704346,0.1651714891195297,9.893304824829102,2.1596128940582275,0.9021077156066896,1.2177006006240845
2477735672.0,-0.7076736092567444,0.4040483832359314,9.981642723083496,2.4520504474639893,0.4981712698936462,1.2302004098892212
2477744005.0,-0.6349585056304932,0.4247865080833435,9.719298362731934,2.4121689796447754,0.1430810987949371,1.1730551719665527
2477752338.0,-0.5391284823417664,0.1883720606565475,9.558660507202148,2.000369071960449,-0.2216015458106994,1.0933691263198853
2477760671.0,-0.5479194521903992,0.0943224728107452,9.850353240966797,1.610341191291809,-0.1604603677988052,1.2424185276031494
2477769004.0,-0.5836355090141296,0.2514727115631103,10.26088523864746,1.980620622634888,0.1641616374254226,1.172722101211548
2477777337.0,-0.6000472903251648,0.4123512208461761,10.238458633422852,2.626637458801269,0.711973249912262,1.1216472387313845
2477785670.0,-0.5685675144195557,0.3414009213447571,9.83183479309082,2.4554574489593506,0.9925259351730348,1.1502327919006348
2477794003.0,-0.6360094547271729,0.2078979164361953,9.591903686523438,2.020399570465088,0.9584077596664428,1.1855548620224
2477802336.0,-0.7173044085502625,0.2664982676506042,9.780760765075684,1.742997407913208,0.8915290236473083,1.1743358373641968
2477810669.0,-0.7368606925010681,0.3489520251750946,10.034756660461426,2.1025190353393555,0.5180478692054749,1.16478168964386
2477819002.0,-0.6133324503898621,0.293168157339096,9.87462043762207,2.352923393249512,0.227070152759552,1.037299633026123
2477827335.0,-0.4995268881320953,0.2023327648639679,9.690152168273926,2.1042351722717285,-0.1196569129824638,1.1414473056793213
2477835668.0,-0.5160120129585266,0.2857613563537597,9.86223030090332,1.978520512580872,-0.2256742268800735,1.3084776401519775
2477844001.0,-0.5644270181655884,0.4477557837963104,10.103443145751951,2.125955820083618,0.2922840416431427,1.15771222114563
2477852334.0,-0.5744816660881042,0.3289245963096618,10.027050018310549,2.156898021697998,0.8350753784179688,1.283068299293518
2477860667.0,-0.5860885381698608,0.1241077929735183,9.8644380569458,2.0126640796661377,1.1975679397583008,1.2777148485183716
2477869000.0,-0.627039909362793,0.1305843293666839,9.872191429138184,2.0597176551818848,1.0668586492538452,1.2670594453811646
2477877333.0,-0.6983222961425781,0.4022207260131836,9.98845100402832,2.3328166007995605,0.7183513045310974,1.2118864059448242
2477885666.0,-0.6736357808113098,0.5416878461837769,9.831876754760742,2.507607936859131,0.3859809041023254,1.1567643880844116
2477893999.0,-0.5751959085464478,0.3236758112907409,9.538350105285645,2.047755718231201,-0.0627164617180824,1.2390373945236206
2477902332.0,-0.5322076082229614,0.1432331055402755,9.644109725952148,1.6231995820999146,-0.2004954218864441,1.2911111116409302
2477910665.0,-0.5763826966285706,0.2290961444377899,10.125337600708008,1.7817773818969729,-0.0209652502089738,1.2607581615447998
2477918998.0,-0.5986109972000122,0.3976255059242248,10.345571517944336,2.297417402267456,0.574885904788971,1.2503844499588013
2477927331.0,-0.5989691019058228,0.4073500037193298,9.982001304626465,2.5558652877807617,1.0669097900390625,1.2317886352539062
2477935664.0,-0.6006647348403931,0.2658832371234894,9.61157512664795,2.133512258529663,1.1249772310256958,1.1382453441619873
2477943997.0,-0.7020410299301147,0.2579519152641296,9.677377700805664,1.6593927145004272,0.9349708557128906,1.28757643699646
2477952330.0,-0.7375859022140503,0.324723869562149,10.0157470703125,1.8814936876297,0.6249617338180542,1.2883448600769043
2477960663.0,-0.6765145659446716,0.290704995393753,9.957425117492676,2.1645822525024414,0.3132108747959137,1.2548670768737793
2477968996.0,-0.5384950637817383,0.1632304191589355,9.758715629577637,2.155694007873535,-0.0228607021272182,1.1430864334106443
2477977329.0,-0.5269269943237305,0.2088923305273056,9.775775909423828,1.8237593173980715,-0.2149162292480468,1.177870512008667
2477985662.0,-0.596113920211792,0.3520808815956116,10.008943557739258,1.982592821121216,-0.056338507682085,1.2183923721313477
2477993995.0,-0.6140936017036438,0.3499236404895782,10.094644546508787,2.155796527862549,0.5883334279060364,1.2063792943954468
2478002328.0,-0.616645872592926,0.1333993375301361,9.861955642700195,2.042965888977051,1.0576629638671875,1.215959072113037
2478010661.0,-0.6360767483711243,0.0184433050453662,9.85097312927246,1.9290846586227417,1.0042572021484375,1.2624231576919556
2478018994.0,-0.7188536524772644,0.202191412448883,10.01848316192627,2.081899404525757,0.9553340673446656,1.1971068382263184
2478027327.0,-0.7166087031364441,0.4341378509998321,9.948935508728027,2.397569417953491,0.4980944395065307,1.270210027694702
2478035660.0,-0.6137663722038269,0.3500140011310577,9.62067985534668,2.4080965518951416,0.1001260355114936,1.1893969774246216
2478043993.0,-0.5291768908500671,0.1245456114411354,9.537360191345217,1.7517317533493042,-0.1879188269376754,1.096238136291504
2478052326.0,-0.5363522171974182,0.0844938084483146,9.892008781433104,1.6053465604782104,-0.0892015695571899,1.1223902702331543
2478060659.0,-0.5942047834396362,0.2690867185592651,10.35578441619873,2.0990355014801025,0.2807832658290863,1.1580196619033811
2478068992.0,-0.5489011406898499,0.3400911688804626,10.163488388061523,2.603610038757324,0.6853088736534119,1.1493107080459597
2478077325.0,-0.5738837718963623,0.2048963159322738,9.752175331115724,2.349696159362793,1.038170576095581,1.2812751531600952
2478085658.0,-0.6471916437149048,0.1869053691625595,9.628424644470217,1.875192403793335,0.9776185154914856,1.218904733657837
2478093991.0,-0.7111382484436035,0.2743127942085266,9.886096954345703,1.869403839111328,0.911559522151947,1.1720049381256104
2478102324.0,-0.7089055180549622,0.316755086183548,9.996173858642578,2.237147092819214,0.5354655385017395,1.1497206687927246
2478110657.0,-0.5606900453567505,0.1898529082536697,9.798983573913574,2.2499287128448486,0.1362421065568924,1.1462626457214355
2478118990.0,-0.4765973389148712,0.1254917532205581,9.727663040161133,2.0110504627227783,-0.2127134054899215,1.133557915687561
2478127323.0,-0.5221771001815796,0.2864667475223541,9.945137977600098,2.07662296295166,-0.2680658102035522,1.236655354499817
2478135656.0,-0.5770605206489563,0.4061888456344604,10.11677074432373,2.0941431522369385,0.2525051236152649,1.2345550060272217
2478143989.0,-0.5791223645210266,0.2486491650342941,9.976494789123535,2.180488586425781,0.94196355342865,1.2236944437026978
2478152322.0,-0.5876944661140442,0.0455355122685432,9.841050148010254,2.0049543380737305,1.1781010627746582,1.2347599267959597
2478160655.0,-0.644536018371582,0.1296433210372924,9.951473236083984,2.088584899902344,1.066166877746582,1.2403950691223145
2478168988.0,-0.706800639629364,0.4089008271694183,10.005060195922852,2.415832281112671,0.7491396069526672,1.2138075828552246
2478177321.0,-0.6483119130134583,0.4874680042266845,9.74825382232666,2.541444540023804,0.2935647666454315,1.1216217279434204
2478185654.0,-0.5658633708953857,0.2685075998306274,9.468389511108398,2.0675041675567627,-0.0885612145066261,1.1523587703704834
2478193987.0,-0.5290536880493164,0.1460481882095337,9.761077880859377,1.486727237701416,-0.1800296753644943,1.2100164890289309
2478202320.0,-0.5893356204032898,0.2688486278057098,10.211594581604004,1.861207127571106,0.1123696491122245,1.1759239435195925
2478210653.0,-0.620480477809906,0.4002144336700439,10.367996215820312,2.4568915367126465,0.6674301624298096,1.177716851234436
2478218986.0,-0.5985665917396545,0.3572736978530884,9.911961555480955,2.5155487060546875,1.0093289613723757,1.1886541843414309
2478227319.0,-0.6353729963302612,0.2367917597293853,9.555248260498049,2.1134819984436035,1.181815266609192,1.1766668558120728
2478235652.0,-0.6969826221466064,0.2846767008304596,9.748826026916504,1.7215840816497805,0.9751339554786682,1.1928807497024536
2478243985.0,-0.720403790473938,0.3705023825168609,9.986007690429688,1.9791609048843384,0.5845937132835388,1.1809955835342407
2478252318.0,-0.6175257563591003,0.3014821410179138,9.89773178100586,2.256229877471924,0.1796070039272308,1.124080777168274
2478260651.0,-0.5521491169929504,0.1715915650129318,9.71955680847168,2.1212172508239746,-0.1578477323055267,1.136580467224121
2478268984.0,-0.541862428188324,0.2272623181343078,9.855483055114746,1.9887917041778564,-0.1894556879997253,1.1134507656097412
2478277317.0,-0.6218417882919312,0.420445442199707,10.09764575958252,2.000164031982422,0.2881601452827453,1.2460556030273438
2478285650.0,-0.6410917043685913,0.3939909040927887,10.038240432739258,2.277003288269043,0.8968312740325928,1.2092738151550293
2478293983.0,-0.6402701139450073,0.161808043718338,9.822800636291504,2.045450448989868,1.2486428022384644,1.2768183946609497
2478302316.0,-0.6706041097640991,0.0762482583522796,9.809266090393066,1.8707355260849,1.1115039587020874,1.2456715106964111
2478310649.0,-0.7007187604904175,0.2901920974254608,9.968742370605469,2.117375135421753,0.6427379846572876,1.2476437091827393
2478318982.0,-0.6787241101264954,0.4823209345340729,9.960128784179688,2.495236158370972,0.1485113203525543,1.193008542060852
2478327315.0,-0.5848289728164673,0.3545299172401428,9.632190704345703,2.318293333053589,-0.1691948324441909,1.1990536451339722
2478335648.0,-0.5264769196510315,0.1476874053478241,9.612643241882324,1.764692783355713,-0.2188095897436142,1.2157796621322632
2478343981.0,-0.5718516707420349,0.1690441220998764,10.017333030700684,1.5410292148590088,0.0650345459580421,1.2404462099075315
2478352314.0,-0.6076409816741943,0.3198012113571167,10.375126838684082,2.2343554496765137,0.5725806355476379,1.1546896696090698
2478360647.0,-0.613934338092804,0.3792417049407959,10.082703590393066,2.4636027812957764,1.052002191543579,1.1585575342178345
2478368980.0,-0.6101310849189758,0.2121657282114029,9.638516426086426,2.219217538833618,1.0819709300994873,1.2095553874969482
2478377313.0,-0.6489966511726379,0.1938934326171875,9.63621997833252,1.8104395866394043,0.8617396950721741,1.1747455596923828
2478385646.0,-0.7080026865005493,0.3082140386104584,9.906636238098145,1.8998335599899288,0.5241185426712036,1.2337608337402344
2478393979.0,-0.6531371474266052,0.3302097916603088,10.004643440246582,2.247188091278076,0.1225897297263145,1.1583269834518433
2478402312.0,-0.5253323316574097,0.1964476108551025,9.759858131408691,2.2191407680511475,-0.1025978252291679,1.1865283250808716
2478410645.0,-0.4927682280540466,0.1333502531051635,9.764050483703612,1.957286357879639,-0.1317468136548996,1.1943917274475098
2478418978.0,-0.5512986779212952,0.2859151065349579,10.024635314941406,1.793918490409851,0.1284041553735733,1.1485934257507324
2478427311.0,-0.6351309418678284,0.3930906355381012,10.1610107421875,2.1489577293396,0.7523157596588135,1.1939563751220703
2478435644.0,-0.6148890852928162,0.2171730101108551,9.894232749938965,2.20943284034729,1.26739239692688,1.1450331211090088
2478443977.0,-0.6111278533935547,0.0379458926618099,9.72805404663086,1.987741470336914,1.150924563407898,1.1319955587387085
2478452310.0,-0.6625104546546936,0.151155948638916,9.878069877624512,1.9932485818862915,0.8259310126304626,1.2325314283370972
2478460643.0,-0.6558648943901062,0.3967613279819488,10.009984970092772,2.316525936126709,0.324199378490448,1.116140365600586
2478468976.0,-0.5857350826263428,0.3638629913330078,9.759265899658203,2.4078917503356934,0.0223356168717145,1.1292548179626465
2478477309.0,-0.4975484907627105,0.1439262181520462,9.583636283874512,1.944888949394226,-0.0337211415171623,1.2377055883407593
2478485642.0,-0.5246618390083313,0.0737076550722122,9.855098724365234,1.6717129945755005,0.1156994998455047,1.2084028720855713
2478493975.0,-0.6159994006156921,0.2426063418388366,10.289995193481444,1.9758309125900269,0.494841456413269,1.2294321060180664
2478502308.0,-0.6455559730529785,0.3730770051479339,10.230600357055664,2.495082378387451,1.1387320756912231,1.1434450149536133
2478510641.0,-0.6457802653312683,0.2975628674030304,9.757122039794922,2.4844272136688232,1.2311995029449463,1.2318655252456665
2478518974.0,-0.6500029563903809,0.1883338838815689,9.554067611694336,1.9914041757583616,0.9918344020843506,1.3088617324829102
2478527307.0,-0.7025913000106812,0.257390022277832,9.80251121520996,1.802627444267273,0.5935330390930176,1.2989747524261477
2478535640.0,-0.6932836174964905,0.3357307612895965,10.04841423034668,2.128363847732544,0.1771224439144134,1.1928292512893677
2478543973.0,-0.589235246181488,0.2550575137138366,9.884532928466797,2.370699882507324,-0.1102052554488182,1.2382946014404297
2478552306.0,-0.5416989326477051,0.1313086599111557,9.729912757873535,2.171113967895508,-0.1498817056417465,1.1925731897354126
2478560639.0,-0.5725529789924622,0.2326218634843826,9.847820281982422,2.047499418258667,0.0128839593380689,1.170493721961975
2478568972.0,-0.6761374473571777,0.2931111454963684,10.01404857635498,2.286505937576294,0.7651740312576294,1.1824300289154053
2478577305.0,-0.7167760729789734,-0.0075278235599398,9.671245574951172,2.418009281158448,1.3210028409957886,1.1448025703430176
2478585638.0,-0.6793934106826782,-0.0705825015902519,9.365718841552734,2.543801069259644,1.4065033197402954,1.154792308807373
2478593971.0,-0.5219589471817017,0.2010812163352966,9.626754760742188,2.6244349479675293,0.7538270354270935,1.169033765792847
2478602304.0,-0.5289807915687561,0.4787837862968445,10.102940559387209,2.6078367233276367,0.0693121254444122,1.18688702583313
2478610637.0,-0.4512531757354736,0.3634181618690491,9.791277885437012,2.6295316219329834,-0.3112770020961761,1.2514346837997437
2478618970.0,-0.2481015473604202,0.1388566195964813,9.424912452697754,2.547130823135376,-0.613115131855011,1.1766412258148191
2478627303.0,-0.2827154099941253,0.2268984317779541,9.91064167022705,2.328103542327881,-0.3918081223964691,1.3853201866149902
2478635636.0,-0.4622086882591247,0.4786418378353119,10.35915184020996,2.246086597442627,0.618506908416748,1.1453659534454346
2478643969.0,-0.5771476030349731,0.5813726782798767,10.288716316223145,2.6197729110717773,1.6365704536437988,1.3515863418579102
2478652302.0,-0.564782977104187,0.5039047002792358,9.888585090637209,2.3862736225128174,2.046987295150757,1.3954380750656128
2478660635.0,-0.5859871506690979,0.3633877336978912,9.65044116973877,1.6184097528457642,1.6774762868881226,1.3350650072097778
2478668968.0,-0.6514429450035095,0.281964898109436,9.814875602722168,1.4437462091445925,0.8671442866325378,1.3713092803955078
2478677301.0,-0.7102745771408081,0.2921250164508819,10.056641578674316,1.9582597017288208,0.0494098626077175,1.477582931518555
2478685634.0,-0.5170982480049133,0.2521905899047851,9.989875793457031,2.062227725982666,-0.3449597358703613,1.4820398092269895
2478693967.0,-0.4537543654441833,0.2313755005598068,9.908885955810549,1.9223994016647337,-0.4127093553543091,1.257658839225769
2478702300.0,-0.5375087261199951,0.3327012360095978,10.00568389892578,1.891764998435974,-0.0196845401078462,1.2726945877075195
2478710633.0,-0.6032988429069519,0.3932424485683441,10.137907028198242,2.074625253677368,1.0778471231460571,1.3442351818084717
2478718966.0,-0.6845746636390686,0.2119217962026596,10.040342330932615,2.078108549118042,1.7433305978775024,1.1377843618392944
2478727299.0,-0.7394547462463379,-0.0162876807153224,9.825008392333984,2.123957872390747,1.9445044994354248,1.051899790763855
2478735632.0,-0.7550231218338013,0.0169333480298519,9.76048755645752,2.399797439575196,1.448356866836548,1.071622610092163
2478743965.0,-0.7851447463035583,0.2758607566356659,9.86475944519043,2.68224573135376,0.71435546875,1.095213532447815
2478752298.0,-0.7474195957183838,0.4425020813941955,9.825836181640623,2.844922065734864,0.0415206737816333,0.9827414155006408
2478760631.0,-0.6171560883522034,0.3423697054386139,9.585482597351074,2.508171558380127,-0.122397631406784,1.1512317657470703
2478768964.0,-0.5655385255813599,0.2286820411682129,9.668160438537598,2.011152744293213,-0.1213730499148368,1.1866562366485596
2478777297.0,-0.6106008887290955,0.2381791621446609,9.97212028503418,2.070578098297119,0.5580829977989197,1.123875856399536
2478785630.0,-0.6583626866340637,0.2881858646869659,10.146391868591309,2.355382442474365,1.1460832357406616,1.1483628749847412
2478793963.0,-0.6929131746292114,0.2393293231725692,9.951967239379885,2.5262296199798584,1.509984850883484,1.1721330881118774
2478802296.0,-0.7278253436088562,0.2482995241880417,9.703339576721191,2.2223422527313232,1.5308091640472412,1.1631423234939575
2478810629.0,-0.8049399852752686,0.3099784255027771,9.65495777130127,1.947245597839356,1.1538443565368652,1.2738215923309326
2478818962.0,-0.8236586451530457,0.4670678377151489,9.79599666595459,1.974575638771057,0.7772895097732544,1.35092031955719
2478827295.0,-0.7487415671348572,0.4437615275382995,9.830768585205078,1.9224506616592407,0.1694637686014175,1.208044171333313
2478835628.0,-0.5953117609024048,0.2108356207609176,9.71073055267334,1.710800290107727,-0.2412476688623428,1.2580944299697876
2478843961.0,-0.5305763483047485,0.135684922337532,9.863998413085938,1.6546283960342407,-0.390681117773056,1.3125501871109009
2478852294.0,-0.568605363368988,0.2440648078918457,10.152490615844728,1.7558815479278564,0.0662640258669853,1.2244887351989746
2478860627.0,-0.6369876861572266,0.3366620540618896,10.20213794708252,2.2389912605285645,0.7024959325790405,1.2453640699386597
2478868960.0,-0.6022036075592041,0.1964100450277328,9.971158027648926,2.193935871124268,1.3891624212265017,1.2519726753234863
2478877293.0,-0.6589289903640747,0.1146505698561668,9.826726913452148,2.0263166427612305,1.3973077535629272,1.1890640258789062
2478885626.0,-0.6983163356781006,0.2017129212617874,9.89811897277832,2.2210617065429688,1.021905541419983,1.2175214290618896
2478893959.0,-0.6903302073478699,0.336159735918045,9.866374969482422,2.63193941116333,0.3151319324970245,1.2215173244476318
2478902292.0,-0.5516346096992493,0.200429081916809,9.593936920166016,2.6866002082824707,-0.2759293615818023,1.1882188320159912
2478910625.0,-0.4717953503131866,0.0215778890997171,9.585823059082031,2.343600034713745,-0.5358626246452332,1.1310220956802368
2478918958.0,-0.4977289736270904,0.0348505899310112,9.889836311340332,2.289016008377075,-0.3624798357486725,1.125207781791687
2478927291.0,-0.5806195139884949,0.2130689620971679,10.196887969970703,2.950119733810425,0.3879788219928741,1.111324667930603
2478935624.0,-0.5742639303207397,0.2763237059116363,9.96985149383545,3.365428686141968,1.209913969039917,1.2363990545272827
2478943957.0,-0.5303022265434265,0.0706050619482994,9.504426956176758,3.102908134460449,1.511957049369812,1.2386019229888916
2478952290.0,-0.5850704312324524,-0.077002577483654,9.28040885925293,2.670898914337158,1.055101752281189,1.2846307754516602
2478960623.0,-0.6224046945571899,-0.0426037535071373,9.488151550292969,2.7556819915771484,0.5162549614906311,1.3934143781661987
2478968956.0,-0.5941145420074463,-0.071214735507965,9.56041431427002,3.153266191482544,-0.0119490418583154,1.4057093858718872
2478977289.0,-0.4584658145904541,-0.2164619415998459,9.407444953918455,3.3648905754089355,-0.3013386726379394,1.438751459121704
2478985622.0,-0.4308048188686371,-0.2160716652870178,9.33229160308838,3.197450876235962,-0.3658865392208099,1.4495608806610107
2478993955.0,-0.4783455729484558,-0.0723885223269462,9.559950828552246,3.109952688217163,0.1804010868072509,1.4282243251800537
2479002288.0,-0.5436773300170898,-0.0172777082771062,9.665905952453612,3.33325719833374,0.9379675984382628,1.4641865491867063
2479010621.0,-0.5492274165153503,-0.1413195729255676,9.522941589355469,3.3816936016082764,1.4765580892562866,1.5784003734588623
2479018954.0,-0.5626813173294067,-0.1768698990345001,9.363585472106934,3.3522114753723145,1.4098585844039917,1.5814740657806396
2479027287.0,-0.5733805298805237,0.0924524739384651,9.518613815307615,3.3708584308624268,0.8218838572502136,1.4613687992095947
2479035620.0,-0.6114855408668518,0.4406348764896393,9.739444732666016,3.680253267288208,0.3962010145187378,1.415698766708374
2479043953.0,-0.5430192351341248,0.5733086466789246,9.814200401306152,3.525363683700561,0.1679012924432754,1.2544571161270142
2479052286.0,-0.4445120692253113,0.521138072013855,9.791337966918944,3.003217935562134,-0.0571069382131099,1.303610920906067
2479060619.0,-0.4035654366016388,0.5372042059898376,10.02439785003662,2.5170085430145264,0.323405385017395,1.2623720169067385
2479068952.0,-0.4474396407604217,0.7574779391288757,10.43061351776123,2.5792765617370605,0.7055697441101074,1.0757465362548828
2479077285.0,-0.504250168800354,0.9172727465629578,10.59341049194336,2.9222002029418945,1.2094531059265137,1.0144262313842771
2479085618.0,-0.5132898092269897,0.916803240776062,10.38296604156494,2.668081283569336,1.5212806463241575,1.030102014541626
2479093951.0,-0.603683590888977,0.9359856843948364,10.272693634033203,2.127851247787476,1.4671578407287598,0.9346633553504944
2479102284.0,-0.6798827648162842,0.9678992629051208,10.375335693359377,1.736696481704712,1.4101405143737793,0.9170409440994264
2479110617.0,-0.7017315626144409,0.9534786939620972,10.583001136779783,1.6199978590011597,1.1716974973678589,0.8887882828712463
2479118950.0,-0.6707882285118103,0.7600790858268738,10.571833610534668,1.6831625699996948,0.8850998282432556,0.7543391585350037
2479127283.0,-0.5977773666381836,0.6775602102279663,10.467062950134276,1.3589887619018557,0.6118471622467041,0.749421238899231
2479135616.0,-0.600516676902771,0.7479356527328491,10.531767845153809,1.4175941944122314,0.6752424240112305,0.7365372776985168
2479143949.0,-0.6922231316566467,0.7203383445739746,10.568337440490724,1.435216784477234,0.9422451853752136,0.6819277405738831
2479152282.0,-0.7769895792007446,0.5741932392120361,10.569101333618164,1.4358315467834473,1.5194109678268433,0.8572572469711304
2479160615.0,-0.8929909467697144,0.3850874006748199,10.52816104888916,1.2914695739746094,1.859951853752136,0.9572039842605592
2479168948.0,-0.9517943263053894,0.3775330185890198,10.396584510803224,1.4723317623138428,1.8586455583572388,0.9951642155647278
2479177281.0,-1.0251283645629885,0.5362539291381836,10.251469612121582,2.0300307273864746,1.571996808052063,1.0830979347229004
2479185614.0,-1.0218912363052368,0.527695894241333,10.013010025024414,2.012945890426636,0.8912729024887085,1.068779468536377
2479193947.0,-0.9680182933807372,0.3658736944198608,9.841444969177246,1.6067298650741575,0.2796306312084198,1.155688762664795
2479202280.0,-0.9394578337669371,0.2653394341468811,9.982170104980469,1.3204394578933716,0.0778672844171524,1.271567463874817
2479210613.0,-0.9548215866088868,0.3459703624248504,10.201204299926758,1.634060263633728,0.2843948602676391,1.2263327836990356
2479218946.0,-0.9676485657691956,0.4631829261779785,10.246798515319824,2.2439095973968506,0.6649712324142456,1.3919289112091064
2479227279.0,-0.9008864164352416,0.3928033113479614,9.888269424438477,2.099214553833008,1.0916787385940552,1.5489696264266968
2479235612.0,-0.9183894395828248,0.3067412078380584,9.5811128616333,1.7476335763931274,1.1122981309890747,1.623635172843933
2479243945.0,-0.9500530362129213,0.3158882558345794,9.616310119628906,1.4691299200057983,0.8339993953704834,1.6345466375350952
2479252278.0,-0.9535136222839355,0.3169448673725128,9.748315811157228,1.6963541507720947,0.5533187389373779,1.676374912261963
2479260611.0,-0.9021068811416626,0.3233864903450012,9.71363639831543,1.8386664390563965,0.1034558862447738,1.6213552951812744
2479268944.0,-0.7687588334083557,0.2668344378471374,9.495094299316406,1.5743021965026855,-0.1314650624990463,1.5969963073730469
2479277277.0,-0.6721245050430298,0.3007992506027221,9.419951438903809,1.46480131149292,-0.4092002511024475,1.569999098777771
2479285610.0,-0.6390551924705505,0.3577959239482879,9.522990226745604,1.433449387550354,-0.3580741882324219,1.5280940532684326
2479293943.0,-0.6008461117744446,0.2546792924404144,9.605667114257812,1.2942872047424316,0.0112190339714288,1.4599602222442627
2479302276.0,-0.5668132901191711,0.0528349019587039,9.567728996276855,1.3073248863220217,0.2454355955123901,1.4695653915405271
2479310609.0,-0.5226422548294067,0.06462162733078,9.591788291931152,1.2651126384735107,0.2237147241830825,1.321054220199585
2479318942.0,-0.5253369808197021,0.2291083186864853,9.60791301727295,1.654935598373413,0.0107835922390222,1.2595800161361694
2479327275.0,-0.4698764681816101,0.2809472680091858,9.442285537719728,1.8283441066741943,-0.2727275490760803,1.2161638736724854
2479335608.0,-0.3750059008598327,0.0823730528354644,9.27803897857666,1.5001232624053955,-0.5035117864608765,1.0520790815353394
2479343941.0,-0.3510944843292236,-0.1277777701616287,9.463233947753906,1.1412678956985474,-0.7710524797439575,1.0238778591156006
2479352274.0,-0.3113060295581817,-0.1633208692073822,9.72188663482666,1.205457091331482,-0.7598333954811096,0.8545676469802856
2479360607.0,-0.3220891654491424,0.0099272681400179,9.906888961791992,1.749400973320007,-0.4832509458065033,0.667071521282196
2479368940.0,-0.3730190992355346,-0.0170044712722301,9.774134635925291,2.220165014266968,-0.0515998750925064,0.7067992091178894
2479377273.0,-0.3885487616062164,-0.085133820772171,9.568914413452148,1.9597196578979488,0.2687701880931854,0.9219074845314026
2479385606.0,-0.4444352090358734,-0.0954378545284271,9.610674858093262,1.6188195943832395,0.2055286169052124,0.7657632231712341
2479393939.0,-0.533957839012146,-0.0645390301942825,9.808171272277832,1.8356441259384155,0.2173623889684677,0.7154311537742615
2479402272.0,-0.5571803450584412,-0.0771543458104133,9.855972290039062,2.275568723678589,0.1528657525777816,0.7979090809822083
2479410605.0,-0.5214977860450745,-0.1319223493337631,9.733963012695312,2.319420337677002,-0.0674294754862785,0.8007266521453857
2479418938.0,-0.4980454742908478,-0.097795732319355,9.696622848510742,2.221496820449829,-0.1828728169202804,0.8568729758262634
2479427271.0,-0.5325950384140015,0.0430961400270462,9.880501747131348,2.2708044052124023,-0.1963715255260467,1.0985946655273438
2479435604.0,-0.6056857705116272,0.1274885088205337,10.09662914276123,2.4275119304656982,0.1707700788974762,1.113553166389465
2479443937.0,-0.6260486245155334,0.0355997905135154,10.070884704589844,2.5022287368774414,0.6389983296394348,1.1048955917358398
2479452270.0,-0.6558991074562073,-0.0029054093174636,10.009411811828612,2.39902925491333,0.9520555138587952,1.08309805393219
2479460603.0,-0.7278411388397217,0.1110419854521751,10.08173656463623,2.53757643699646,0.8847412467002869,1.2209025621414185
2479468936.0,-0.7556695938110352,0.2786369025707245,10.09023666381836,2.9036810398101807,0.8103576302528381,1.259989857673645
2479477269.0,-0.7192057967185974,0.3652840554714203,10.032590866088867,2.954550743103028,0.3140561580657959,1.296695113182068
2479485602.0,-0.6319474577903748,0.2990782558917999,9.952596664428713,2.672691822052002,0.0314542837440967,1.2708503007888794
2479493935.0,-0.556739330291748,0.2601803541183471,10.015031814575195,2.453920602798462,-0.1090270057320594,1.472741723060608
2479502268.0,-0.5770719647407532,0.3664478063583374,10.341219902038574,2.637446641921997,0.0564025416970253,1.5287600755691528
2479510601.0,-0.6053028106689453,0.4478379786014557,10.444005966186523,3.126960515975952,0.6055205464363098,1.4499962329864502
2479518934.0,-0.575433611869812,0.5015430450439453,10.208049774169922,2.998120784759521,1.0270284414291382,1.519871950149536
2479527267.0,-0.5281459093093872,0.534213125705719,9.996270179748535,2.759140014648437,1.1103771924972534,1.5350866317749023
2479535600.0,-0.6369987726211548,0.5916621685028076,10.019770622253418,2.453664541244507,0.9162468314170836,1.522638201713562
2479543933.0,-0.6715425252914429,0.6494677662849426,10.119338989257812,2.5360140800476074,0.8034416437149048,1.4497400522232056
2479552266.0,-0.6029815077781677,0.6329252123832703,10.123230934143066,2.5187504291534424,0.5009632110595703,1.4188493490219116
2479560599.0,-0.5396646857261658,0.6078799366950989,9.978028297424316,2.3787426948547363,0.3583687841892242,1.3632663488388062
2479568932.0,-0.4785803258419037,0.6527615785598755,9.87315845489502,2.205718755722046,0.1002797409892082,1.3879073858261108
2479577265.0,-0.5035046935081482,0.7028809785842896,10.034628868103027,2.184586763381958,0.3844440579414367,1.25494384765625
2479585598.0,-0.5834536552429199,0.6014781594276428,10.1014986038208,1.9653546810150144,0.7284688949584961,1.1933414936065674
2479593931.0,-0.6123753786087036,0.4658367931842804,9.997329711914062,1.8119510412216189,1.2605534791946411,1.1662417650222778
2479602264.0,-0.6570972800254822,0.467942327260971,9.927191734313965,1.8768064975738523,1.4134191274642944,1.2877044677734375
2479610597.0,-0.6940296292304993,0.5493209958076477,9.842904090881348,2.0831546783447266,1.1973118782043457,1.0777446031570437
2479618930.0,-0.7549545764923096,0.5702921748161316,9.700493812561035,2.102057695388794,0.8592037558555603,1.0750550031661987
2479627263.0,-0.6745803952217102,0.4692156016826629,9.55384922027588,1.7341351509094238,0.4102120101451874,1.0681648254394531
2479635596.0,-0.6171853542327881,0.3103297352790832,9.602221488952637,1.420078992843628,0.0479242354631423,1.0601987838745115
2479643929.0,-0.6538394689559937,0.2329822927713394,9.816253662109377,1.4617531299591064,0.1698479801416397,0.966040849685669
2479652262.0,-0.7236976027488708,0.3020837008953094,9.998528480529783,1.922937273979187,0.4987860023975372,0.8849205374717712
2479660595.0,-0.7128839492797852,0.3267130255699157,9.92282485961914,2.0193495750427246,1.0484163761138916,0.9727774262428284
2479668928.0,-0.7254162430763245,0.2614820599555969,9.58396339416504,1.807007431983948,1.192726969718933,1.0242877006530762
2479677261.0,-0.7708895206451416,0.2082351893186569,9.47403335571289,1.580090880393982,1.1992073059082031,1.0839688777923584
2479685594.0,-0.7982558608055115,0.1959954351186752,9.62570095062256,1.6220725774765017,0.904489815235138,1.0152456760406494
2479693927.0,-0.7613325715065002,0.1400831639766693,9.768044471740724,1.777013063430786,0.482623428106308,1.0324585437774658
2479702260.0,-0.6471282839775085,0.0624230317771434,9.686081886291504,1.7432023286819458,0.035014659166336,1.1456990242004397
2479710593.0,-0.5925145149230957,0.0715961828827858,9.670231819152832,1.818098425865173,-0.2531582713127136,1.15535569190979
2479718926.0,-0.5810810923576355,0.1544675827026367,9.750773429870604,1.812616944313049,-0.1248053535819053,1.1597356796264648
2479727259.0,-0.6164236068725586,0.1667512655258178,9.870498657226562,1.8923028707504272,0.4878487884998321,1.3001785278320312
2479735592.0,-0.6061707735061646,0.0009950391249731,9.884539604187012,1.8094919919967647,0.8677846193313599,1.287730097770691
2479743925.0,-0.6074487566947937,-0.0782840698957443,9.862643241882324,1.90705668926239,0.9151967167854308,1.4073997735977173
2479752258.0,-0.6105388402938843,0.0408661291003227,9.911686897277832,2.1542086601257324,0.6816204190254211,1.2764086723327637
2479760591.0,-0.6549186706542969,0.1996180713176727,9.888391494750977,2.447030067443848,0.2894152104854584,1.376457691192627
2479768924.0,-0.5521235466003418,0.2571759521961212,9.783976554870604,2.409069776535034,-0.0405089147388935,1.238115310668945
2479777257.0,-0.4892919361591339,0.16109699010849,9.740545272827148,2.069963455200196,-0.1350510716438293,1.4700523614883425
2479785590.0,-0.4413186013698578,0.0743725597858429,9.944207191467283,1.923039793968201,-0.207360029220581,1.3123708963394165
2479793923.0,-0.4525279700756073,0.1674984991550445,10.19813346862793,2.267167329788208,0.0724882930517196,1.2677253484725952
2479802256.0,-0.4949880242347717,0.2397961467504501,10.192296028137209,2.665570974349976,0.6122314929962158,1.3210543394088743
2479810589.0,-0.5013977289199829,0.2513542473316192,9.965094566345217,2.619849681854248,0.8755201101303101,1.31785249710083
2479818922.0,-0.5315793752670288,0.2108835130929947,9.821496963500977,2.2881195545196533,0.9994417428970336,1.4163391590118408
2479827255.0,-0.6217535138130188,0.2610567212104797,9.9020414352417,2.1487784385681152,0.8017511963844299,1.3658792972564695
2479835588.0,-0.657281756401062,0.3063354790210724,10.01802921295166,2.30820107460022,0.6432246565818787,1.2285611629486084
2479843921.0,-0.5879929661750793,0.2292691618204116,9.936287879943848,2.5389597415924072,0.3679997026920318,1.207019567489624
2479852254.0,-0.5124130845069885,0.1479738056659698,9.785280227661133,2.242116451263428,0.0838354006409645,1.2028446197509766
2479860587.0,-0.4578154683113098,0.1312765926122665,9.808167457580566,2.216989040374756,-0.0537770837545394,1.0708287954330444
2479868920.0,-0.5365510582923889,0.239773541688919,9.969327926635742,2.3813555240631104,0.2784011363983154,1.2643955945968628
2479877253.0,-0.5968827605247498,0.24506376683712,10.11696434020996,2.488269567489624,0.7807731628417969,1.1992073059082031
2479885586.0,-0.6301512718200684,0.1833505779504776,10.12547206878662,2.3969802856445312,1.2516909837722778,1.1804832220077517
2479893919.0,-0.6911607384681702,0.1817197352647781,9.965643882751465,2.357175827026367,1.5192826986312866,1.0845578908920288
2479902252.0,-0.7822146415710449,0.3286374509334564,9.943920135498049,2.57279634475708,1.222746729850769,1.172773361206055
2479910585.0,-0.7733417749404907,0.4819685816764831,9.909603118896484,2.771024942398072,0.8178882002830505,1.143393874168396
2479918918.0,-0.6759699583053589,0.4876855015754699,9.66256618499756,2.4979002475738525,0.2838057279586792,1.2296113967895508
2479927251.0,-0.654416024684906,0.3192961812019348,9.695441246032717,2.1105360984802246,-0.09347914904356,1.12449049949646
2479935584.0,-0.6685424447059631,0.3717223703861236,10.007407188415527,1.969914078712464,0.0573502704501152,1.2359637022018433
2479943917.0,-0.7267884016036987,0.4996309578418731,10.290966987609863,2.3102245330810547,0.6302638053894043,1.185810923576355
2479952250.0,-0.758253812789917,0.4728526473045349,10.14499568939209,2.4589922428131104,1.2469521760940552,1.1966971158981323
2479960583.0,-0.7596559524536133,0.3580047488212585,9.833747863769531,2.287402391433716,1.244544506072998,1.2337864637374878
2479968916.0,-0.7777658104896545,0.32485231757164,9.702956199645996,1.9209650754928589,1.1251566410064695,1.359885334968567
2479977249.0,-0.7819109559059143,0.4427828788757324,9.79590129852295,2.0871503353118896,0.6212477087974548,1.3158289194107056
2479985582.0,-0.7797150015830994,0.4297943115234375,9.86881160736084,2.283688306808472,0.1277637928724289,1.160248041152954
2479993915.0,-0.6724719405174255,0.3412044942378998,9.787383079528809,2.119398593902588,-0.1101027876138687,1.1843509674072266
2480002248.0,-0.5835282206535339,0.3171792030334472,9.751598358154297,2.00935959815979,-0.2859445512294769,1.165089130401611
2480010581.0,-0.6149384379386902,0.4226047396659851,9.921883583068848,2.031926155090332,-0.0151252076029777,1.2341450452804563
2480018914.0,-0.6548401713371277,0.4150233864784241,10.022989273071287,2.288094043731689,0.5875392556190491,1.2721565961837769
2480027247.0,-0.6608985066413879,0.2998330593109131,9.911259651184082,2.2906808853149414,1.0057685375213623,1.2766902446746826
2480035580.0,-0.6166638135910034,0.2382295578718185,9.71601104736328,2.197342872619629,0.9909634590148926,1.3671598434448242
2480043913.0,-0.6248319745063782,0.3228937983512878,9.738435745239258,2.1625587940216064,0.5965299606323242,1.2308409214019775
2480052246.0,-0.6150484085083008,0.5110680460929871,9.795160293579102,2.4514105319976807,0.0978463813662529,1.2261534929275513
2480060579.0,-0.5331214070320129,0.5048351883888245,9.7272367477417,2.3830974102020264,-0.1443746387958526,1.1646794080734253
2480068912.0,-0.4660290479660034,0.3440491557121277,9.631672859191896,1.9932483434677124,-0.3482895493507385,1.1989253759384155
2480077245.0,-0.4138015508651733,0.2615088820457458,9.802373886108398,1.7334433794021606,-0.0603599436581134,1.2010258436203003
2480085578.0,-0.4584980309009552,0.3629849553108215,10.129151344299316,1.936538815498352,0.3470472693443298,1.3684407472610474
2480093911.0,-0.5673664808273315,0.4326114952564239,10.185992240905762,2.347852230072021,0.8152755498886108,1.2542779445648191
2480102244.0,-0.5238593220710754,0.4040229916572571,9.878173828125,2.382917881011963,1.2929296493530271,1.184914469718933
2480110577.0,-0.5394752621650696,0.3571728467941284,9.65171241760254,1.8521908521652224,1.1997451782226562,1.2983856201171875
2480118910.0,-0.5743117928504944,0.3559173345565796,9.731099128723145,1.6078054904937744,0.7027265429496765,1.2612192630767822
2480127243.0,-0.6010916233062744,0.3672272562980652,9.9707612991333,1.7254773378372192,0.3425135314464569,1.248873233795166
2480135576.0,-0.5364603400230408,0.2806992530822754,10.010778427124023,1.87603759765625,0.0566586889326572,1.2021783590316772
2480143909.0,-0.4537540972232818,0.1855042874813079,9.932610511779783,1.7883602380752563,0.0893168300390243,1.096340298652649
2480152242.0,-0.4676266312599182,0.2007079571485519,9.966666221618652,1.6830859184265137,0.2066556513309478,1.1859134435653689
2480160575.0,-0.5776439309120178,0.3139450550079345,10.115293502807615,1.7711474895477295,0.6828498840332031,1.1730806827545166
2480168908.0,-0.6622456312179565,0.2639537453651428,10.069708824157717,1.860592603683472,1.3493835926055908,1.1341984272003174
2480177241.0,-0.6822330355644226,0.0878104493021965,9.844392776489258,1.898450255393982,1.4654415845870972,1.2457739114761353
2480185574.0,-0.6914008259773254,-0.0178473386913537,9.801061630249023,1.7769875526428225,1.3165459632873535,1.13273823261261
2480193907.0,-0.7332066297531128,0.129748448729515,9.952316284179688,2.182178974151612,0.6586955785751343,1.1798171997070312
2480202240.0,-0.7511419653892517,0.2982915639877319,9.94583511352539,2.4614765644073486,0.1862667053937912,1.08176589012146
2480210573.0,-0.6518831849098206,0.2312443554401397,9.732500076293944,2.2894771099090576,0.0495635457336902,1.006946682929993
2480218906.0,-0.5998885631561279,0.0276825111359357,9.654797554016112,1.8422011137008667,0.0985123440623283,1.1485934257507324
2480227239.0,-0.665130615234375,0.0446286164224147,10.031843185424805,1.883107304573059,0.3538606464862823,1.1420619487762451
2480235572.0,-0.7538505792617798,0.2040816843509674,10.24840259552002,2.289144277572632,0.7478844523429871,1.3408284187316897
2480243905.0,-0.7145074009895325,0.2434581518173217,10.011873245239258,2.710293292999268,1.1418569087982178,1.205303430557251
2480252238.0,-0.7217888236045837,0.1675832271575927,9.63166618347168,2.363579511642456,1.104434609413147,1.206865906715393
2480260571.0,-0.7520620822906494,0.1757480949163437,9.58375358581543,2.049523115158081,0.8158646821975708,1.2508456707000732
2480268904.0,-0.787962794303894,0.2609105706214905,9.803252220153809,2.036844253540039,0.4585204124450683,1.2275878190994265
2480277237.0,-0.7194410562515259,0.3040832579135895,9.97181510925293,2.3705976009368896,0.039317850023508,1.2256923913955688
2480285570.0,-0.6183452606201172,0.2438513338565826,9.798834800720217,2.4184446334838867,-0.0283421501517295,1.2096834182739258
2480293903.0,-0.5893278121948242,0.233031615614891,9.766026496887209,2.141939163208008,-0.156310886144638,1.1712877750396729
2480302236.0,-0.6459728479385376,0.3538870513439178,9.94218921661377,2.1700124740600586,0.1450278162956237,1.2736934423446655
2480310569.0,-0.6653361320495605,0.4113567471504211,10.06028175354004,2.319266557693481,0.6537008881568909,1.255814552307129
2480318902.0,-0.6467614769935608,0.3056235313415527,9.907145500183104,2.253335475921631,1.028181076049805,1.2816083431243896
2480327235.0,-0.637990415096283,0.1748804897069931,9.806041717529297,2.1804630756378174,0.9343305230140686,1.2616549730300903
2480335568.0,-0.6337001323699951,0.3050526082515716,9.895628929138184,2.132333755493164,0.5966067910194397,1.2395241260528564
2480343901.0,-0.6359405517578125,0.5024592280387878,9.97934913635254,2.5210554599761963,0.0650345459580421,1.1875271797180176
2480352234.0,-0.5643659234046936,0.49228635430336,9.81195831298828,2.51247501373291,-0.106696106493473,1.2565577030181885
2480360567.0,-0.4908142685890198,0.3007766306400299,9.707392692565918,2.0291342735290527,-0.1810542345046997,1.1641926765441897
2480368900.0,-0.48613041639328,0.2454844713211059,9.916359901428224,1.832467794418335,0.0556597299873828,1.162143349647522
2480377233.0,-0.5673572421073914,0.3560447692871094,10.203259468078612,2.189300060272217,0.5837740302085876,1.155099630355835
2480385566.0,-0.5930029153823853,0.4574525654315948,10.182833671569824,2.595336675643921,1.0344566106796265,1.180073380470276
2480393899.0,-0.5816686153411865,0.3998925685882568,9.830220222473145,2.4929823875427246,1.1734650135040283,1.1607859134674072
2480402232.0,-0.6121463775634766,0.3258729875087738,9.578062057495115,2.0271873474121094,1.0201125144958496,1.1600686311721802
2480410565.0,-0.6377067565917969,0.3576862514019012,9.736322402954102,1.852036952972412,0.618942379951477,1.1291266679763794
2480418898.0,-0.6411100625991821,0.3920348882675171,10.001900672912598,2.1302080154418945,0.27655690908432,1.169366717338562
2480427231.0,-0.5808692574501038,0.3227832615375519,9.934903144836426,2.20138955116272,0.1361140459775924,1.138219714164734
2480435564.0,-0.516229510307312,0.2748781740665436,9.796745300292969,2.1599462032318115,0.0042775771580636,1.241957426071167
2480443897.0,-0.5289464592933655,0.3841406106948852,9.819454193115234,2.085895299911499,0.2546567320823669,1.0990298986434937
2480452230.0,-0.6350173950195312,0.4681750833988189,9.997076988220217,2.111458301544189,0.7603585720062256,1.161682367324829
2480460563.0,-0.6706153154373169,0.3429005146026611,9.933633804321287,2.115915060043335,1.2034592628479004,1.253816843032837
2480468896.0,-0.6865857839584351,0.1730944812297821,9.815056800842283,2.046987295150757,1.1726452112197876,1.2498464584350586
2480477229.0,-0.6669589877128601,0.1856160163879394,9.80694580078125,1.952240347862244,1.0578935146331787,1.3202346563339231
2480485562.0,-0.7061984539031982,0.4175439774990082,9.884307861328123,2.257331371307373,0.5309831500053406,1.26503586769104
2480493895.0,-0.7045954465866089,0.4698237180709839,9.85660171508789,2.468597412109375,0.1217700690031051,1.22886860370636
2480502228.0,-0.6254140734672546,0.311801552772522,9.66775894165039,2.0580272674560547,-0.0043672272004187,1.2508714199066162
2480510561.0,-0.5896218419075012,0.1563183516263961,9.730881690979004,1.620356559753418,0.2921303808689117,1.3272016048431396
2480518894.0,-0.6199900507926941,0.201345756649971,10.088047981262209,1.8121559619903564,0.36441370844841,1.2037665843963623
2480527227.0,-0.7063180208206177,0.3639174699783325,10.287944793701172,2.3847622871398926,0.839967668056488,1.2259997129440308
2480535560.0,-0.6778051853179932,0.3357516229152679,9.934574127197266,2.442394256591797,1.089091658592224,1.1189578771591189
2480543893.0,-0.6669934391975403,0.2610812485218048,9.57145881652832,2.1647870540618896,0.9446529746055604,1.2964900732040403
2480552226.0,-0.7060462832450867,0.2475516051054,9.65023136138916,1.7419472932815552,0.7399952411651611,1.2639601230621338
2480560559.0,-0.7528253793716431,0.352867990732193,9.98645305633545,1.867508172988892,0.2206922471523285,1.205841302871704
2480568892.0,-0.7050328850746155,0.3068261742591858,10.00549602508545,2.204514980316162,0.132067009806633,1.172773361206055
2480577225.0,-0.5495185852050781,0.235907107591629,9.822937965393066,2.239145278930664,-0.0488079227507114,1.1012071371078491
2480585558.0,-0.5349505543708801,0.2978734374046325,9.835949897766112,1.86374306678772,-0.0701702088117599,1.0818941593170166
2480593891.0,-0.5815420150756836,0.4132160246372223,10.016029357910156,1.9728598594665527,0.2913107275962829,1.2212355136871338
2480602224.0,-0.6112133860588074,0.4099842309951782,10.055617332458496,2.0349485874176025,0.680288553237915,1.122185230255127
2480610557.0,-0.6376987099647522,0.2288226187229156,9.915470123291016,2.005159378051758,0.9910147786140442,1.0735182762145996
2480618890.0,-0.6322341561317444,0.0935224294662475,9.861573219299316,1.855341553688049,1.0274381637573242,1.1116065979003906
2480627223.0,-0.6677863001823425,0.2050430327653885,9.987159729003906,1.960538983345032,0.6520872116088867,1.1062787771224976
2480635556.0,-0.7360096573829651,0.4491723179817199,9.97652530670166,2.303206443786621,0.2749175727367401,1.201871037483215
2480643889.0,-0.6288695931434631,0.4569235742092132,9.775166511535645,2.332304000854492,0.1624710708856582,1.0271052122116089
2480652222.0,-0.5749655961990356,0.2264731079339981,9.569546699523926,1.765947937965393,-0.0394843481481075,1.1819689273834229
2480660555.0,-0.5500301122665405,0.1068611741065979,9.850141525268556,1.5242774486541748,0.0046105617657303,1.1927268505096436
2480668888.0,-0.5762076377868652,0.2701195776462555,10.235013008117676,1.860746145248413,0.2302207350730896,1.1351715326309204
2480677221.0,-0.6154940128326416,0.3747294545173645,10.207490921020508,2.458531379699707,0.5708644390106201,1.1744383573532104
2480685554.0,-0.5580804347991943,0.2868379652500152,9.765713691711426,2.395622491836548,0.8524930477142334,1.0779495239257812
2480693887.0,-0.5964047908782959,0.164329707622528,9.571465492248535,1.8970413208007808,0.9468045830726624,1.1579939126968384
2480702220.0,-0.673370361328125,0.2255061864852905,9.845519065856934,1.7303695678710938,0.8105112910270691,1.165934443473816
2480710553.0,-0.7074249982833862,0.363890677690506,10.039923667907717,2.1348698139190674,0.5893324017524719,1.1661906242370603
2480718886.0,-0.6088579893112183,0.2924036085605621,9.832672119140623,2.270292043685913,0.1827319711446762,1.2439041137695312
2480727219.0,-0.5282385349273682,0.1661525964736938,9.615178108215332,2.0628933906555176,-0.0086448043584823,1.212552189826965
2480735552.0,-0.5376867651939392,0.2398151010274887,9.76225471496582,1.7855682373046875,-0.0650473460555076,1.3519192934036257
2480743885.0,-0.626624584197998,0.3683607280254364,10.053788185119627,1.990277409553528,0.2776070833206177,1.1733113527297974
2480752218.0,-0.6038706302642822,0.3246272206306457,10.019147872924805,2.257049798965454,0.7424798607826233,1.206123113632202
2480760551.0,-0.5880894064903259,0.1466140747070312,9.804965019226074,2.074676275253296,1.001670241355896,1.3421090841293335
2480768884.0,-0.6364575028419495,0.1027344018220901,9.807185173034668,1.983054041862488,0.8348960280418396,1.2152674198150637
2480777217.0,-0.6883567571640015,0.3365390598773956,9.99184799194336,2.1542086601257324,0.6633830666542053,1.2555586099624634
2480785550.0,-0.6795370578765869,0.4866535663604736,9.947352409362791,2.4950311183929443,0.1863947957754135,1.2066609859466553
2480793883.0,-0.5952929854393005,0.3291417360305786,9.62130641937256,2.2343811988830566,0.0146513432264328,1.2338889837265017
2480802216.0,-0.5663965344429016,0.1157881170511245,9.676077842712402,1.7312405109405518,-0.0504216216504573,1.1672918796539309
2480810549.0,-0.6032692193984985,0.1821824014186859,10.065427780151367,1.7141813039779663,0.1862154603004455,1.2547131776809692
2480818882.0,-0.6781245470046997,0.3738662302494049,10.292357444763184,2.4219539165496826,0.5469919443130493,1.1412934064865112
2480827215.0,-0.6408815383911133,0.4038856029510498,10.01849365234375,2.656452417373657,0.959995985031128,1.1088145971298218
2480835548.0,-0.6334717273712158,0.2675084769725799,9.613983154296877,2.305255651473999,1.0108146667480469,1.1576610803604126
2480843881.0,-0.679604172706604,0.2412279397249221,9.651495933532717,1.848041534423828,0.8282363414764404,1.2532533407211304
2480852214.0,-0.7144055962562561,0.3181890547275543,9.963356971740724,1.9020617008209229,0.5182527899742126,1.1750273704528809
2480860547.0,-0.6501986384391785,0.3380641639232635,10.056194305419922,2.2344067096710205,0.2691031694412231,1.155048370361328
2480868880.0,-0.5525995492935181,0.2236332893371582,9.767340660095217,2.319343328475952,-0.0343871116638183,1.1203155517578125
2480877213.0,-0.5381116271018982,0.1994224190711975,9.74305820465088,2.089378833770752,-0.0023437025956809,1.1516159772872925
2480885546.0,-0.5972386002540588,0.3452894389629364,10.029740333557127,2.051008701324463,0.0779185071587562,1.208659052848816
2480893879.0,-0.6466107964515686,0.443365067243576,10.075469970703123,2.1867387294769287,0.5971446633338928,1.2773563861846924
2480902212.0,-0.6175633668899536,0.2224200069904327,9.88719654083252,2.210354804992676,1.0259780883789062,1.1447770595550537
2480910545.0,-0.6069406867027283,0.0692157670855522,9.782605171203612,2.019195795059204,0.911226451396942,1.2189048528671265
2480918878.0,-0.6624013781547546,0.2294960469007492,9.965618133544922,2.0808494091033936,0.620556116104126,1.2117326259613037
2480927211.0,-0.6818626523017883,0.4723260402679443,10.049419403076172,2.428255319595337,0.3826510608196258,1.2488476037979126
2480935544.0,-0.6106271147727966,0.4566310942173004,9.767277717590332,2.5074288845062256,0.1159812659025192,1.1736186742782593
2480943877.0,-0.5351616144180298,0.1986893862485885,9.565389633178713,1.9449399709701536,-0.0509082898497581,1.181917667388916
2480952210.0,-0.566251277923584,0.1383171379566192,9.88783359527588,1.704473614692688,0.1370873749256134,1.2069939374923706
2480960543.0,-0.6523747444152832,0.3313685655593872,10.287484169006348,2.0912230014801025,0.5600039958953857,1.2089406251907349
2480968876.0,-0.6494003534317017,0.4434287846088409,10.153797149658203,2.5766382217407227,1.0512081384658811,1.1848888397216797
2480977209.0,-0.6439200639724731,0.3466648757457733,9.706097602844238,2.46370530128479,1.0977237224578855,1.240087628364563
2480985542.0,-0.6735133528709412,0.275290846824646,9.55577278137207,1.946092963218689,0.965861678123474,1.3020740747451782
2480993875.0,-0.726904034614563,0.3811105787754059,9.849627494812012,1.884106159210205,0.4808560013771057,1.1024622917175293
2481002208.0,-0.7227558493614197,0.4085886478424072,10.028257369995115,2.0761876106262207,0.3293222486972809,1.1312271356582642
2481010541.0,-0.5906971096992493,0.2875376939773559,9.874350547790527,2.2324090003967285,0.0240773819386959,1.1550997495651243
2481018874.0,-0.5370379686355591,0.2344732582569122,9.722793579101562,1.996168732643128,-0.1126898378133773,1.164320707321167
2481027207.0,-0.5836997032165527,0.3607935309410095,9.906527519226074,2.006337404251098,-0.0248073861002922,1.2237457036972046
2481035540.0,-0.6068742275238037,0.4772484898567199,10.085518836975098,2.18704605102539,0.4185878336429596,1.1933672428131104
2481043873.0,-0.6324446797370911,0.3292147219181061,9.916452407836914,2.138686418533325,0.9967011213302612,1.2332743406295776
2481052206.0,-0.651768684387207,0.1605887711048126,9.764318466186523,1.9030096530914309,1.0586107969284058,1.2219527959823608
2481060539.0,-0.6962303519248962,0.1895176321268081,9.909139633178713,1.925524473190308,1.0137600898742676,1.1439573764801023
2481068872.0,-0.7411964535713196,0.420633852481842,10.0032320022583,2.239529609680176,0.5758079886436462,1.185836672782898
2481077205.0,-0.66741544008255,0.5049545168876648,9.80709457397461,2.431046962738037,0.2171830832958221,1.216573715209961
2481085538.0,-0.5991130471229553,0.2777356207370758,9.566075325012209,1.9795194864273071,0.0113983349874615,1.1367086172103882
2481093871.0,-0.5402055978775024,0.1376796662807464,9.737802505493164,1.6084715127944946,-0.160921424627304,1.1717487573623655
2481102204.0,-0.575823962688446,0.2318290621042251,10.148675918579102,1.7316503524780271,0.1031997427344322,1.2121678590774536
2481110537.0,-0.6065757870674133,0.3715479969978332,10.338571548461914,2.375105381011963,0.6110531687736511,1.2039713859558103
2481118870.0,-0.5878279209136963,0.3544071018695831,9.914681434631348,2.5239498615264893,0.9800773859024048,1.1573024988174438
2481127203.0,-0.6169930100440979,0.2380754649639129,9.583453178405762,2.146165609359741,1.124925971031189,1.1587111949920654
2481135536.0,-0.6911584734916687,0.2769000828266144,9.736282348632812,1.756445050239563,0.8675029873847961,1.2465167045593262
2481143869.0,-0.7710528373718262,0.3905163705348968,10.055984497070312,1.967455267906189,0.5706083178520203,1.157814621925354
2481152202.0,-0.6583039164543152,0.3486812710762024,9.938279151916504,2.194678783416748,0.2543493509292602,1.2225929498672483
2481160535.0,-0.6085063815116882,0.2426420003175735,9.703949928283691,2.1486501693725586,0.0898803621530532,1.0981334447860718
2481168868.0,-0.5969394445419312,0.3258728981018066,9.814859390258787,1.9300328493118288,-0.1538262963294983,1.1741310358047483
2481177201.0,-0.6131011843681335,0.5993791818618774,10.075085639953612,2.1016228199005127,0.1106022745370864,1.1378867626190186
2481185534.0,-0.6105539202690125,0.537417471408844,9.950912475585938,2.167732715606689,0.7045707702636719,1.1087121963500977
2481193867.0,-0.6295256018638611,0.2553414106369018,9.80148696899414,1.8237849473953247,1.0446510314941406,1.072672963142395
2481202200.0,-0.6524295210838318,0.0502554066479206,9.83119773864746,1.6585216522216797,0.9344584941864014,1.133430004119873
2481210533.0,-0.6969828605651855,0.2625746130943298,10.005755424499512,2.0002925395965576,0.689663290977478,1.1437782049179075
2481218866.0,-0.6579347252845764,0.5119768977165222,10.011757850646973,2.424720048904419,0.3293734490871429,1.0509520769119265
2481227199.0,-0.5642685890197754,0.3424221873283386,9.593510627746582,2.2468552589416504,0.0848855823278427,1.032868504524231
2481235532.0,-0.5463474988937378,0.1581167727708816,9.574978828430176,1.5536059141159058,-0.0623066276311874,1.107201099395752
2481243865.0,-0.5894120931625366,0.1618522554636001,10.008835792541504,1.342390775680542,0.0554548166692256,1.1944429874420166
2481252198.0,-0.6169624924659729,0.3159985244274139,10.336167335510254,1.986896276473999,0.5575706958770752,1.1987463235855105
2481260531.0,-0.5720006823539734,0.2751431763172149,10.02396011352539,2.471107721328736,0.7461426854133606,1.2148319482803345
2481268864.0,-0.571460485458374,0.1363425701856613,9.62161636352539,2.083948373794556,0.7525718212127686,1.2428793907165527
2481277197.0,-0.6066720485687256,0.1837508231401443,9.663311958312988,1.7241452932357788,0.6237321496009827,1.275947332382202
2481285530.0,-0.6711108684539795,0.3242184221744537,9.988398551940918,1.7833397388458252,0.5247843861579895,1.2779453992843628
2481293863.0,-0.6463242769241333,0.3135057091712951,10.037508964538574,2.18261456489563,0.3828303515911102,1.1457502841949463
2481302196.0,-0.57000333070755,0.1739940047264099,9.774760246276855,2.131795883178711,0.1129075363278389,1.2967718839645386
2481310529.0,-0.534619152545929,0.1927015632390976,9.736412048339844,1.940841794013977,0.0524323396384716,1.1820969581604004
2481318862.0,-0.5588259696960449,0.3436490595340729,9.949838638305664,1.9913530349731443,0.2027622610330581,1.24249529838562
2481327195.0,-0.619227409362793,0.3539180755615234,10.047505378723145,2.164069890975952,0.5655367374420166,1.1945199966430664
2481335528.0,-0.6386622786521912,0.2221277505159378,9.910720825195312,2.161739110946656,0.9174763560295104,1.118624925613403
2481343861.0,-0.6427902579307556,0.1541993916034698,9.813077926635742,1.988074541091919,0.9411951899528505,1.219749927520752
2481352194.0,-0.6609246134757996,0.320825457572937,9.914134979248049,2.094475746154785,0.812842071056366,1.1460576057434082
2481360527.0,-0.6838221549987793,0.4802902638912201,9.95941162109375,2.293139934539795,0.4380546510219574,1.1353764533996582
2481368860.0,-0.6235080361366272,0.3799414932727813,9.71151065826416,2.1899402141571045,0.2346264123916626,1.2417781352996826
2481377193.0,-0.5526494383811951,0.2023920118808746,9.602792739868164,1.8637171983718872,0.0770732313394546,1.1782547235488892
2481385526.0,-0.5406500697135925,0.1765011996030807,9.861733436584473,1.744995355606079,-0.1477557122707367,1.256070852279663
2481393859.0,-0.620333194732666,0.3059488236904144,10.229886054992676,2.0027003288269043,0.2971763610839844,1.150156021118164
2481402192.0,-0.6769007444381714,0.3255030214786529,10.163381576538086,2.453587770462036,0.8831276893615723,1.1412934064865112
2481410525.0,-0.6654306650161743,0.2597186267375946,9.81403636932373,2.265220642089844,1.228663682937622,1.1641414165496826
2481418858.0,-0.6827080845832825,0.2274791896343231,9.599754333496094,1.940022230148316,0.9969573616981506,1.1224159002304075
2481427191.0,-0.6911337971687317,0.2911663353443146,9.803483963012695,1.86264169216156,0.6564416885375977,1.3118330240249634
2481435524.0,-0.7150872349739075,0.297105073928833,9.975055694580078,2.082975149154663,0.2825762331485748,1.2494879961013794
2481443857.0,-0.6115178465843201,0.1549138277769088,9.865127563476562,2.1425795555114746,-0.1193751543760299,1.1560473442077637
2481452190.0,-0.5298081636428833,0.1419737935066223,9.80689525604248,2.082693338394165,-0.2670667767524719,1.0826112031936646
2481460523.0,-0.5355821251869202,0.2710929214954376,9.953983306884766,2.130899429321289,-0.1478837877511978,1.1945455074310305
2481468856.0,-0.6267524361610413,0.4086652398109436,10.11082935333252,2.259687662124634,0.6505759358406067,1.1632705926895142
2481477189.0,-0.6225554347038269,0.2575435042381286,9.914751052856444,2.154567241668701,1.1306380033493042,1.2262558937072754
2481485522.0,-0.6575660109519958,0.0719349607825279,9.772866249084473,1.7642574310302734,1.036608099937439,1.2803020477294922
2481493855.0,-0.7123493552207947,0.1484055519104004,9.9163179397583,2.020015478134156,0.9445250034332277,1.1817383766174316
2481502188.0,-0.7616046667098999,0.3836846053600311,10.021872520446776,2.40625262260437,0.4507337510585785,1.2365272045135498
2481510521.0,-0.6840425133705139,0.4795632362365722,9.869990348815918,2.5380632877349854,0.129787340760231,1.1720818281173706
2481518854.0,-0.5942428112030029,0.3471611440181732,9.581270217895508,2.13878870010376,-0.1912743002176284,1.2281514406204224
2481527187.0,-0.5350908637046814,0.2723929286003113,9.731487274169922,1.660391330718994,-0.0181989129632711,1.2699024677276611
2481535520.0,-0.6114523410797119,0.4124382436275482,10.188653945922852,1.872041940689087,0.1412881165742874,1.2082490921020508
2481543853.0,-0.645227313041687,0.5272520780563354,10.25472640991211,2.447158098220825,0.6913025379180908,1.2042275667190552
2481552186.0,-0.6214281320571899,0.4687990248203277,9.86015510559082,2.371288776397705,1.0863510370254517,1.119290828704834
2481560519.0,-0.653022050857544,0.3303513824939728,9.563565254211426,2.029748916625977,1.0549991130828855,1.1610164642333984
2481568852.0,-0.7195852398872375,0.3385317325592041,9.751220703125,1.681548833847046,0.7221677303314209,1.202409029006958
2481577185.0,-0.7206524610519409,0.411878228187561,9.983424186706545,1.777576565742493,0.4933045506477356,1.0085091590881348
2481585518.0,-0.6308847069740295,0.2995394170284271,9.85440158843994,2.1745972633361816,0.1171339005231857,1.167932391166687
2481593851.0,-0.5316329002380371,0.1814213693141937,9.710415840148926,1.9955027103424072,-0.1914023756980896,1.1256945133209229
2481602184.0,-0.5221640467643738,0.2676255702972412,9.844521522521973,1.8847721815109253,-0.274725466966629,1.2889337539672852
2481610517.0,-0.5503085851669312,0.4181728363037109,10.070870399475098,1.94675886631012,0.2413373440504074,1.147850751876831
2481618850.0,-0.5603653192520142,0.294245570898056,9.99971866607666,1.986051082611084,0.7690417766571045,1.1591466665267944
2481627183.0,-0.5901743173599243,0.0980334505438804,9.830870628356934,1.8887426853179927,1.009303331375122,1.1517186164855957
2481635516.0,-0.6331440210342407,0.0721247792243957,9.8562650680542,1.9271124601364136,1.096391677856445,1.2599385976791382
2481643849.0,-0.6908367872238159,0.3139559030532837,10.007386207580566,2.1447057723999023,0.7136638760566711,1.2844514846801758
2481652182.0,-0.6515518426895142,0.4157714247703552,9.828018188476562,2.368061780929565,0.3064230978488922,1.2209535837173462
2481660515.0,-0.6015830039978027,0.2531606256961822,9.587042808532717,2.076161623001098,-0.0624346919357776,1.217111587524414
2481668848.0,-0.5485543012619019,0.1469321548938751,9.689620018005373,1.6648740768432615,-0.1767254173755645,1.1912668943405151
2481677181.0,-0.562313973903656,0.2640233933925628,10.08470058441162,1.7205337285995483,0.1205149665474891,1.1606833934783936
2481685514.0,-0.5747312307357788,0.3131605684757232,10.291607856750488,2.20456600189209,0.5440464019775391,1.2693902254104614
2481693847.0,-0.6180362105369568,0.2296650111675262,9.939505577087402,2.3206498622894287,0.8455003499984741,1.26923668384552
2481702180.0,-0.6093618869781494,0.192427709698677,9.658424377441406,2.081950426101685,0.992884635925293,1.2923150062561035
2481710513.0,-0.6764335632324219,0.3186790347099304,9.790105819702148,1.8574676513671875,0.8899922966957092,1.2912393808364868
2481718846.0,-0.7088555693626404,0.3750120997428894,9.965831756591797,1.9404319524765008,0.6934285759925842,1.2259997129440308
2481727179.0,-0.6441578269004822,0.2364659756422042,9.86888313293457,2.0248050689697266,0.1974857598543167,1.1899348497390747
2481735512.0,-0.5783205032348633,0.0836591199040412,9.692212104797363,2.01481556892395,-0.021016476675868,1.2202364206314087
2481743845.0,-0.53366619348526,0.2216628789901733,9.86898708343506,1.963126420974732,-0.1609982848167419,1.189986228942871
2481752178.0,-0.567562460899353,0.388019859790802,10.09003448486328,2.17915678024292,0.0974621623754501,1.1948273181915283
2481760511.0,-0.6348620653152466,0.3362866342067718,10.01688003540039,2.3056910037994385,0.6973732113838196,1.2232078313827517
2481768844.0,-0.6221951246261597,0.159210130572319,9.808231353759766,2.084742784500122,1.1460063457489014,1.118548035621643
2481777177.0,-0.6506802439689636,0.166660338640213,9.844667434692385,1.9102330207824707,1.1977474689483645,1.167778730392456
2481785510.0,-0.7166570425033569,0.3436448276042938,9.94736385345459,2.203105926513672,0.8517245054244995,1.1963385343551636
2481793843.0,-0.6999890208244324,0.4436575770378113,9.862234115600586,2.58030104637146,0.3904633820056915,1.141549587249756
