SampleTimeFine,Acc_X,Acc_Y,Acc_Z,Gyr_X,Gyr_Y,Gyr_Z
3827587444.0,0.0,0.0,0.0,0.0,0.0,0.0
3827595777.0,-0.6904423832893372,0.4202040433883667,10.151646614074709,2.886263370513916,0.8335129022598267,0.0742300599813461
3827604110.0,-0.6875450015068054,0.2473737895488739,9.965412139892578,2.334660530090332,0.6750887036323547,0.0970010980963707
3827612443.0,-0.7660382986068726,0.3898192346096039,9.69411563873291,2.3123762607574463,0.4000687301158905,0.1403147727251052
3827620776.0,-0.7978280782699585,0.539050281047821,9.75864028930664,2.8658101558685303,0.5507188439369202,0.042148221284151
3827629109.0,-0.6775258183479309,0.4523440599441528,10.041211128234863,3.063206195831299,0.2834983468055725,0.049537930637598
3827637442.0,-0.5595243573188782,0.3124245107173919,10.049603462219238,2.4938788414001465,0.119746558368206,0.0033554651308804
3827645775.0,-0.5950479507446289,0.3805092573165893,9.70429515838623,2.241424798965454,0.1204381138086319,0.1848323047161102
3827654108.0,-0.7286480665206909,0.4946447014808655,9.57251262664795,2.621002197265625,0.5118492841720581,0.2074496895074844
3827662441.0,-0.7191125750541687,0.4165128469467163,9.802730560302734,2.9201509952545166,0.841401994228363,0.0256398506462574
3827670774.0,-0.6820206642150879,0.2449277490377426,10.036429405212402,2.756603717803955,0.7300824522972107,0.0202096309512853
3827679107.0,-0.6537582278251648,0.2828785181045532,9.897130012512209,2.5634212493896484,0.6052900552749634,0.0407522469758987
3827687440.0,-0.7460012435913086,0.5445398688316345,9.781954765319824,2.761598825454712,0.4412564039230346,0.0603215247392654
3827695773.0,-0.7253118753433228,0.6268467307090759,9.920088768005373,3.003653287887573,0.4788837134838104,-0.0065444367937743
3827704106.0,-0.655465841293335,0.35801762342453,10.094982147216797,2.6749203205108643,0.408342182636261,0.0496660023927688
3827712439.0,-0.5540060997009277,0.2196501791477203,9.86623477935791,2.1877119541168213,0.2900556325912475,0.0339388623833656
3827720772.0,-0.624446451663971,0.3732078373432159,9.60538387298584,2.440293788909912,0.3696390688419342,0.2050675749778747
3827729105.0,-0.6985731720924377,0.5982257127761841,9.719342231750488,3.065741777420044,0.6499868035316467,0.0009989551035687
3827737438.0,-0.6722843050956726,0.5236350297927856,10.025738716125488,3.123732805252075,0.8897872567176819,0.0788406208157539
3827745771.0,-0.6490828394889832,0.2939700484275818,10.070117950439451,2.455559730529785,0.8252137303352356,0.0651626139879226
3827754104.0,-0.7227026224136353,0.3089099824428558,9.755149841308594,2.2302825450897217,0.7682734131813049,0.185267761349678
3827762437.0,-0.8015085458755493,0.5116780996322632,9.695886611938477,2.6415960788726807,0.8004961013793945,0.162906527519226
3827770770.0,-0.7460290193557739,0.544305145740509,9.937933921813965,3.1040353775024414,0.6584138870239258,0.0340925455093383
3827779103.0,-0.6435734033584595,0.3488891124725342,10.173295021057127,2.7977914810180664,0.2102928608655929,0.0302247945219278
3827787436.0,-0.5678743124008179,0.2991371750831604,9.834527969360352,2.2663216590881348,-0.0138701079413294,0.0206962991505861
3827795769.0,-0.6930122971534729,0.4614233076572418,9.60303020477295,2.3856842517852783,0.2529661953449249,0.172486275434494
3827804102.0,-0.722161591053009,0.4877075850963592,9.651351928710938,2.951092481613159,0.7016763091087341,0.2297340631484985
3827812435.0,-0.7064548134803772,0.3276474475860595,9.974065780639648,2.880423069000244,1.006767511367798,-0.0006531629478558
3827820768.0,-0.679086446762085,0.2361859679222107,9.967016220092772,2.5365262031555176,0.9261082410812378,0.0608850345015525
3827829101.0,-0.7618845701217651,0.3920678496360779,9.776845932006836,2.6430046558380127,0.8135337233543396,0.1588338613510131
3827837434.0,-0.7857218980789185,0.591837465763092,9.832275390625,2.9779109954833984,0.6920710802078247,0.1132405325770378
3827845767.0,-0.7033443450927734,0.4557981491088867,10.062210083007812,2.950017213821411,0.5821859836578369,0.0801981762051582
3827854100.0,-0.6143588423728943,0.2377954125404358,10.026887893676758,2.3846852779388428,0.1722301244735717,0.0556341148912906
3827862433.0,-0.622047483921051,0.294825404882431,9.668259620666504,2.2698564529418945,0.3063974976539612,0.0781746506690979
3827870766.0,-0.718706488609314,0.5253549218177795,9.607583045959473,2.862979888916016,0.6164834499359131,0.0889326259493827
3827879099.0,-0.7273705005645752,0.6016998887062073,9.941642761230469,3.210641860961914,0.7504202127456665,-0.0088241035118699
3827887432.0,-0.6551018357276917,0.3849187195301056,10.10649585723877,2.815772771835327,0.8763910531997681,0.0804799199104309
3827895765.0,-0.6785492897033691,0.2558090686798095,9.935872077941896,2.1907083988189697,0.8770313858985901,0.0938761681318283
3827904098.0,-0.7871941328048706,0.4063769876956939,9.674073219299316,2.470416307449341,0.7343089580535889,0.1838846057653427
3827912431.0,-0.7787238359451294,0.5518462657928467,9.8333740234375,3.035440921783448,0.604828953742981,0.1337831616401672
3827920764.0,-0.6395151615142822,0.4285301268100738,10.110827445983888,3.0275769233703613,0.2902348935604095,0.0408803150057792
3827929097.0,-0.5526785850524902,0.3094140291213989,10.015743255615234,2.428306579589844,0.0124485194683074,0.0742556676268577
3827937430.0,-0.6177321076393127,0.3928863406181335,9.695669174194336,2.2497365474700928,0.2346648126840591,0.1425047814846038
3827945763.0,-0.70591139793396,0.5085808038711548,9.588467597961426,2.7221271991729736,0.7144066095352173,0.1926958858966827
3827954096.0,-0.7227420210838318,0.416888028383255,9.912334442138672,2.932112693786621,0.8800026774406433,0.1528657525777816
3827962429.0,-0.6870747804641724,0.2393452674150467,10.042494773864746,2.5926733016967773,0.8910424709320068,0.0165980253368616
3827970762.0,-0.6896276473999023,0.3195520937442779,9.888964653015137,2.488269090652466,0.6873836517333984,0.1001772731542587
3827979095.0,-0.7592272162437439,0.5569620728492737,9.77718448638916,2.7783761024475098,0.3394398391246795,0.1832698434591293
3827987428.0,-0.7031843066215515,0.5935227274894714,10.01016616821289,3.006265878677368,0.2993023693561554,0.1548636704683303
3827995761.0,-0.5941919684410095,0.346844345331192,10.09512424468994,2.475231885910034,0.1048390641808509,0.0412389226257801
3828004094.0,-0.5807403922080994,0.2382696270942688,9.825984954833984,2.1235227584838867,0.0120386900380253,0.1151359900832176
3828012427.0,-0.6707069277763367,0.4302504956722259,9.577065467834473,2.382303237915039,0.2470236867666244,0.1548636555671692
3828020760.0,-0.7389674186706543,0.6261311769485474,9.784542083740234,3.042971134185791,0.5260907411575317,0.2087304145097732
3828029093.0,-0.6885890960693359,0.4656530618667602,10.0895414352417,2.911954164505005,0.6172774434089661,0.0951312631368637
3828037426.0,-0.6721733808517456,0.2607098817825317,10.072824478149414,2.257023811340332,0.5740149617195129,0.0552242882549762
3828045759.0,-0.7414329648017883,0.3433569967746734,9.70925998687744,2.056746006011963,0.4467378556728363,0.2009692788124084
3828054092.0,-0.8119198083877563,0.479038804769516,9.677104949951172,2.6816823482513428,0.4574446678161621,0.2476128190755844
3828062425.0,-0.7093842625617981,0.4719988405704498,9.987387657165527,2.99663519859314,0.191722571849823,0.183577224612236
3828070758.0,-0.5768049955368042,0.2850033342838287,10.171198844909668,2.5940306186676025,-0.1711671501398086,0.1305557638406753
3828079091.0,-0.5657422542572021,0.2850585579872131,9.822839736938477,1.9149969816207888,-0.3238279223442077,0.1372922956943512
3828087424.0,-0.7022120356559753,0.436551421880722,9.534072875976562,2.3267714977264404,0.0504088141024112,0.133757546544075
3828095757.0,-0.7222390174865723,0.467523992061615,9.675108909606934,2.8378522396087646,0.4859532415866852,0.0578369423747062
3828104090.0,-0.6929870843887329,0.2439445704221725,10.019671440124512,2.7735350131988525,0.5395381450653076,0.0270998589694499
3828112423.0,-0.6811783313751221,0.2116375714540481,9.99082851409912,2.332381010055542,0.4229934215545654,0.0937224850058555
3828120756.0,-0.752662181854248,0.4470648765563965,9.79594612121582,2.414346694946289,0.2235610634088516,0.1526864767074585
3828129089.0,-0.784701943397522,0.5920832753181458,9.819507598876951,2.823482751846313,0.252274602651596,0.1661083251237869
3828137422.0,-0.6539901494979858,0.448838859796524,10.069012641906738,2.7150065898895264,-0.0116928983479738,0.0807873010635376
3828145755.0,-0.5625663995742798,0.2376816570758819,10.050466537475586,2.297750473022461,-0.2458070069551468,0.0705416053533554
3828154088.0,-0.6193453669548035,0.3369781076908111,9.68696403503418,2.0681700706481934,-0.3174500167369842,0.148229569196701
3828162421.0,-0.7564254999160767,0.5351285934448242,9.556897163391112,2.718029260635376,0.0488975755870342,0.2146729081869125
3828170754.0,-0.6850182414054871,0.5435096025466919,9.961673736572266,3.039564371109009,0.4708409011363983,0.1547356098890304
3828179087.0,-0.609825611114502,0.316886842250824,10.200925827026367,2.5434935092926025,0.4421272873878479,0.1100643649697303
3828187420.0,-0.6717432141304016,0.2797485589981079,9.962759971618652,1.965815544128418,0.3035542964935303,0.1752269715070724
3828195753.0,-0.7821447253227234,0.4358012676239013,9.63661289215088,2.290808916091919,0.3659761846065521,0.1940534561872482
3828204086.0,-0.7201942801475525,0.532718300819397,9.813270568847656,2.928091287612915,0.1498432755470276,0.1578605324029922
3828212419.0,-0.5787293910980225,0.437207281589508,10.209489822387695,2.808191061019897,-0.1864588111639022,0.0764328762888908
3828220752.0,-0.5604655146598816,0.3577132225036621,10.135699272155762,2.172983407974243,-0.4307161569595337,0.2276593297719955
3828229085.0,-0.6257336139678955,0.4591749012470245,9.671710968017578,2.059025764465332,-0.2873533070087433,0.162189319729805
3828237418.0,-0.6966110467910767,0.4973028898239136,9.543755531311035,2.5916225910186768,0.3045276403427124,0.0159832816570997
3828245751.0,-0.5984969139099121,0.4272660911083221,9.838290214538574,2.8990702629089355,0.6280097961425781,0.1288139820098877
3828254084.0,-0.6201924681663513,0.3119507431983948,10.07157039642334,2.593876600265503,0.6784186363220215,0.1885720044374466
3828262417.0,-0.6756601333618164,0.4050540030002594,9.883257865905762,2.4624245166778564,0.7270601391792297,0.2038637101650238
3828270750.0,-0.7420118451118469,0.5949767231941223,9.789668083190918,2.7899281978607178,0.754953920841217,0.2020450979471206
3828279083.0,-0.6691733002662659,0.5732746720314026,10.007343292236328,2.879833936691284,0.3468935787677765,0.0415462851524353
3828287416.0,-0.5930474996566772,0.3540174961090088,10.11651611328125,2.342447519302368,0.0943884626030922,0.0560951754450798
3828295749.0,-0.6152074933052063,0.3164326846599579,9.802144050598145,2.0946292877197266,0.0195948891341686,0.1676963865756988
3828304082.0,-0.6733273863792419,0.500388503074646,9.528943061828612,2.4820964336395264,0.1234862357378006,0.1398537307977676
3828312415.0,-0.7080569863319397,0.5959339141845703,9.694575309753418,3.120351791381836,0.5041137337684631,0.18754743039608
3828320748.0,-0.636314868927002,0.4510056972503662,10.013792037963867,2.9084455966949463,0.9648370146751404,0.0334009639918804
3828329081.0,-0.6594200730323792,0.2788300514221191,10.03852653503418,2.2130444049835205,0.8939368724822998,0.0794809684157371
3828337414.0,-0.7260951399803162,0.3602005243301391,9.66382884979248,2.1795666217803955,1.0044108629226685,0.1789922714233398
3828345747.0,-0.7950525879859924,0.506206750869751,9.670904159545898,2.800199270248413,0.7488834261894226,0.104249931871891
3828354080.0,-0.6845411658287048,0.463749349117279,9.994063377380373,2.981573820114136,0.659873902797699,0.0116544775664806
3828362413.0,-0.5941898226737976,0.2956570386886596,10.1201810836792,2.49029278755188,0.1474867761135101,0.1028411537408828
3828370746.0,-0.6047884821891785,0.3053814172744751,9.80036163330078,2.193039655685425,-0.1677604466676712,0.1073492616415023
3828379079.0,-0.6902446150779724,0.4440531134605407,9.508428573608398,2.45640516281128,0.3492757081985473,0.1186707615852356
3828387412.0,-0.6941432952880859,0.4379460513591766,9.663454055786133,2.9184603691101074,0.901569962501526,0.0949775874614715
3828395745.0,-0.6561588048934937,0.2651801705360412,9.94488525390625,2.811264991760254,1.164474368095398,0.0756900683045387
3828404078.0,-0.6993665099143982,0.1873097717761993,9.948516845703123,2.515753030776977,0.964042901992798,0.0450042113661766
3828412411.0,-0.7504733204841614,0.4089613258838653,9.709539413452148,2.672743082046509,0.727341890335083,0.2446415871381759
3828420744.0,-0.7486460208892822,0.5453541874885559,9.875988006591797,3.1037023067474365,0.6790589690208435,0.0022796667180955
3828429077.0,-0.6458666920661926,0.3585704863071441,10.12537956237793,2.802837610244751,0.3620315790176391,0.0705159902572631
3828437410.0,-0.5779431462287903,0.1776708960533142,10.029962539672852,2.2886061668396,0.0209268312901258,0.1096033081412315
3828445743.0,-0.5938400030136108,0.2770712971687317,9.614080429077148,2.3754642009735107,0.1645202338695526,0.1382656395435333
3828454076.0,-0.6706361174583435,0.5178234577178955,9.541690826416016,3.02793550491333,0.720349133014679,0.0505112707614898
3828462409.0,-0.6511948108673096,0.4752097725868225,10.00697422027588,3.2886881828308105,0.9436283111572266,0.0816069394350051
3828470742.0,-0.622800350189209,0.2562985420227051,10.205578804016112,2.631376028060913,1.033687949180603,0.1065039858222007
3828479075.0,-0.6846075057983398,0.2108194380998611,9.873262405395508,2.2474441528320312,0.9694474935531616,0.0880617424845695
3828487408.0,-0.810187041759491,0.4058044254779815,9.658266067504885,2.674356460571289,0.7687087655067444,0.0315311215817928
3828495741.0,-0.7587298154830933,0.4804983139038086,9.886435508728027,3.2235000133514404,0.5808795690536499,0.0837073177099227
3828504074.0,-0.5841313600540161,0.3629397451877594,10.21740436553955,3.041844129562378,0.2543749809265136,-0.0626396089792251
3828512407.0,-0.5209035873413086,0.2780521810054779,10.065386772155762,2.320547103881836,-0.1122543737292289,0.1165191456675529
3828520740.0,-0.6335143446922302,0.376422107219696,9.560385704040527,2.304615020751953,0.0754339098930358,0.1391621381044387
3828529073.0,-0.7103646993637085,0.4529881477355957,9.47061252593994,2.8771958351135254,0.6604630947113037,0.1423895359039306
3828537406.0,-0.6729117035865784,0.376714289188385,9.895142555236816,3.251906394958496,1.1440342664718628,0.0117569342255592
3828545739.0,-0.6313477158546448,0.2490119189023971,10.150701522827148,2.839568853378296,1.244544506072998,0.0779697373509407
3828554072.0,-0.678655743598938,0.3904442191123962,9.897332191467283,2.507838487625122,0.9504162669181824,0.1626504063606262
3828562405.0,-0.7438539862632751,0.6159361004829407,9.781142234802246,2.994483232498169,0.7848201990127563,0.180196151137352
3828570738.0,-0.6834574937820435,0.5462968945503235,10.0028076171875,3.113512754440308,0.4187671542167663,0.0266131926327943
3828579071.0,-0.5638779401779175,0.2798552513122558,10.064630508422852,2.6136510372161865,0.1431067436933517,0.1327585875988006
3828587404.0,-0.5746778845787048,0.2474237531423568,9.745389938354492,2.216860771179199,0.1241522058844566,0.1471281796693802
3828595737.0,-0.6830722689628601,0.5265781879425049,9.462458610534668,2.8039135932922363,0.6748839020729065,0.0919294878840446
3828604070.0,-0.7197962999343872,0.6777535676956177,9.809144973754885,3.3868677616119385,1.131150245666504,0.1297104805707931
3828612403.0,-0.6573545336723328,0.4842249155044555,10.195672988891602,3.1032156944274902,1.2429307699203491,0.1246900931000709
3828620736.0,-0.6555144786834717,0.2810041308403015,10.085556030273438,2.3495938777923584,1.059251070022583,0.072411447763443
3828629069.0,-0.7490739226341248,0.3884240686893463,9.627717971801758,2.320086479187012,0.838405191898346,0.1789666563272476
3828637402.0,-0.7761343717575073,0.5587877035140991,9.6735200881958,3.021711587905884,0.6103360652923584,0.1389316171407699
3828645735.0,-0.6727404594421387,0.5348610877990723,10.096574783325195,3.307105302810669,0.4044743776321411,0.1612416058778762
3828654068.0,-0.5628843307495117,0.3833814561367035,10.20359706878662,2.694258689880371,0.1345771849155426,0.0050460039637982
3828662401.0,-0.578576922416687,0.4062120616436004,9.783442497253418,2.100315809249878,0.1746378540992736,0.0624731183052063
3828670734.0,-0.6676294803619385,0.5481539964675903,9.452260971069336,2.590419054031372,0.6846173405647278,0.0019466818775981
3828679067.0,-0.7083680033683777,0.5094712972640991,9.708345413208008,3.090690851211548,1.323769450187683,0.0380627587437629
3828687400.0,-0.6742852926254272,0.2965751886367798,10.094014167785645,2.876504182815552,1.309066653251648,0.0947214365005493
3828695733.0,-0.6719672083854675,0.3049658238887787,10.002019882202148,2.354921340942383,1.0278480052947998,0.0447736829519271
3828704066.0,-0.7653088569641113,0.5409452319145203,9.78264331817627,2.69845986366272,0.7890977263450623,0.0654443725943565
3828712399.0,-0.7699887156486511,0.6437075734138489,9.898492813110352,3.102780342102051,0.6809800267219543,0.0793016627430915
3828720732.0,-0.6381011009216309,0.4284566640853882,10.166531562805176,2.9204580783843994,0.3655151128768921,-0.0524195320904254
3828729065.0,-0.5552881956100464,0.26373490691185,9.999706268310549,2.0895581245422363,0.1974345296621322,-0.0430703349411487
3828737398.0,-0.6119873523712158,0.3594499230384826,9.612159729003906,2.2272603511810303,0.3426160216331482,0.1117549166083335
3828745731.0,-0.6766291260719299,0.530287504196167,9.62677001953125,2.8854176998138428,0.859741747379303,0.1009200811386108
3828754064.0,-0.6723204255104065,0.4898439943790436,10.005293846130373,3.0425612926483154,1.1209557056427002,-0.0433008633553981
3828762397.0,-0.6372332572937012,0.2654154300689697,10.174447059631348,2.591007709503174,1.1294597387313845,0.1030716747045517
3828770730.0,-0.696614146232605,0.2691181898117065,9.8887939453125,2.1853809356689453,1.0502605438232422,0.09377371519804
3828779063.0,-0.7904716730117798,0.4251807928085327,9.681828498840332,2.476102828979492,0.8207314014434814,0.0841171517968177
3828787396.0,-0.7319447994232178,0.4791648387908935,9.95633316040039,2.9219183921813965,0.5437389612197876,0.0032530082389712
3828795729.0,-0.5828867554664612,0.3139281868934631,10.224686622619627,2.6862926483154297,0.1393926739692688,0.0247433502227067
3828804062.0,-0.5626729130744934,0.2544460296630859,9.942010879516602,2.0785436630249023,-0.2984698712825775,0.0812483504414558
3828812395.0,-0.6538317203521729,0.3929561972618103,9.524645805358888,2.25553822517395,0.0352451875805854,0.0292770694941282
3828820728.0,-0.705793023109436,0.466203361749649,9.588112831115724,2.785292148590088,0.6090040802955627,0.0263058226555585
3828829061.0,-0.671770453453064,0.3092670440673828,9.94676113128662,2.827683687210083,0.9190644025802612,0.1531475186347961
3828837394.0,-0.6776518225669861,0.2004328221082687,10.014904975891112,2.3097891807556152,0.8530820608139038,0.2032489478588104
3828845727.0,-0.7421209216117859,0.3457866609096527,9.775752067565918,2.389424085617065,0.713715136051178,0.0969498828053474
3828854060.0,-0.796735942363739,0.5138769745826721,9.786097526550291,2.7952048778533936,0.5141544938087463,0.0935687944293022
3828862393.0,-0.6747692823410034,0.4321327805519104,9.989870071411133,2.8612382411956787,0.1833467036485672,-0.0176097862422466
3828870726.0,-0.5924203395843506,0.256291925907135,10.0275297164917,2.4739255905151367,-0.0262930132448673,0.2031465172767639
3828879059.0,-0.6306419968605042,0.2802517116069793,9.730484008789062,2.122498035430908,0.0657005086541175,0.1317852288484573
3828887392.0,-0.7149736285209656,0.5035520195960999,9.563505172729492,2.652200222015381,0.3064999282360077,-0.0021900169085711
3828895725.0,-0.6840712428092957,0.5841878056526184,9.906070709228516,2.997019052505493,0.7808755040168762,0.1382400244474411
3828904058.0,-0.6367862820625305,0.4035896956920624,10.214560508728027,2.760958433151245,0.6611802577972412,0.109731376171112
3828912391.0,-0.6538715362548828,0.3112317621707916,10.04934024810791,2.117042064666748,0.6358733773231506,0.1279943287372589
3828920724.0,-0.7655919790267944,0.4044109880924225,9.717443466186523,2.232254981994629,0.5076740980148315,0.1217188537120819
3828929057.0,-0.7063246965408325,0.5341164469718933,9.793007850646973,2.7906711101531982,0.4018873870372772,-0.0108732422813773
3828937390.0,-0.5844130516052246,0.4083127379417419,10.124183654785156,2.900812149047852,0.0720528438687324,0.126918539404869
3828945723.0,-0.5471909046173096,0.3292709589004516,10.095874786376951,2.3074071407318115,-0.0728340819478035,0.0953105613589286
3828954056.0,-0.6216540932655334,0.3884973526000976,9.68714714050293,2.04229998588562,0.1129331663250923,0.1557345539331436
3828962389.0,-0.7039037346839905,0.4326744973659515,9.529980659484863,2.631734848022461,0.6193779110908508,0.0808897614479065
3828970722.0,-0.6855745315551758,0.3041000962257385,9.806943893432615,2.962158203125,1.0178841352462769,0.0398301370441913
3828979055.0,-0.6269210577011108,0.2136760950088501,10.002037048339844,2.786111354827881,0.9491354823112488,0.0451578944921493
3828987388.0,-0.6608322858810425,0.3550918400287628,9.87147617340088,2.723407745361328,0.8248039484024048,0.0799420252442359
3828995721.0,-0.6828241348266602,0.5669649839401245,9.820972442626951,2.850761890411377,0.6214269995689392,0.1386754810810089
3829004054.0,-0.5917575359344482,0.4901493787765503,9.998589515686035,2.9505040645599365,0.3837781250476837,0.0424427911639213
3829012387.0,-0.546394407749176,0.3216095268726349,10.049800872802734,2.630377054214477,0.2860085666179657,0.0361416861414909
3829020720.0,-0.5891641974449158,0.252846360206604,9.697967529296877,2.2219579219818115,0.2456917315721511,0.1333989351987838
3829029053.0,-0.7004084587097168,0.4680210053920746,9.49672031402588,2.61662220954895,0.7102315425872803,0.240568920969963
3829037386.0,-0.7138215899467468,0.5876723527908325,9.772582054138184,3.2185311317443848,1.1287682056427002,0.1588338911533355
3829045719.0,-0.6836283206939697,0.4812833666801452,10.160284042358398,2.9348020553588867,1.0959819555282593,0.0966168940067291
3829054052.0,-0.6675155162811279,0.3358296155929565,10.096392631530762,2.2373523712158203,0.9446274638175964,0.1629833877086639
3829062385.0,-0.7423778176307678,0.3770520687103271,9.74835205078125,2.169627904891968,0.6279841661453247,0.2585757076740265
3829070718.0,-0.734944224357605,0.4421471953392029,9.710489273071287,2.697050809860229,0.439514696598053,0.0550193823873996
3829079051.0,-0.6102747321128845,0.4154212176799774,10.017863273620604,2.846945285797119,0.1871376037597656,0.0070439144037663
3829087384.0,-0.5140602588653564,0.3412096798419952,10.118246078491213,2.37951135635376,0.0035603786818683,0.1153921261429786
3829095717.0,-0.6021563410758972,0.3982607424259186,9.76237964630127,2.111637592315674,0.1554015576839447,0.0369101166725158
3829104050.0,-0.6954364776611328,0.4396255612373352,9.500484466552734,2.566725730895996,0.6995759606361389,0.1376765221357345
3829112383.0,-0.6867859363555908,0.3341666758060455,9.735880851745604,2.907292366027832,1.1277947425842283,0.1099362894892692
3829120716.0,-0.6630526185035706,0.1687666922807693,9.970206260681152,2.561269998550415,1.250051498413086,0.0733847841620445
3829129049.0,-0.7175877690315247,0.2284092456102371,9.93372917175293,2.595567464828491,0.9079990386962892,0.1112170219421386
3829137382.0,-0.768495500087738,0.4638934135437011,9.833477020263672,2.755425453186035,0.7285199761390686,0.0943116024136543
3829145715.0,-0.6824846863746643,0.5136755108833313,10.02711296081543,3.056137084960937,0.3500697612762451,0.0077867275103926
3829154048.0,-0.5693467259407043,0.3293043971061706,10.118709564208984,2.6099624633789062,0.0403936505317688,0.0598860792815685
3829162381.0,-0.5636991262435913,0.246964156627655,9.819327354431152,2.193244457244873,0.0071207573637366,0.0455164983868598
3829170714.0,-0.6313686966896057,0.4182450771331787,9.546075820922852,2.676431655883789,0.5403067469596863,0.1123440489172935
3829179047.0,-0.6646707653999329,0.5867599844932556,9.787383079528809,3.0247597694396973,0.9376603364944458,0.1108328029513359
3829187380.0,-0.6497058868408203,0.5068008899688721,10.1520414352417,2.9548327922821045,1.136913537979126,0.0190826058387756
3829195713.0,-0.6628957986831665,0.2975994348526001,10.191235542297363,2.3181395530700684,1.0126588344573977,0.1257659047842025
3829204046.0,-0.735003650188446,0.2827391922473907,9.778481483459473,2.175340175628662,0.8354339599609375,0.2135971188545227
3829212379.0,-0.7922129034996033,0.3963338136672973,9.599756240844728,2.65993595123291,0.7921202182769775,0.1464365869760513
3829220712.0,-0.6969889402389526,0.4037681519985199,9.946293830871582,3.1906888484954834,0.6672508716583252,0.0725907459855079
3829229045.0,-0.560623824596405,0.2857568860054016,10.154670715332031,2.6936700344085693,-0.0266772285103797,0.0439796447753906
3829237378.0,-0.5786115527153015,0.3204730153083801,9.78644847869873,2.2035157680511475,-0.0374352000653743,0.040163118392229
3829245711.0,-0.6886419057846069,0.4416697025299072,9.419879913330078,2.569645881652832,0.3963547050952911,0.0897010639309883
3829254044.0,-0.7112910151481628,0.437842309474945,9.64597988128662,3.0370030403137207,1.0815867185592651,0.0580162480473518
3829262377.0,-0.6687451004981995,0.3274555206298828,10.115452766418455,2.953474998474121,1.1267701387405396,0.0244103651493787
3829270710.0,-0.691523551940918,0.3471646606922149,10.094892501831056,2.571951150894165,1.0273613929748535,0.0942091569304466
3829279043.0,-0.7607153058052063,0.543792188167572,9.880696296691896,2.700918674468994,0.7027265429496765,0.1279430985450744
3829287376.0,-0.7332070469856262,0.5587967038154602,9.899033546447754,2.9224050045013428,0.5052919983863831,0.0631134733557701
3829295709.0,-0.6172553896903992,0.3133565485477447,9.980015754699709,2.7161335945129395,-0.0337467566132545,0.1145980879664421
3829304042.0,-0.5774359703063965,0.1329286992549896,9.704693794250488,2.320034980773926,-0.1337703317403793,0.0366539694368839
3829312375.0,-0.6449538469314575,0.2563000619411468,9.350000381469728,2.512846231460572,0.3219837248325348,0.1405324935913086
3829320708.0,-0.6906721591949463,0.4363982677459717,9.50776481628418,3.235769510269165,1.1137069463729858,0.0979232266545295
3829329041.0,-0.6250295042991638,0.4279311001300812,10.018210411071776,3.377236843109131,1.294389724731445,0.1290701329708099
3829337374.0,-0.6440979838371277,0.2853870689868927,10.189998626708984,2.745384931564331,1.1905497312545776,0.0835536420345306
3829345707.0,-0.7434448599815369,0.2901092767715454,9.85817813873291,2.3068692684173584,0.7529304623603821,0.0668019205331802
3829354040.0,-0.7688495516777039,0.4793037176132202,9.62942600250244,2.926682472229004,0.4199965894222259,0.1846786439418792
3829362373.0,-0.6607292890548706,0.550259530544281,9.990386962890623,3.26645565032959,0.1761491000652313,0.1457450091838836
3829370706.0,-0.5456078052520752,0.5421830415725708,10.274909019470217,2.848738670349121,-0.2122267633676529,0.0634720772504806
3829379039.0,-0.5292127728462219,0.5674682259559631,10.0735445022583,2.231947422027588,0.0262033585458993,0.1024825498461723
3829387372.0,-0.6276133060455322,0.6721398830413818,9.755949020385742,2.294881582260132,0.4333928525447845,0.1478709727525711
3829395705.0,-0.6662999391555786,0.6504855751991272,9.873459815979004,2.707911252975464,1.0812793970108032,0.1075541824102401
3829404038.0,-0.6872090101242065,0.4749899804592132,10.112082481384276,2.5281763076782227,1.4317845106124878,0.0787893906235694
3829412371.0,-0.6848733425140381,0.399506151676178,10.168081283569336,2.2690370082855225,1.128998637199402,-0.0035988001618534
3829420704.0,-0.7487527132034302,0.5290424227714539,10.056939125061035,2.1447055339813232,0.8363816142082214,0.1167240664362907
3829429037.0,-0.7551012635231018,0.6210842728614807,10.068312644958496,2.413270950317383,0.3859809339046478,0.1040194109082222
3829437370.0,-0.659462034702301,0.4615693688392639,10.19304084777832,2.235712766647339,0.1277894079685211,0.0172127652913332
3829445703.0,-0.6084667444229126,0.2163260132074356,10.007478713989258,1.9942986965179443,-0.0319793708622455,-0.0082605890929698
3829454036.0,-0.644546627998352,0.279397577047348,9.60609531402588,2.078211069107056,0.3141330182552337,0.1248950138688087
3829462369.0,-0.739795446395874,0.4922983944416046,9.561471939086914,2.7620086669921875,0.9307957887649536,0.0402655787765979
3829470702.0,-0.6723347306251526,0.5047417879104614,10.006558418273926,3.0809569358825684,1.1031794548034668,-0.0723474025726318
3829479035.0,-0.6690369248390198,0.3689951002597809,10.246223449707031,2.5521512031555176,1.0221104621887207,-0.0069286511279642
3829487368.0,-0.7817115783691406,0.3122669160366058,9.907790184020996,2.0624325275421143,0.8033392429351807,0.0537130497395992
3829495701.0,-0.8328630924224854,0.4419743120670318,9.673303604125977,2.428229808807373,0.7651484608650208,0.0803262442350387
3829504034.0,-0.7473258972167969,0.4826291799545288,9.913155555725098,2.8846492767333984,0.5243746042251587,0.1016116589307785
3829512367.0,-0.6168746948242188,0.3768371939659118,10.135754585266112,2.6682605743408203,0.060065384954214,0.0036116072442382
3829520700.0,-0.5726938843727112,0.3961088359355926,9.909479141235352,2.128081798553467,-0.121321827173233,0.1375740468502044
3829529033.0,-0.6400716304779053,0.5277600288391113,9.550243377685549,2.219575881958008,0.2674638330936432,0.0554035864770412
3829537366.0,-0.672955334186554,0.5050438046455383,9.649566650390623,2.5597586631774902,0.7903273105621338,0.1289676874876022
3829545699.0,-0.684475839138031,0.3348641395568847,9.891409873962402,2.3802027702331543,1.1309964656829834,0.1104998141527175
3829554032.0,-0.7053377032279968,0.2632592320442199,9.95207691192627,2.1275441646575928,1.1720561981201172,0.1552735120058059
3829562365.0,-0.7875272035598755,0.429972380399704,9.795347213745115,2.2545650005340576,0.789840579032898,0.1299922615289688
3829570698.0,-0.765620768070221,0.5303695201873779,9.891518592834473,2.6079392433166504,0.5892043113708496,0.0918782725930213
3829579031.0,-0.6643407940864563,0.384954571723938,10.067126274108888,2.4131171703338623,0.1308118999004364,0.0122692184522748
3829587364.0,-0.5841332077980042,0.2368489056825637,9.888351440429688,1.9722192287445068,-0.1606396734714508,0.0893424674868583
3829595697.0,-0.5896793007850647,0.3200130760669708,9.495447158813477,2.01835036277771,-0.0892015695571899,0.0605008229613304
3829604030.0,-0.608439564704895,0.4257575571537018,9.540770530700684,2.610961437225342,0.5760897994041443,0.1053001284599304
3829612363.0,-0.5682666301727295,0.4526943862438202,9.96249294281006,2.7276599407196045,0.9029786586761476,0.0477705486118793
3829620696.0,-0.5987109541893005,0.3185416162014007,10.1095609664917,2.219012498855591,0.9254936575889589,0.0564537756145
3829629029.0,-0.6864396929740906,0.262968361377716,9.850224494934082,1.894838809967041,0.7786983847618103,0.0638306811451911
3829637362.0,-0.750309407711029,0.3677193820476532,9.67754077911377,2.364142656326294,0.9056680202484132,0.1369593143463134
3829645695.0,-0.6905850172042847,0.4129855334758758,9.951366424560549,2.7890830039978027,0.5414849519729614,0.0942347794771194
3829654028.0,-0.5384030342102051,0.379881352186203,10.255165100097656,2.518237829208374,0.1180047690868377,-0.0854618847370147
3829662361.0,-0.4818906486034393,0.3568293750286102,10.061322212219238,1.946579575538636,-0.1079768165946006,0.0223868433386087
3829670694.0,-0.5480347871780396,0.436479240655899,9.651702880859377,2.0190162658691406,0.2559886872768402,0.0634464547038078
3829679027.0,-0.5902633666992188,0.4419786036014557,9.674757957458496,2.451282024383545,0.5977593660354614,0.1110120937228202
3829687360.0,-0.5960140228271484,0.2989602088928222,9.972447395324709,2.396390914916992,1.1661393642425537,0.0923649370670318
3829695693.0,-0.6421769857406616,0.2403452545404434,10.058156967163086,2.209458112716675,1.2694158554077148,0.1028155237436294
3829704026.0,-0.7097687125205994,0.4064012467861175,9.97546672821045,2.238300085067749,1.075439214706421,0.134013682603836
3829712359.0,-0.7531380653381348,0.5729743838310242,10.065799713134766,2.406585454940796,0.8133288025856018,0.0925698429346084
3829720692.0,-0.6902403831481934,0.4675997197628021,10.300413131713867,2.27859115600586,0.4152579605579376,-0.0142030930146574
3829729025.0,-0.6285775303840637,0.2713287770748138,10.167472839355469,1.6338038444519043,0.1888025254011154,0.0534056760370731
3829737358.0,-0.6636908650398254,0.2971291244029999,9.702353477478027,1.6158995628356934,0.2112918049097061,0.0176482070237398
3829745691.0,-0.7436164021492004,0.5083640217781067,9.652143478393556,2.2552566528320312,0.8733173608779907,0.0977695435285568
3829754024.0,-0.7401950359344482,0.6034315824508667,10.106109619140623,2.62023401260376,1.2086334228515625,0.0826059132814407
3829762357.0,-0.7399365305900574,0.4576244056224823,10.38626194000244,1.9489870071411133,1.1858621835708618,0.0172127652913332
3829770690.0,-0.8114471435546875,0.3745156228542328,10.125535011291504,1.2949020862579346,1.0464951992034912,0.0166236385703086
3829779023.0,-0.8587849736213684,0.4486481547355652,9.757515907287598,1.6742998361587524,0.8519294261932373,-0.0127943102270364
3829787356.0,-0.8394806385040283,0.5117387175559998,9.953145027160645,2.2274906635284424,0.686000406742096,-0.0410468094050884
3829795689.0,-0.7189483046531677,0.4051479995250702,10.239544868469238,2.1728298664093018,0.1695662289857864,-0.0673526301980018
3829804022.0,-0.6472035646438599,0.3498884737491607,10.077940940856934,1.624941349029541,-0.0149202914908528,-0.0527525097131729
3829812355.0,-0.7042903900146484,0.4404076933860779,9.570733070373535,1.6584705114364624,0.1571945697069168,-0.0013447472592815
3829820688.0,-0.7636739611625671,0.4576854109764099,9.57952117919922,2.1414270401000977,0.7752916812896729,-0.0116928992792963
3829829021.0,-0.7726203799247742,0.2648170292377472,9.901098251342772,2.395955801010132,1.1991047859191897,-0.0856411978602409
3829837354.0,-0.7577747106552124,0.1438465416431427,9.959600448608398,2.0822582244873047,1.1201106309890747,-0.0181220732629299
3829845687.0,-0.8118159770965576,0.2737465500831604,9.744900703430176,2.1657092571258545,0.7968844175338745,-0.0049819685518741
3829854020.0,-0.8134653568267822,0.4258321821689605,9.792113304138184,2.5893943309783936,0.4047561883926391,-0.0288288239389657
3829862353.0,-0.702449381351471,0.3513189852237701,10.01961898803711,2.690903425216675,-0.1417363733053207,0.0670324563980102
3829870686.0,-0.6532468199729919,0.2087809741497039,9.902573585510254,2.297186851501465,-0.4127862155437469,0.0824522227048873
3829879019.0,-0.6670622229576111,0.2092635482549667,9.540267944335938,2.1021857261657715,-0.1499329060316085,0.0972316339612007
3829887352.0,-0.7129749655723572,0.3862657248973846,9.421479225158691,2.6402387619018555,0.3740190863609314,0.0737177804112434
3829895685.0,-0.6857678890228271,0.3874683082103729,9.810306549072266,2.986953020095825,0.8127909302711487,0.1469232589006424
3829904018.0,-0.6625361442565918,0.2950340807437897,10.085908889770508,2.558067798614502,0.8407104015350342,0.1244851723313331
3829912351.0,-0.7437971234321594,0.2332929968833923,9.892359733581545,2.077698469161988,0.5682005882263184,0.203428253531456
3829920684.0,-0.7644922733306885,0.3079037070274353,9.60597801208496,2.3490302562713623,0.1432091742753982,0.1986640095710754
3829929017.0,-0.7209352850914001,0.3370522856712341,9.784915924072266,2.7799129486083984,-0.118222489953041,0.1763027608394622
3829937350.0,-0.5987709164619446,0.2867613434791565,10.026307106018066,2.660268783569336,-0.4817141592502594,0.2432584166526794
3829945683.0,-0.5366320610046387,0.2714054882526397,9.89809513092041,2.183178186416626,-0.5569687485694885,0.1499713510274887
3829954016.0,-0.5536535382270813,0.3451387286186218,9.535332679748535,2.170499086380005,-0.2634552121162414,0.2230743616819381
3829962349.0,-0.6110439896583557,0.3214102983474731,9.559240341186523,2.4934945106506348,0.2531454861164093,0.1020983457565307
3829970682.0,-0.5952073931694031,0.1659713238477707,9.79561996459961,2.4790737628936768,0.6318775415420532,0.1674402803182602
3829979015.0,-0.6444344520568848,0.0971746519207954,9.831156730651855,2.30297589302063,0.6756523251533508,0.0975390076637268
3829987348.0,-0.6786180138587952,0.1898225843906402,9.744536399841309,2.464857816696167,0.5480678081512451,0.050383199006319
3829995681.0,-0.6537724733352661,0.3983618915081024,9.872398376464844,2.8491222858428955,0.1958976536989212,0.0737946033477783
3830004014.0,-0.5594609975814819,0.3380312025547027,10.08035945892334,2.764493465423584,-0.2502126693725586,0.0206963028758764
3830012347.0,-0.5014796853065491,0.1049730703234672,9.969152450561523,2.303385734558105,-0.4521296620368957,-0.0115135991945862
3830020680.0,-0.4918217658996582,0.0692433789372444,9.494001388549805,2.202081680297852,-0.2258022874593734,0.0174945220351219
3830029013.0,-0.4853050708770752,0.267407476902008,9.420816421508787,2.838979482650757,0.2382636219263076,-0.0073640919290483
3830037346.0,-0.5059102177619934,0.3679424524307251,9.839282035827637,3.3513669967651367,0.7455024123191833,-0.0774958729743957
3830045679.0,-0.5082687139511108,0.3110219836235046,10.162894248962402,2.899377822875977,0.8928354382514954,-0.1351791322231292
3830054012.0,-0.5244240760803223,0.2007463574409485,9.99925136566162,2.3683180809021,0.780081570148468,0.004508105572313
3830062345.0,-0.5894894599914551,0.2904705107212066,9.710963249206545,2.5590925216674805,0.6583627462387085,0.0556341223418712
3830070678.0,-0.598804235458374,0.3445287048816681,9.796493530273438,3.157543659210205,0.3385433852672577,0.0351683460175991
3830079011.0,-0.48197141289711,0.2759272158145904,10.10398292541504,3.1085433959960938,0.021464729681611,-0.0686333402991294
3830087344.0,-0.4044386446475982,0.238564908504486,9.968057632446287,2.65809178352356,0.0776623636484146,-0.047706514596939
3830095677.0,-0.4560860693454742,0.3753060698509216,9.597899436950684,2.55665922164917,0.1455913037061691,0.0883691161870956
3830104010.0,-0.5306602716445923,0.450194388628006,9.5750150680542,2.9536798000335693,0.8183236122131348,0.1285578459501266
3830112343.0,-0.5641090273857117,0.3277702331542969,9.91146469116211,3.082826614379883,1.4259188175201416,0.08296450227499
3830120676.0,-0.6131681799888611,0.2283531725406646,9.995146751403809,2.8454086780548096,1.461138367652893,0.1683367639780044
3830129009.0,-0.6581707000732422,0.3231249153614044,9.8314847946167,2.70286512374878,1.2634989023208618,0.2876734435558319
3830137342.0,-0.7294215559959412,0.5542452335357666,9.803362846374512,3.04768443107605,0.8227292895317078,0.1646739244461059
3830145675.0,-0.6805512309074402,0.567503035068512,10.037967681884766,3.174013376235962,0.4556003510951996,0.1190037354826927
3830154008.0,-0.6286084055900574,0.3860030174255371,10.052398681640623,2.721333265304565,0.174791544675827,0.0716942474246025
3830162341.0,-0.6173274517059326,0.3202113807201385,9.707106590270996,2.3416531085968018,0.1154945641756057,0.1379838734865188
3830170674.0,-0.6900317072868347,0.4936546385288238,9.482232093811035,2.7660815715789795,0.6477072238922119,0.2202824354171753
3830179007.0,-0.7055512070655823,0.6086028814315796,9.773140907287598,3.31087064743042,1.3010495901107788,0.1297617256641388
3830187340.0,-0.7266663908958435,0.5203056931495667,10.175942420959473,2.9881820678710938,1.3063771724700928,0.1318108588457107
3830195673.0,-0.7642906904220581,0.3739798069000244,10.092360496520996,2.3695731163024902,1.0185500383377075,0.307908684015274
3830204006.0,-0.8488913178443909,0.4183711409568786,9.728204727172852,2.272623062133789,0.7374082803726196,0.1762003451585769
3830212339.0,-0.8454297184944153,0.4899802207946777,9.727731704711914,2.838953971862793,0.5936099290847778,0.106401540338993
3830220672.0,-0.7510437369346619,0.4723230898380279,10.07980728149414,3.056854009628296,0.2814491987228393,0.0288160108029842
3830229005.0,-0.6232214570045471,0.4076018631458282,10.154329299926758,2.543929100036621,-0.0954002141952514,0.0697475597262382
3830237338.0,-0.6310811638832092,0.4365483820438385,9.812592506408691,2.339245557785034,0.0509723275899887,0.0476937033236026
3830245671.0,-0.6869455575942993,0.4779351353645324,9.59099578857422,2.564702033996582,0.5238367915153503,-0.0268309134989976
3830254004.0,-0.6849090456962585,0.4040959477424621,9.739694595336914,2.8208703994750977,0.9551292657852172,-0.0459903627634048
3830262337.0,-0.6958614587783813,0.2718069851398468,10.026561737060549,2.6304283142089844,1.0192415714263916,-0.0078763775527477
3830270670.0,-0.704767644405365,0.310780256986618,10.037141799926758,2.4688408374786377,1.0297306776046753,0.0141774797812104
3830279003.0,-0.7626741528511047,0.4707874953746795,9.8943510055542,2.697537660598755,0.5400761961936951,0.0364746712148189
3830287336.0,-0.6857690811157227,0.4793358445167541,10.042309761047363,2.833677053451538,0.1777627915143966,0.015214854851365
3830295669.0,-0.5723326206207275,0.2914761304855346,10.108288764953612,2.5596818923950195,-0.0505240820348262,-0.0665585920214653
3830304002.0,-0.5091702342033386,0.1594520807266235,9.79175090789795,2.1883773803710938,-0.0823625698685646,0.0260496772825717
3830312335.0,-0.537605881690979,0.2864196896553039,9.494939804077148,2.3652188777923584,0.2887749075889587,0.2301439195871353
3830320668.0,-0.6021525263786316,0.447740763425827,9.72305679321289,3.037694215774536,0.8648390173912048,-0.012973609380424
3830329001.0,-0.575593888759613,0.3737402558326721,10.109671592712402,2.9903597831726074,1.17915141582489,0.1041474863886833
3830337334.0,-0.5896195769309998,0.2057547271251678,10.128613471984863,2.3412182331085205,1.1389626264572144,0.0023308955132961
3830345667.0,-0.6634288430213928,0.2454864531755447,9.75207233428955,2.2574594020843506,0.844527006149292,0.1757136583328247
3830354000.0,-0.7005432844161987,0.356867104768753,9.75007152557373,2.660473823547364,0.6699915528297424,0.1586289554834365
3830362333.0,-0.574546754360199,0.3196191191673279,10.038290977478027,3.0869505405426025,0.3815752863883972,0.0316591933369636
3830370666.0,-0.5080773234367371,0.2354982495307922,10.056702613830566,2.663957357406616,0.0853466391563415,0.1947194188833236
3830378999.0,-0.5092718601226807,0.2818818092346191,9.723087310791016,2.3712379932403564,0.0812739729881286,0.1678244918584823
3830387332.0,-0.60432368516922,0.4111058413982391,9.522639274597168,2.649229049682617,0.678623616695404,0.0829901248216629
3830395665.0,-0.6281041502952576,0.3770545125007629,9.761517524719238,3.036004066467285,1.2943898439407349,0.0265107322484254
3830403998.0,-0.6408339142799377,0.2192417085170745,10.037410736083984,2.80401611328125,1.3245633840560913,-0.0418920814990997
3830412331.0,-0.6740500926971436,0.2003962993621826,9.944924354553224,2.565265893936157,1.1849658489227295,0.1094496324658393
3830420664.0,-0.744523286819458,0.4421796202659607,9.814207077026367,2.7773256301879883,0.7866387367248535,0.0939530059695243
3830428997.0,-0.7157583236694336,0.5237193703651428,9.958579063415527,3.082083940505981,0.3674874305725097,0.0398557446897029
3830437330.0,-0.6491343379020691,0.340355783700943,10.094233512878418,2.817950487136841,0.0695426538586616,0.0497428476810455
3830445663.0,-0.588992178440094,0.1790760159492492,9.826013565063477,2.2845335006713867,0.0082477834075689,0.0535593628883361
3830453996.0,-0.6361772418022156,0.3081549406051636,9.488143920898438,2.4898574352264404,0.4394378662109375,-0.0405089147388935
3830462329.0,-0.7225586771965027,0.5102405548095703,9.648236274719238,3.091202735900879,0.9783613085746764,-0.0183269847184419
3830470662.0,-0.6838682889938354,0.4466221630573272,10.15394115447998,3.1222732067108154,1.245902180671692,0.070183016359806
3830478995.0,-0.6615302562713623,0.2321950942277908,10.195283889770508,2.470800399780273,0.9710612297058104,0.1526352316141128
3830487328.0,-0.7387140393257141,0.2817678153514862,9.768774032592772,2.242372512817383,0.7695284485816956,0.0154197691008448
3830495661.0,-0.7971174120903015,0.3932251632213592,9.67389678955078,2.7181825637817383,0.5699936151504517,0.0945677608251571
3830503994.0,-0.6838030219078064,0.3932651877403259,9.969639778137209,3.114075899124145,0.2024036645889282,-0.0074409344233572
3830512327.0,-0.5617128014564514,0.2867140173912048,10.14578628540039,2.6399314403533936,0.1089629605412483,0.0273047778755426
3830520660.0,-0.5574694275856018,0.3113495111465454,9.832972526550291,2.36683201789856,0.0017929964233189,0.1258939504623413
3830528993.0,-0.637586772441864,0.451539397239685,9.578673362731934,2.6813747882843018,0.6146647930145264,0.2238940298557281
3830537326.0,-0.659517765045166,0.4001746773719787,9.763758659362791,3.0431504249572754,1.0445996522903442,0.0619608275592327
3830545659.0,-0.6792480945587158,0.2352275103330612,9.991480827331545,2.764288187026977,1.208735704421997,0.0220282431691885
3830553992.0,-0.6708623766899109,0.2193392813205719,9.961091995239258,2.6472058296203613,1.0685746669769287,0.0903157964348793
3830562325.0,-0.7255024313926697,0.4443545937538147,9.857224464416504,2.8168745040893555,0.7629712820053101,0.1988945305347442
3830570658.0,-0.7072392106056213,0.5988149046897888,9.993584632873535,3.154649019241333,0.3775025904178619,0.2051956355571746
3830578991.0,-0.6209636926651001,0.4193964004516601,10.159642219543455,2.805937051773072,0.0496403872966766,0.0381908267736434
3830587324.0,-0.5482833385467529,0.2326304167509079,9.877522468566896,2.3408594131469727,-0.0409955829381942,0.1102180480957031
3830595657.0,-0.5884532332420349,0.3702243864536285,9.494284629821776,2.5021779537200928,0.2672589421272278,0.1346540451049804
3830603990.0,-0.6568912267684937,0.5594532489776611,9.641273498535156,3.192225217819214,0.9895036220550536,0.076817087829113
3830612323.0,-0.5994124412536621,0.5512628555297852,10.104145050048828,3.156672477722168,1.2536630630493164,0.1702065765857696
3830620656.0,-0.6352734565734863,0.3577682077884674,10.204575538635254,2.548590660095215,1.0815098285675049,0.1002541109919548
3830628989.0,-0.7139166593551636,0.3640599846839905,9.841700553894045,2.0719096660614014,0.6124875545501709,0.1682855039834976
3830637322.0,-0.7660672664642334,0.4687713086605072,9.694682121276855,2.658475875854492,0.6523946523666382,0.1485113352537155
3830645655.0,-0.6834146976470947,0.4731893241405487,9.93983268737793,3.1207613945007324,0.4045512080192566,0.0090418253093957
3830653988.0,-0.5461940765380859,0.3539104163646698,10.161319732666016,2.635423183441162,-0.1386370658874511,-0.0025998449418693
3830662321.0,-0.4893867373466491,0.3649952113628387,9.873594284057615,2.314195156097412,0.1097570061683654,0.0195180494338274
3830670654.0,-0.5713863372802734,0.4756415486335754,9.55579948425293,2.4018213748931885,0.3498392105102539,0.1971271783113479
3830678987.0,-0.5961736440658569,0.4457253813743591,9.727693557739258,2.734191417694092,0.963146448135376,0.0271510872989892
3830687320.0,-0.6419222354888916,0.2595595717430115,9.929189682006836,2.7170042991638184,1.1992071866989136,0.0145744998008012
3830695653.0,-0.657505214214325,0.1778673678636551,9.92862606048584,2.496081590652466,1.082380771636963,-0.0283933766186237
3830703986.0,-0.7419090270996094,0.3950452804565429,9.836973190307615,2.6811444759368896,0.9012113213539124,0.0685693100094795
3830712319.0,-0.7421535849571228,0.537367582321167,9.960552215576172,2.978116035461426,0.6083124876022339,0.0950544327497482
3830720652.0,-0.6289634704589844,0.3650766015052795,10.135863304138184,2.65691351890564,0.0597323924303054,-0.0173024162650108
3830728985.0,-0.5532752871513367,0.1290552467107772,9.90925121307373,2.112738847732544,-0.0844373181462287,-0.0703238919377327
3830737318.0,-0.5911029577255249,0.2183968275785446,9.49150276184082,2.405125617980957,0.1066320687532424,0.0541997253894805
3830745651.0,-0.6412591338157654,0.4337068498134613,9.57108211517334,3.050065994262696,0.7865874767303467,0.0036884502042084
3830753984.0,-0.6352186799049377,0.4174913763999939,10.038169860839844,3.224448204040528,1.1279228925704956,0.1348589658737182
3830762317.0,-0.6446614861488342,0.2352024018764495,10.22414493560791,2.513832092285156,1.141933798789978,0.0583492256700992
3830770650.0,-0.7203395962715149,0.2274021208286285,9.85389232635498,2.182127952575684,0.9901183247566224,0.1336294710636139
3830778983.0,-0.7888813614845276,0.3721249103546142,9.676464080810549,2.7351136207580566,0.7781348824501038,0.0500758290290832
3830787316.0,-0.7198333740234375,0.4147302508354187,9.93426513671875,3.1346445083618164,0.4539867341518402,0.1027899160981178
3830795649.0,-0.6129869222640991,0.2424163520336151,10.202791213989258,2.8947668075561523,0.0935175716876983,0.0889326110482215
3830803982.0,-0.5530897974967957,0.239299938082695,9.890636444091797,2.389424085617065,0.0377553850412368,0.1073492616415023
3830812315.0,-0.6464252471923828,0.4059165120124817,9.56728172302246,2.517982006072998,0.2375207990407943,0.0444919243454933
3830820648.0,-0.696176290512085,0.4317210912704468,9.660208702087402,2.963003635406494,0.9449347853660583,0.0888045504689216
3830828981.0,-0.6695107817649841,0.2672494947910309,9.999073028564451,2.8653111457824707,1.3831943273544312,0.1644177883863449
3830837314.0,-0.6923370957374573,0.1977629363536834,10.009719848632812,2.53773045539856,1.1781779527664185,0.1432604193687439
3830845647.0,-0.7209079265594482,0.3780602216720581,9.821673393249512,2.757782459259033,0.8759556412696838,0.1749452203512191
3830853980.0,-0.7304564118385315,0.5384544730186462,9.916624069213867,3.0013222694396973,0.5106453895568848,0.0680057927966117
3830862313.0,-0.6497136950492859,0.415486216545105,10.120701789855955,2.835444688796997,0.1077590808272361,-0.0580802820622921
3830870646.0,-0.5600802898406982,0.1742833703756332,9.955987930297852,2.4191107749938965,-0.0841299518942833,0.0189033038914203
3830878979.0,-0.5776249170303345,0.2844633758068084,9.534313201904297,2.4430091381073,0.1817842274904251,-0.0162522327154874
3830887312.0,-0.6382338404655457,0.5148079991340637,9.568069458007812,3.0157690048217773,0.8789780735969543,0.0976414605975151
3830895645.0,-0.6263558268547058,0.5274315476417542,10.02054500579834,3.136463165283203,1.20463764667511,0.1612160056829452
3830903978.0,-0.5968522429466248,0.3158679008483886,10.200992584228516,2.5426225662231445,1.059814691543579,-0.0151508189737796
3830912311.0,-0.6649397611618042,0.2254968434572219,9.894048690795898,2.160893678665161,0.7907114624977112,0.0193899758160114
3830920644.0,-0.7511591911315918,0.3866634964942932,9.644428253173828,2.533914089202881,0.5821604132652283,0.0319153405725955
3830928977.0,-0.6907690763473511,0.4762152135372162,9.899600982666016,3.1331844329833984,0.4813171327114105,-0.0655340179800987
3830937310.0,-0.5385329723358154,0.378341406583786,10.225971221923828,2.9319841861724854,0.1431579440832138,0.0220282394438982
3830945643.0,-0.4832316637039184,0.3334273099899292,10.015902519226074,2.333584785461426,0.0519968979060649,0.137138620018959
3830953976.0,-0.5694380402565002,0.4271840751171112,9.560550689697266,2.394188165664673,0.2599844932556152,0.1102948933839798
3830962309.0,-0.6361204385757446,0.4320751130580902,9.61032009124756,2.833165168762207,0.919602394104004,0.0904438644647598
3830970642.0,-0.6519177556037903,0.2880724668502807,9.974157333374023,2.9613640308380127,1.2390886545181274,0.0848343521356582
3830978975.0,-0.6495139002799988,0.1809282153844833,10.049674987792969,2.584912061691284,1.1781266927719116,0.0389592535793781
3830987308.0,-0.6930568218231201,0.3840408325195312,9.89951992034912,2.648639917373657,0.933869481086731,0.1599352806806564
3830995641.0,-0.7468167543411255,0.575480580329895,9.953164100646973,2.9127743244171143,0.6046240329742432,0.1732290685176849
3831003974.0,-0.6549690365791321,0.4594121873378753,10.128975868225098,2.8612635135650635,0.2102160453796386,0.0511772446334362
3831012307.0,-0.5674384832382202,0.2016551792621612,9.963051795959473,2.385786533355713,0.0452859625220298,0.0287135560065507
3831020640.0,-0.5475051403045654,0.235708013176918,9.514275550842283,2.2503130435943604,0.1681830585002899,0.0967193394899368
3831028973.0,-0.6491668820381165,0.4834142327308655,9.481799125671388,2.893461227416992,0.7959111928939819,0.0778928995132446
3831037306.0,-0.6488704085350037,0.5113919973373413,9.964032173156738,3.262101411819458,1.1439063549041748,0.1903906464576721
3831045639.0,-0.6615022420883179,0.3476982414722442,10.274151802062988,2.786623954772949,1.1823786497116089,-0.0258063413202762
3831053972.0,-0.7064276933670044,0.2423966974020004,9.962822914123535,2.187148332595825,0.9326910376548768,0.0925442278385162
3831062305.0,-0.8030314445495605,0.3617382943630218,9.688602447509766,2.419239044189453,0.7877914309501648,0.0322739370167255
3831070638.0,-0.7712175846099854,0.4724519848823547,9.836003303527832,3.075808525085449,0.5653830766677856,0.0715149492025375
3831078971.0,-0.6226450204849243,0.3352400064468384,10.16973114013672,3.002500534057617,0.0672117471694946,0.0202352441847324
3831087304.0,-0.5430707335472107,0.280208557844162,9.982953071594238,2.386401414871216,0.0022540525533258,0.1663132309913635
3831095637.0,-0.5834985375404358,0.3914278149604797,9.565065383911133,2.400335788726806,0.233857974410057,0.0704647600650787
3831103970.0,-0.6723816394805908,0.489959716796875,9.605560302734377,2.784523725509644,0.7386120557785034,-0.010002358816564
3831112303.0,-0.6531538367271423,0.3110983669757843,9.93905258178711,2.9819839000701904,1.3150604963302612,0.0353988744318485
3831120636.0,-0.6754065155982971,0.1719606816768646,10.10856819152832,2.652904510498047,1.2210177183151243,-0.0394459217786788
3831128969.0,-0.7099652290344238,0.3056572079658508,9.890681266784668,2.573782444000244,0.8819364905357361,0.0535977855324745
3831137302.0,-0.7483696341514587,0.5348778367042542,9.886487007141112,2.9833667278289795,0.5762434601783752,0.0341181606054306
3831145635.0,-0.667816162109375,0.4675695300102234,10.056989669799805,2.9884896278381348,0.1166984513401985,0.0487695038318634
3831153968.0,-0.5744220614433289,0.2031067758798599,10.053954124450684,2.470313787460327,-0.0531367361545562,0.094670221209526
3831162301.0,-0.5421599745750427,0.1675407141447067,9.603452682495115,2.326822757720948,0.1151615902781486,0.1205918043851852
3831170634.0,-0.6422421932220459,0.4063853919506073,9.458540916442873,2.8500449657440186,0.790993332862854,0.096540056169033
3831178967.0,-0.6451418995857239,0.5271381139755249,9.901848793029783,3.284794807434082,1.189729928970337,0.2522745728492737
3831187300.0,-0.6234279870986938,0.354037880897522,10.219635009765623,2.885520696640014,1.095367193222046,0.1037888824939727
3831195633.0,-0.6562456488609314,0.196983978152275,9.9918851852417,2.275312662124634,0.9529007077217102,0.1357298344373703
3831203966.0,-0.7519956827163696,0.3146719932556152,9.654565811157228,2.504534244537353,0.6665592193603516,0.129428744316101
3831212299.0,-0.7226148247718811,0.425760805606842,9.762173652648926,3.0361831188201904,0.4528852105140686,-0.013716422021389
3831220632.0,-0.6277947425842285,0.3691205680370331,10.134089469909668,3.0420491695404053,0.1737925857305526,0.0384469702839851
3831228965.0,-0.5056518316268921,0.2633595764636993,10.081093788146973,2.419238805770874,0.026587575674057,0.0744605734944343
3831237298.0,-0.5589081048965454,0.3440903127193451,9.647815704345703,2.325439453125,0.180605947971344,0.114495612680912
3831245631.0,-0.6496898531913757,0.4668133556842804,9.53537940979004,2.740133762359619,0.8087182641029358,0.1299922466278076
3831253964.0,-0.6548951268196106,0.3609591126441955,9.868157386779783,2.9715330600738525,1.2114509344100952,0.1268160790205001
3831262297.0,-0.6688221096992493,0.2013148367404937,10.05174160003662,2.6655197143554688,1.1872711181640625,0.1953853815793991
3831270630.0,-0.700419545173645,0.2693349719047546,9.913457870483398,2.603379964828491,0.97989821434021,0.0370637997984886
3831278963.0,-0.7414129972457886,0.5224739909172058,9.840920448303224,2.903809070587158,0.6118728518486023,0.1743817180395126
3831287296.0,-0.6973459720611572,0.547785222530365,10.0519437789917,3.023939609527588,0.2157487273216247,-0.0134858964011073
3831295629.0,-0.5619605779647827,0.2577647566795349,10.101892471313477,2.5662903785705566,0.1491260826587677,0.1605243980884552
3831303962.0,-0.5464309453964233,0.1981578022241592,9.710205078125,2.238914728164673,0.1609854847192764,0.0941067039966583
3831312295.0,-0.6047835350036621,0.3909182548522949,9.435917854309082,2.658834457397461,0.6171749830245972,0.0845013707876205
3831320628.0,-0.6513805389404297,0.5469567775726318,9.764785766601562,3.213741064071656,1.065603494644165,0.1550685763359069
3831328961.0,-0.6649511456489563,0.4239480197429657,10.186323165893556,3.003525495529175,1.2037410736083984,0.0011014122283086
3831337294.0,-0.6911011338233948,0.2374789416790008,10.13033962249756,2.291372776031494,1.09319007396698,0.0981793701648712
3831345627.0,-0.7498055696487427,0.3101047873497009,9.70684051513672,2.3377599716186523,0.6078258156776428,0.154940515756607
3831353960.0,-0.7556270360946655,0.457294225692749,9.744845390319824,2.928757429122925,0.6312372088432312,0.0686461478471756
3831362293.0,-0.6466511487960815,0.418171226978302,10.106736183166504,3.0506298542022705,0.3749924004077911,0.0383957363665103
3831370626.0,-0.5307064056396484,0.2768342196941376,10.16321849822998,2.5441081523895264,-0.1123824641108512,-0.0944524854421615
3831378959.0,-0.5527947545051575,0.3500315248966217,9.707056045532228,2.239042520523072,0.0652906820178031,0.2319625169038772
3831387292.0,-0.6272779703140259,0.4664244949817657,9.475805282592772,2.668798446655273,0.5873856544494629,0.0951312705874443
3831395625.0,-0.6529505252838135,0.3950594663619995,9.801528930664062,2.978064775466919,1.1831728219985962,0.1525327712297439
3831403958.0,-0.6588938236236572,0.1994808763265609,10.062252044677734,2.771742105484009,1.3641372919082642,0.1100131347775459
3831412291.0,-0.6751343607902527,0.2331273555755615,9.945222854614258,2.457378387451172,1.1692897081375122,0.0485902018845081
3831420624.0,-0.7433743476867676,0.4828170239925384,9.85097599029541,2.8398756980896,0.7512398958206177,0.1431323587894439
3831428957.0,-0.7014960646629333,0.5313006043434143,10.007824897766112,3.051449775695801,0.3508894145488739,0.0482572205364704
3831437290.0,-0.5993784070014954,0.3196875751018524,10.11259937286377,2.7365992069244385,-0.0403296127915382,0.0255630034953355
3831445623.0,-0.5426790714263916,0.1609375923871994,9.789193153381348,2.1748533248901367,-0.1513160914182663,0.0877543613314628
3831453956.0,-0.5840962529182434,0.3389052152633667,9.449968338012695,2.523386240005493,0.3957911133766174,0.1441569030284881
3831462289.0,-0.6510166525840759,0.5354543328285217,9.695438385009766,3.1474769115448,1.0468792915344238,0.2142374515533447
3831470622.0,-0.6070680618286133,0.4344535171985626,10.15988826751709,3.109645128250122,1.1786903142929075,0.0434161312878131
3831478955.0,-0.6431450247764587,0.238920658826828,10.158682823181152,2.33501935005188,1.0249024629592896,0.0482059940695762
3831487288.0,-0.7338589429855347,0.2974642217159271,9.738529205322266,2.2035927772521973,0.9072049260139464,0.0759718120098114
3831495621.0,-0.7538819313049316,0.4258387386798858,9.669387817382812,2.7724850177764893,0.6325179934501648,0.0648296400904655
3831503954.0,-0.6711187362670898,0.4261815845966339,10.03139305114746,3.09202241897583,0.3952020108699798,0.0574271120131015
3831512287.0,-0.5140578150749207,0.2606479525566101,10.130634307861328,2.635167121887207,0.1406733840703964,0.0457726381719112
3831520620.0,-0.5141512155532837,0.2843866646289825,9.7771577835083,2.1755449771881104,0.0419305004179477,0.0777904316782951
3831528953.0,-0.6286884546279907,0.4509041309356689,9.548242568969728,2.7207186222076416,0.5063677430152893,0.1616514325141906
3831537286.0,-0.6240400075912476,0.4031804203987121,9.757478713989258,2.93247127532959,0.8885321617126465,0.0357062444090843
3831545619.0,-0.6499685645103455,0.2394044995307922,10.031848907470703,2.824737787246704,1.2936214208602903,0.1101924404501915
3831553952.0,-0.671725332736969,0.1812265664339065,9.943151473999023,2.493468999862671,1.1037429571151731,0.1171338930726051
3831562285.0,-0.7267539501190186,0.4223856031894684,9.798998832702637,2.716619968414306,0.7447850704193115,0.055531658232212
3831570618.0,-0.7347701787948608,0.540593683719635,9.9820556640625,2.9899752140045166,0.5740407109260559,0.0860638320446014
3831578951.0,-0.6109269261360168,0.343467503786087,10.129369735717772,2.770947933197021,0.2203336656093597,0.0698500275611877
3831587284.0,-0.5461142659187317,0.1603507250547409,9.846898078918455,2.3507206439971924,0.0216184128075838,-0.0320049859583377
3831595617.0,-0.6101598143577576,0.2940800786018371,9.498846054077148,2.419750928878784,0.4144639074802398,0.0927235335111618
3831603950.0,-0.6616781949996948,0.5044453144073486,9.619842529296877,3.1086716651916504,0.8026732802391052,0.1736645251512527
3831612283.0,-0.672167181968689,0.4644137024879455,10.091940879821776,3.155571699142456,1.2339402437210083,0.0513565503060817
3831620616.0,-0.6470434069633484,0.2736490964889526,10.183695793151855,2.488550901412964,1.1974910497665403,0.0013063258957117
3831628949.0,-0.7110596299171448,0.2734887301921844,9.786187171936035,2.2225472927093506,0.9739556312561036,0.0915196686983108
3831637282.0,-0.7758820652961731,0.4193519949913025,9.666845321655272,2.7449238300323486,0.6518055200576782,0.1358066797256469
3831645615.0,-0.7044138312339783,0.4474063217639923,9.981294631958008,3.196067571640014,0.3655151426792145,0.0279707442969083
3831653948.0,-0.5767336487770081,0.3059751391410827,10.188921928405762,2.8514533042907715,0.0705928280949592,0.0346048288047313
3831662281.0,-0.5371440052986145,0.2916771173477173,9.866978645324709,2.202260732650757,-0.0126918535679578,0.1036608070135116
3831670614.0,-0.6086482405662537,0.4504111111164093,9.538368225097656,2.571336507797241,0.392666220664978,0.1964612007141113
3831678947.0,-0.6625463962554932,0.4287346601486206,9.699444770812988,2.8915908336639404,1.1148083209991455,0.144848495721817
3831687280.0,-0.6549775004386902,0.2651673555374145,10.002426147460938,2.862390518188477,1.2015894651412964,0.0224380698055028
3831695613.0,-0.6751676201820374,0.1984110474586486,10.009922981262209,2.52889370918274,1.0645021200180054,0.1754831224679947
3831703946.0,-0.7253086566925049,0.4278416335582733,9.866454124450684,2.741671085357666,0.6590287089347839,0.1093471720814704
3831712279.0,-0.7129566669464111,0.5762262344360352,9.981480598449709,2.948378086090088,0.3813703656196594,0.0959765464067459
3831720612.0,-0.6227763295173645,0.401854008436203,10.134136199951172,2.866361141204834,0.1728960871696472,0.0704391449689865
3831728945.0,-0.5463640689849854,0.1860668957233429,9.910154342651367,2.254667282104492,-0.0147409923374652,0.0840146988630294
3831737278.0,-0.5609455108642578,0.2877184748649597,9.474830627441406,2.3532824516296387,0.2730733752250671,0.1780445575714111
3831745611.0,-0.6462164521217346,0.5106592178344727,9.60840129852295,2.9571120738983154,0.8474212884902954,0.0851417109370231
3831753944.0,-0.6269089579582214,0.5201235413551331,10.065228462219238,3.264611005783081,1.3086055517196655,0.0543021745979785
3831762277.0,-0.6213383674621582,0.3279878199100494,10.231165885925291,2.569594144821167,1.1331738233566284,0.0885740220546722
3831770610.0,-0.6897839903831482,0.2369657009840011,9.863776206970217,2.1135072708129883,0.8943977952003479,0.0137036154046654
3831778943.0,-0.7515047192573547,0.4059574604034424,9.64033317565918,2.670949935913086,0.582083523273468,0.0702598467469215
3831787276.0,-0.6935129761695862,0.4812411665916443,9.9424409866333,3.0818023681640625,0.3741727471351623,0.1515850275754928
3831795609.0,-0.5585737228393555,0.3518655300140381,10.1820707321167,2.8687684535980225,0.0605008229613304,0.05384112149477
3831803942.0,-0.4907393455505371,0.281676322221756,9.932092666625977,2.2635297775268555,-0.1374331712722778,0.0679801777005195
3831812275.0,-0.600075364112854,0.4375539124011993,9.549720764160156,2.4130146503448486,0.4598780274391174,0.0900084376335144
3831820608.0,-0.6687885522842407,0.4620665609836578,9.60827922821045,2.9717893600463867,1.0455474853515625,0.1770199835300445
3831828941.0,-0.6474652290344238,0.295148491859436,9.985886573791504,2.8788604736328125,1.3617039918899536,0.1775066554546356
3831837274.0,-0.6640154719352722,0.1895038187503814,10.044184684753418,2.5428786277771,1.2321215867996216,0.1429786533117294
3831845607.0,-0.7246125340461731,0.3825012445449829,9.86334228515625,2.6044809818267822,0.7721668481826782,0.2160048484802246
3831853940.0,-0.7238138914108276,0.565205454826355,9.934212684631348,2.9114420413970947,0.4240692555904388,0.1540952324867248
3831862273.0,-0.6514101028442383,0.4041631817817688,10.095855712890623,2.7421321868896484,0.2156206220388412,0.1167496815323829
3831870606.0,-0.5410785675048828,0.1385804414749145,9.899807929992676,2.388732433319092,0.0949007421731948,0.1098338440060615
3831878939.0,-0.5835964679718018,0.2302989065647125,9.512977600097656,2.360940933227539,0.3450237512588501,0.1768150627613067
3831887272.0,-0.681025505065918,0.4786344170570373,9.580316543579102,3.057058811187744,0.858665943145752,0.1507909893989563
3831895605.0,-0.6516848206520081,0.509131669998169,10.061071395874023,3.240175008773804,1.1701093912124634,0.0312749780714511
3831903938.0,-0.6363489627838135,0.3134747743606567,10.22569179534912,2.6471288204193115,1.202998161315918,0.0493074022233486
3831912271.0,-0.6979585886001587,0.1828372031450271,9.912467956542969,2.104362726211548,0.8080266714096069,0.1234349831938743
3831920604.0,-0.7590130567550659,0.3167493939399719,9.607853889465332,2.4284346103668213,0.644274890422821,0.1639054715633392
3831928937.0,-0.7331578135490417,0.4115147590637207,9.821866035461426,3.1257052421569824,0.5747578740119934,0.0513565428555011
3831937270.0,-0.5793788433074951,0.3077383935451507,10.191366195678713,2.9746577739715576,0.1163654699921608,0.1289420574903488
3831945603.0,-0.516404390335083,0.2877105176448822,10.019728660583496,2.4829158782958984,-0.0557493790984153,0.045747023075819
3831953936.0,-0.5613935589790344,0.3812088668346405,9.591514587402344,2.4196486473083496,0.3458178043365478,0.1033022180199623
3831962269.0,-0.6321774125099182,0.437737226486206,9.612567901611328,2.7625207901000977,0.9375065565109252,0.0124741327017545
3831970602.0,-0.6417949795722961,0.2809889614582062,9.91625690460205,2.959263801574707,1.2952862977981567,0.0517151392996311
3831978935.0,-0.6479831337928772,0.1482528895139694,10.013815879821776,2.623563528060913,1.2309688329696655,0.0631903260946273
3831987268.0,-0.724413275718689,0.343466579914093,9.8443603515625,2.615853786468506,0.9413231015205384,0.1181072443723678
3831995601.0,-0.7558375000953674,0.5392334461212158,9.91816520690918,3.016716480255127,0.6538546085357666,0.0689022988080978
3832003934.0,-0.6488415002822876,0.4543384909629822,10.129047393798828,2.8814735412597656,0.2045552730560302,0.0717966929078102
3832012267.0,-0.5633965730667114,0.1959562301635742,10.006006240844728,2.382098197937012,0.0336058735847473,-0.0082862041890621
3832020600.0,-0.5317927598953247,0.2168213725090026,9.58968448638916,2.3264384269714355,0.2005338370800018,0.0617815293371677
3832028933.0,-0.6345455050468445,0.4487406313419342,9.517549514770508,2.95670223236084,0.7462195158004761,0.0303784813731908
3832037266.0,-0.6457237005233765,0.5255813598632812,9.95913791656494,3.3031859397888184,1.1750528812408447,-0.0045209126546978
3832045599.0,-0.6097596883773804,0.358616441488266,10.222097396850586,2.8090620040893555,1.1520514488220217,0.0430575311183929
3832053932.0,-0.6924196481704712,0.2411703020334243,9.947514533996582,2.2699334621429443,0.9077684283256532,0.0487951152026653
3832062265.0,-0.7708074450492859,0.3683472275733948,9.661023139953612,2.472529172897339,0.7842695116996765,0.0379987172782421
3832070598.0,-0.736686110496521,0.4830576181411743,9.813875198364258,3.1861801147460938,0.6101310849189758,0.0237443950027227
3832078931.0,-0.5883318185806274,0.3947210311889648,10.13947296142578,2.9838788509368896,0.3614424765110016,0.0051740757189691
3832087264.0,-0.5133047103881836,0.2938266694545746,10.035057067871094,2.326592445373535,-0.1466030776500702,0.0511516258120536
3832095597.0,-0.5753322243690491,0.383560836315155,9.60021686553955,2.3923439979553223,0.1558113992214203,0.1958720684051513
3832103930.0,-0.6517571806907654,0.4681135416030884,9.55533504486084,2.7260210514068604,0.8716012239456177,0.1487931162118911
3832112263.0,-0.636809229850769,0.3138627707958221,9.911808967590332,2.854552984237671,1.328405499458313,0.0790967568755149
3832120596.0,-0.6642299294471741,0.199531078338623,10.011123657226562,2.659986972808838,1.3503568172454834,0.1376508921384811
3832128929.0,-0.7053506374359131,0.3847739696502685,9.930964469909668,2.529380321502685,0.99378103017807,0.0873957648873329
3832137262.0,-0.727000892162323,0.570397675037384,9.968859672546388,2.8774776458740234,0.5114650726318359,0.046745978295803
3832145595.0,-0.6612268090248108,0.4677196443080902,10.106148719787598,2.926093339920044,0.1325792819261551,0.060244683176279
3832153928.0,-0.5569087266921997,0.2057037502527237,9.95216941833496,2.423208951950073,-0.0669171884655952,0.065751738846302
3832162261.0,-0.5910157561302185,0.1901327073574066,9.576772689819336,2.248699188232422,0.1200539171695709,0.1223848089575767
3832170594.0,-0.6641308069229126,0.4615294635295868,9.556134223937988,2.9597761631011963,0.7710397243499756,0.1113194599747657
3832178927.0,-0.6667971014976501,0.5759791731834412,9.978325843811035,3.3297228813171387,1.2274086475372314,0.031556736677885
3832187260.0,-0.6290335655212402,0.3559468686580658,10.263733863830566,2.71621036529541,1.2138330936431885,0.1914920061826706
3832195593.0,-0.6666028499603271,0.2222564816474914,9.975835800170898,2.05887222290039,0.860971212387085,0.1341929733753204
3832203926.0,-0.7444875240325928,0.3139210045337677,9.614768028259276,2.3590452671051025,0.6668922305107117,0.0962582901120185
3832212259.0,-0.7240594029426575,0.4079098105430603,9.79590129852295,2.999196529388428,0.3536301255226135,0.1282504647970199
3832220592.0,-0.58940589427948,0.3914715349674225,10.141160011291504,3.0866687297821045,0.1816305220127105,0.0930052921175956
3832228925.0,-0.4964853525161743,0.3073647916316986,10.075447082519531,2.46362853050232,-0.0853850618004798,-0.0088753327727317
3832237258.0,-0.5841488242149353,0.3986932337284088,9.606548309326172,2.2923460006713867,0.3411304056644439,0.0622938200831413
3832245591.0,-0.664842426776886,0.4260145723819732,9.58724308013916,2.62361478805542,0.9175274968147278,0.0673142150044441
3832253924.0,-0.6759437322616577,0.2796607911586761,9.879022598266602,2.847944498062134,1.3279701471328735,0.0589639693498611
3832262257.0,-0.660618245601654,0.151546835899353,10.029719352722168,2.697998523712158,1.118573546409607,0.0788662359118461
3832270590.0,-0.6727133393287659,0.299112468957901,9.908333778381348,2.670668125152588,0.7211430668830872,0.0409571602940559
3832278923.0,-0.7180584073066711,0.5450859069824219,9.91681671142578,2.8984813690185547,0.4109804034233093,0.1963074952363968
3832287256.0,-0.6404421329498291,0.460707813501358,10.095273971557615,2.9005815982818604,0.1433884799480438,0.0344511456787586
3832295589.0,-0.5480382442474365,0.1794402599334716,9.978150367736816,2.40822434425354,-0.0166620593518018,0.0651113837957382
3832303922.0,-0.5529189705848694,0.1304546892642974,9.560237884521484,2.2788984775543213,0.3049374520778656,0.0047642476856708
3832312255.0,-0.6409667730331421,0.4119870364665985,9.513861656188965,2.894946336746216,0.8866623044013977,0.065751738846302
3832320588.0,-0.658510684967041,0.51608806848526,9.92831325531006,3.3626627922058105,1.317903757095337,0.0330167524516582
3832328921.0,-0.6311129331588745,0.3813754022121429,10.238236427307127,2.7717928886413574,1.2398313283920288,0.0549937598407268
3832337254.0,-0.6764311790466309,0.2223683297634124,10.016974449157717,2.0851778984069824,0.826110303401947,0.0318384952843189
3832345587.0,-0.7222236394882202,0.2971026301383972,9.67937183380127,2.3634254932403564,0.5855158567428589,0.1478197425603866
3832353920.0,-0.7144375443458557,0.4331007897853851,9.777477264404297,3.000707626342773,0.3282720446586609,0.1247669458389282
3832362253.0,-0.5823888182640076,0.370572417974472,10.152947425842283,3.0884621143341064,0.181733027100563,0.1048390716314315
3832370586.0,-0.4968246519565582,0.2801868319511413,10.040348052978516,2.4958255290985107,0.0715917870402336,0.0980769172310829
3832378919.0,-0.5569767355918884,0.3587326109409332,9.609233856201172,2.2881453037261963,0.272279292345047,0.0812995657324791
3832387252.0,-0.6477601528167725,0.4797956347465515,9.515251159667969,2.802914619445801,0.9335619807243348,0.1065552309155464
3832395585.0,-0.6801357269287109,0.346367210149765,9.885066032409668,2.885161876678467,1.413854718208313,0.0184934772551059
3832403918.0,-0.661941409111023,0.1812763661146164,10.0737943649292,2.745384693145752,1.2745131254196167,0.054353404790163
3832412251.0,-0.703132688999176,0.2976136207580566,9.92417335510254,2.5434937477111816,0.7297240495681763,0.040086280554533
3832420584.0,-0.7344798445701599,0.5311300158500671,9.880451202392578,2.870971441268921,0.2954089939594269,0.1137271970510482
3832428917.0,-0.6599177122116089,0.5222213268280029,10.06930446624756,3.067253828048706,0.1319901794195175,-0.0557750016450881
3832437250.0,-0.5594106912612915,0.2598726153373718,10.009011268615724,2.4685206413269043,-0.0504216253757476,0.0428269989788532
3832445583.0,-0.5471231937408447,0.1999438554048538,9.607091903686523,2.1630196571350098,0.0966425016522407,0.014548884704709
3832453916.0,-0.6121090054512024,0.4216385781764984,9.440497398376465,2.7452311515808105,0.7662754058837891,0.1104485914111137
3832462249.0,-0.6541352272033691,0.575790286064148,9.875422477722168,3.2979352474212646,1.2041252851486206,0.0784564018249511
3832470582.0,-0.6621080636978149,0.4201496243476867,10.274682998657228,2.896637201309204,1.3102961778640747,0.1347052603960037
3832478915.0,-0.687764048576355,0.2456706166267395,10.114529609680176,2.214094638824463,0.9411695599555968,0.1441056877374649
3832487248.0,-0.7535054087638855,0.3076800405979156,9.68359375,2.3882455825805664,0.6595409512519836,0.037294328212738
3832495581.0,-0.7716984748840332,0.5059196949005127,9.698846817016602,3.066612958908081,0.4004273116588592,0.0890606939792633
3832503914.0,-0.6292116641998291,0.4374094605445862,10.108983993530272,3.126550436019897,0.1602938771247863,0.0564025491476058
3832512247.0,-0.5227512717247009,0.3096081018447876,10.120309829711914,2.4696223735809326,-0.0928131788969039,0.0620889067649841
3832520580.0,-0.579526960849762,0.3494304716587066,9.63912296295166,2.239990472793579,0.2691799700260162,0.146077960729599
3832528913.0,-0.6590606570243835,0.4885148108005523,9.508208274841309,2.7432334423065186,0.8715243935585022,0.1429530531167984
3832537246.0,-0.6984735727310181,0.3904697299003601,9.86272144317627,3.0502710342407227,1.3065564632415771,0.0658029690384864
3832545579.0,-0.6711004972457886,0.2147847712039947,10.118489265441896,2.8330113887786865,1.2611937522888184,0.0479498542845249
3832553912.0,-0.6793662905693054,0.2756482064723968,9.934226989746094,2.4532546997070312,0.8978045582771301,0.1091166511178016
3832562245.0,-0.7337902784347534,0.5309084057807922,9.818648338317873,2.5900349617004395,0.4754514396190643,0.0729237273335456
3832570578.0,-0.6638976335525513,0.5239564776420593,9.987616539001465,2.892999649047852,0.1498176604509353,0.0838866233825683
3832578911.0,-0.5768152475357056,0.2920119762420654,10.032367706298828,2.505212783813477,0.1349742114543914,-0.0284061860293149
3832587244.0,-0.547675371170044,0.1526521742343902,9.736246109008787,2.257920265197754,0.1243571117520332,0.0342718437314033
3832595577.0,-0.5984200239181519,0.3487936556339264,9.46078395843506,2.536039352416992,0.5907922387123108,0.1055562570691108
3832603910.0,-0.6680325865745544,0.5341752767562866,9.793298721313477,3.181377410888672,0.9878257513046264,0.1357938647270202
3832612243.0,-0.6405936479568481,0.4490194320678711,10.19308853149414,2.93623685836792,1.2990260124206543,0.0485645942389965
3832620576.0,-0.6522570252418518,0.1826330721378326,10.121780395507812,2.245856046676636,0.99764883518219,0.092928446829319
3832628909.0,-0.7159633636474609,0.2303798645734787,9.700583457946776,2.2133259773254395,0.6558524370193481,0.1188244298100471
3832637242.0,-0.7391360998153687,0.3994401395320892,9.642879486083984,2.8786814212799072,0.4163593649864197,0.1280199587345123
3832645575.0,-0.6286292672157288,0.4113456606864929,10.021278381347656,3.2035725116729736,0.3078318834304809,-0.0248073879629373
3832653908.0,-0.5168952941894531,0.2460153698921203,10.167158126831056,2.69697380065918,-0.044760875403881,0.0517919808626174
3832662241.0,-0.5437220335006714,0.2274205088615417,9.759709358215332,2.177440643310547,0.1914920359849929,0.1686953753232956
3832670574.0,-0.6606684923171997,0.3803791403770447,9.4888916015625,2.582913875579834,0.8214229941368103,0.2611371278762817
3832678907.0,-0.7036660313606262,0.4020074605941772,9.757623672485352,3.0857982635498047,1.1938538551330566,0.0501270592212677
3832687240.0,-0.6764628887176514,0.20166015625,10.10072135925293,2.931523561477661,1.2652919292449951,0.0269461739808321
3832695573.0,-0.6667309999465942,0.188410073518753,10.029229164123535,2.6256895065307617,0.9508771896362304,0.0246152784675359
3832703906.0,-0.7183332443237305,0.403329461812973,9.79980754852295,2.5902140140533447,0.4648727178573608,0.1096033081412315
3832712239.0,-0.6898280382156372,0.5061950087547302,9.884272575378418,3.03177809715271,0.1999959647655487,0.0674935132265091
3832720572.0,-0.5910297632217407,0.3403932452201843,10.065876960754396,2.952373743057251,0.0577600970864295,-0.0019082606304436
3832728905.0,-0.5435055494308472,0.1691555231809616,9.856609344482422,2.349952459335327,0.1952060908079147,0.1235886886715889
3832737238.0,-0.6044467687606812,0.3216157257556915,9.510404586791992,2.450693130493164,0.5652037262916565,0.081017829477787
3832745571.0,-0.6805133819580078,0.5108370780944824,9.664453506469728,3.127011299133301,1.135478973388672,0.1166472136974334
3832753904.0,-0.6648259162902832,0.4938567578792572,10.099064826965332,3.09658145904541,1.1237220764160156,0.0299174264073371
3832762237.0,-0.6367427110671997,0.2590591311454773,10.200529098510742,2.5859618186950684,1.019984483718872,0.1717946678400039
3832770570.0,-0.7136248350143433,0.2348922789096832,9.806229591369627,2.215221405029297,0.6969121098518372,0.1417491734027862
3832778903.0,-0.7444835305213928,0.4533925950527191,9.667122840881348,2.749099016189575,0.3581382930278778,0.1604731827974319
3832787236.0,-0.658369243144989,0.489641785621643,9.990057945251465,3.1677379608154297,0.2712035179138183,0.1190805882215499
3832795569.0,-0.5509174466133118,0.3466318547725677,10.15208339691162,2.831115484237671,0.1475635915994644,-0.0386646874248981
3832803902.0,-0.5535481572151184,0.3081234693527221,9.809709548950195,2.285916566848755,0.2026598304510116,0.0216952562332153
3832812235.0,-0.6239794492721558,0.4320031404495239,9.506133079528809,2.546004056930542,0.5682518482208252,0.0757156908512115
3832820568.0,-0.6895475387573242,0.4868106842041015,9.690300941467283,3.137001276016236,1.212782859802246,0.1725374907255172
3832828901.0,-0.666205644607544,0.3203046321868896,10.105295181274414,2.932445764541626,1.2199804782867432,0.094849519431591
3832837234.0,-0.648070752620697,0.2372213006019592,10.103442192077637,2.5244622230529785,1.031715750694275,0.0297125112265348
3832845567.0,-0.7088088989257812,0.40933758020401,9.78518772125244,2.48616886138916,0.5214290022850037,0.1308118849992752
3832853900.0,-0.7174721360206604,0.5663989186286926,9.833041191101074,3.050578594207764,0.3812935352325439,0.0809665992856025
3832862233.0,-0.6277702450752258,0.4777505695819855,10.021784782409668,3.0118753910064697,0.2138532400131225,0.1251767575740814
3832870566.0,-0.5673782825469971,0.2368586361408233,9.947826385498049,2.360172271728516,0.1979980319738388,0.0211317408829927
3832878899.0,-0.59586101770401,0.2731886506080627,9.556923866271973,2.2164251804351807,0.4619271457195282,0.0706184431910514
3832887232.0,-0.6846614480018616,0.5200327038764954,9.570597648620604,2.961825370788574,0.9534130692481996,0.1550429761409759
3832895565.0,-0.6954481601715088,0.5455418229103088,10.055476188659668,3.174116373062134,1.270850419998169,0.0736921653151512
3832903898.0,-0.6566358804702759,0.3214935064315796,10.26874828338623,2.5833489894866943,1.0944706201553345,0.0441077090799808
3832912231.0,-0.6631296277046204,0.218665525317192,9.89871311187744,2.119296073913574,0.5772168040275574,0.0852185487747192
3832920564.0,-0.7333776950836182,0.3943689465522766,9.634190559387209,2.4199819564819336,0.4861838221549988,0.1121135130524635
3832928897.0,-0.681736409664154,0.474335104227066,9.820464134216309,3.05828857421875,0.3661299049854278,0.0938505604863166
3832937230.0,-0.5583003163337708,0.3249508142471313,10.122565269470217,2.7862398624420166,0.1618563532829284,0.0538155101239681
3832945563.0,-0.5083849430084229,0.2105967849493026,9.951560974121094,2.3031551837921143,0.0607313476502895,-0.0009861480211839
3832953896.0,-0.5915340185165405,0.3495834767818451,9.567093849182127,2.4456472396850586,0.5547019243240356,0.0553267523646354
3832962229.0,-0.6822637319564819,0.4347618520259857,9.672229766845703,2.920048475265503,0.9496734738349916,0.1512264609336853
3832970562.0,-0.700084388256073,0.3162898421287536,10.038232803344728,2.9426655769348145,1.1080716848373413,0.1643665581941604
3832978895.0,-0.6491323113441467,0.1265514940023422,10.106504440307615,2.4253990650177,0.9630568027496338,0.1003693863749504
3832987228.0,-0.6792817115783691,0.2765674591064453,9.826800346374512,2.379946708679199,0.5467102527618408,0.2146473079919815
3832995561.0,-0.7061662077903748,0.4719216227531433,9.788609504699709,2.919407844543457,0.2414910048246383,0.1897246241569519
3833003894.0,-0.6285524368286133,0.419609397649765,9.993623733520508,3.039590358734131,0.1264830976724624,0.0317104235291481
3833012227.0,-0.5463948845863342,0.2089002728462219,10.031120300292969,2.531045198440552,0.2182076871395111,-0.0323123596608638
3833020560.0,-0.5813156366348267,0.1619133353233337,9.642804145812988,2.263914108276367,0.5153583288192749,0.0939529985189437
3833028893.0,-0.6511057615280151,0.4211929142475128,9.507246971130373,2.7677717208862305,0.8815650939941406,0.1624454706907272
3833037226.0,-0.6542309522628784,0.4886274039745331,9.92207145690918,3.2910194396972656,1.1996939182281494,0.1241265907883644
3833045559.0,-0.6301913261413574,0.3201490640640259,10.24077320098877,2.8055784702301025,1.1951090097427368,0.0428013876080513
3833053892.0,-0.6680153608322144,0.1571598798036575,10.00837516784668,2.2096502780914307,0.72323077917099,0.0542381405830383
3833062225.0,-0.7383397221565247,0.3222460448741913,9.646135330200195,2.4779980182647705,0.5016548037528992,0.0382676683366298
3833070558.0,-0.7170887589454651,0.4486037492752075,9.762208938598633,3.104138135910034,0.4238387644290924,0.0073769004084169
3833078891.0,-0.6105755567550659,0.3724550008773803,10.118833541870115,3.062821865081787,0.3043995201587677,0.0030480937566608
3833087224.0,-0.5187634825706482,0.2539759278297424,10.0330171585083,2.559809923171997,0.2119834274053573,-0.0105402581393718
3833095557.0,-0.5850731730461121,0.3507744371891022,9.622556686401367,2.3290510177612305,0.4084957838058471,0.0908280685544014
3833103890.0,-0.6744881868362427,0.4732058048248291,9.540179252624512,2.8000712394714355,0.8996999263763428,0.146539032459259
3833112223.0,-0.6951928734779358,0.4007330536842346,9.932005882263184,3.094712018966675,1.167471170425415,0.0660591125488281
3833120556.0,-0.6503501534461975,0.1966148763895034,10.085881233215332,2.6895971298217773,0.9578443169593812,-0.005417410749942
3833128889.0,-0.6865201592445374,0.2909184694290161,9.87186336517334,2.48043155670166,0.7598719596862793,0.0703366994857788
3833137222.0,-0.7292438745498657,0.5437944531440735,9.764543533325195,2.953116178512573,0.5449428558349609,0.12835294008255
3833145555.0,-0.6754539012908936,0.5556439161300659,9.99309539794922,3.1101059913635254,0.3117508292198181,0.0020491387695074
3833153888.0,-0.5631439685821533,0.3024199604988098,10.075481414794922,2.6734089851379395,0.0805823802947998,0.1610110998153686
3833162221.0,-0.5574122071266174,0.2108791023492813,9.672690391540527,2.2329463958740234,0.2269677221775055,0.0741532146930694
3833170554.0,-0.6279796957969666,0.4147693514823913,9.447611808776855,2.601945400238037,0.6328509449958801,0.0889838486909866
3833178887.0,-0.6766442060470581,0.5999215841293335,9.81116008758545,3.245733499526977,1.0707775354385376,0.1555040329694748
3833187220.0,-0.6562654376029968,0.4670428335666656,10.250019073486328,3.036670207977295,1.1890640258789062,0.0724370554089546
3833195553.0,-0.6487570405006409,0.2728601098060608,10.184510231018066,2.232228994369507,0.7821818590164185,0.0964119732379913
3833203886.0,-0.7190320491790771,0.3260469436645508,9.73932647705078,2.171574831008911,0.4455596506595611,0.125356063246727
3833212219.0,-0.7389606833457947,0.4918101727962494,9.680371284484863,2.8488152027130127,0.5370792150497437,0.1029179915785789
3833220552.0,-0.6257132291793823,0.4449568092823028,10.028449058532717,3.102370500564575,0.2701021134853363,0.0819655507802963
3833228885.0,-0.5307313203811646,0.3063516616821289,10.170010566711426,2.551126718521118,0.0763560384511947,0.061832770705223
3833237218.0,-0.5598700642585754,0.3589113354682922,9.770329475402832,2.2450878620147705,0.2513268887996673,0.0427757762372493
3833245551.0,-0.6367907524108887,0.4741970598697662,9.576967239379885,2.60837459564209,0.7144579291343689,0.079762727022171
3833253884.0,-0.6605984568595886,0.4490384757518768,9.848795890808104,2.9929721355438232,1.2340168952941897,0.172896072268486
3833262217.0,-0.6646398305892944,0.2315225154161453,10.10771369934082,2.632810115814209,1.1110684871673584,0.0576576441526412
3833270550.0,-0.6527678966522217,0.1941964626312255,9.962519645690918,2.3665504455566406,0.8559765815734863,0.0823753848671913
3833278883.0,-0.7350388169288635,0.4187408685684204,9.764384269714355,2.760138750076294,0.6294698715209961,0.0505625009536743
3833287216.0,-0.7196070551872253,0.5594509840011597,9.936897277832031,3.0131564140319824,0.4319584965705871,0.1003309562802314
3833295549.0,-0.6135913729667664,0.3663218319416046,10.123753547668455,2.78898024559021,0.1466158777475357,0.0122948326170444
3833303882.0,-0.5664284229278564,0.1427680701017379,9.849576950073242,2.082104444503784,0.1875986754894256,-0.0256270430982112
3833312215.0,-0.5876860618591309,0.271340012550354,9.44317626953125,2.325183153152466,0.4248632490634918,0.218976080417633
3833320548.0,-0.6614989638328552,0.4749278426170349,9.615711212158203,3.1150238513946533,0.9663226008415222,0.0904950946569442
3833328881.0,-0.6551008820533752,0.4648662805557251,10.11889362335205,3.128497362136841,1.1121445894241333,0.1420053243637085
3833337214.0,-0.6466141939163208,0.2267983108758926,10.245553970336914,2.4419074058532715,1.0043340921401978,-0.0291361901909112
3833345547.0,-0.6954339742660522,0.2014387995004654,9.801599502563477,2.0588977336883545,0.6817997097969055,0.1225641071796417
3833353880.0,-0.7574418783187866,0.364557534456253,9.566662788391112,2.663701057434082,0.3875433504581451,0.141134425997734
3833362213.0,-0.6784936189651489,0.434056282043457,9.9105806350708,3.251138210296631,0.3786808848381042,0.126918539404869
3833370546.0,-0.5460906624794006,0.2843489348888397,10.2000093460083,2.76364803314209,0.1072980239987373,0.104659765958786
3833378879.0,-0.534809947013855,0.210004836320877,9.878560066223145,2.2779507637023926,-0.0093620028346776,0.0463617667555809
3833387212.0,-0.6218552589416504,0.367556095123291,9.500754356384276,2.410068988800049,0.4620807766914367,0.1282248497009277
3833395545.0,-0.6863320469856262,0.422843873500824,9.649839401245115,2.9626708030700684,1.0006201267242432,0.1269953846931457
3833403878.0,-0.6738777160644531,0.2845392823219299,10.066445350646973,3.03869366645813,1.2838366031646729,-0.0290849637240171
3833412211.0,-0.6441953778266907,0.1684926450252533,10.08527660369873,2.48675799369812,0.985840618610382,0.0751009359955787
3833420544.0,-0.6786356568336487,0.3153030574321747,9.819035530090332,2.4783308506011963,0.544763445854187,0.0710282698273658
3833428877.0,-0.7228383421897888,0.5101392865180969,9.815211296081545,3.019572734832764,0.4151939451694488,0.0287007484585046
3833437210.0,-0.6442424058914185,0.4544840455055237,10.084939002990724,3.0879368782043457,0.1228586807847023,0.1491132825613021
3833445543.0,-0.5533477067947388,0.2047858238220214,10.02186107635498,2.581108331680298,0.1348461508750915,0.0375376641750335
3833453876.0,-0.5663581490516663,0.199318841099739,9.627116203308104,2.296854019165039,0.4438178837299347,0.098819725215435
3833462209.0,-0.6415187120437622,0.4727991223335266,9.50669765472412,2.925632238388061,1.0173461437225342,0.0459263212978839
3833470542.0,-0.6642308235168457,0.5707811713218689,9.956408500671388,3.3008553981781006,1.2313532829284668,0.1105766594409942
3833478875.0,-0.6346734166145325,0.3805070519447326,10.276256561279297,2.87442946434021,1.101412057876587,0.1053513437509536
3833487208.0,-0.6585724353790283,0.2196681797504425,9.996014595031738,2.09443736076355,0.8640834093093872,-0.0079916408285498
3833495541.0,-0.7545291185379028,0.3608967363834381,9.612932205200195,2.420583724975586,0.6052003502845764,-0.0192875191569328
3833503874.0,-0.7317359447479248,0.5267069339752197,9.725687980651855,3.0830318927764893,0.3924612998962402,0.0424171723425388
3833512207.0,-0.6194881796836853,0.4318318367004394,10.178650856018066,3.238638162612915,0.163726195693016,-0.023449832573533
3833520540.0,-0.5155863165855408,0.3046487271785736,10.118352890014648,2.344547986984253,0.1560163348913192,0.0220282450318336
3833528873.0,-0.5694292783737183,0.3580200374126434,9.585646629333496,2.246291399002075,0.3240969181060791,-0.0709898546338081
3833537206.0,-0.646409273147583,0.4968842267990112,9.506800651550291,2.894408702850342,0.8327444195747375,0.0086832270026206
3833545539.0,-0.6831706166267395,0.4295327365398407,9.904278755187988,3.1508584022521973,1.097621202468872,0.0999979749321937
3833553872.0,-0.6542155742645264,0.2304972410202026,10.207064628601074,2.668337345123291,0.9951642155647278,0.1520717293024063
3833562205.0,-0.691354513168335,0.2552784085273742,9.921573638916016,2.269549369812012,0.7163021564483643,0.099255159497261
3833570538.0,-0.7464441657066345,0.4906741380691528,9.757336616516112,2.710421800613404,0.5460954904556274,0.1462572813034057
3833578871.0,-0.7145140171051025,0.5801202058792114,9.949061393737791,3.0924580097198486,0.3451774716377258,0.0467203669250011
3833587204.0,-0.5941372513771057,0.3343507349491119,10.100156784057615,2.699304819107056,0.228837564587593,-0.0199150685220956
3833595537.0,-0.5516135096549988,0.1902079433202743,9.806053161621094,2.258227825164795,0.2390576601028442,-0.0155350333079695
3833603870.0,-0.5896894335746765,0.3737064301967621,9.464428901672363,2.503714799880981,0.5075204968452454,-0.0299302358180284
3833612203.0,-0.664302408695221,0.5392337441444397,9.707700729370115,3.104189395904541,1.044727802276611,0.1205662041902542
3833620536.0,-0.6306015849113464,0.4521020054817199,10.16711139678955,3.032828092575073,1.0559213161468506,0.0575808025896549
3833628869.0,-0.6454036235809326,0.2230146080255508,10.141366004943848,2.344778299331665,0.928080677986145,0.1220006123185157
3833637202.0,-0.7091246247291565,0.2572862803936004,9.70819854736328,2.084998846054077,0.8404287695884705,0.1269953846931457
3833645535.0,-0.7769821882247925,0.427696943283081,9.635591506958008,2.8200247287750244,0.5859512686729431,0.1007151752710342
3833653868.0,-0.6773761510848999,0.4407080113887787,10.003963470458984,3.173988342285156,0.5178942680358887,0.0268693342804908
3833662201.0,-0.577141284942627,0.269805908203125,10.193808555603027,2.6874966621398926,0.0863712057471275,-0.0018826463492587
3833670534.0,-0.5196409821510315,0.2037220746278762,9.819430351257324,2.225082874298096,-0.030237603932619,0.17686627805233
3833678867.0,-0.6052137017250061,0.4120990633964538,9.45042324066162,2.517751216888428,0.2939233481884002,0.037473626434803
3833687200.0,-0.6776171922683716,0.4469499289989471,9.725383758544922,3.0993993282318115,0.954616904258728,0.0353988707065582
3833695533.0,-0.6359173655509949,0.2823355197906494,10.103059768676758,3.014411449432373,1.1200848817825315,0.0657261237502098
3833703866.0,-0.6641214489936829,0.1526851654052734,10.04985809326172,2.505815029144287,0.9846112728118896,0.0040214350447058
3833712199.0,-0.7219358682632446,0.3415065705776214,9.755172729492188,2.541393518447876,0.7119989395141602,0.0617815367877483
3833720532.0,-0.7390106916427612,0.5032954216003418,9.822821617126465,3.011183977127075,0.5974264740943909,0.0466691404581069
3833728865.0,-0.6222158074378967,0.3781960904598236,10.114126205444336,2.966512441635132,0.2180795967578888,-0.0070567210204899
3833737198.0,-0.560519814491272,0.1642991751432418,10.032936096191406,2.3560996055603027,-0.0145873064175248,0.1602682769298553
3833745531.0,-0.5392672419548035,0.2315585017204284,9.59555721282959,2.2208566665649414,0.2976374328136444,0.1606524884700775
3833753864.0,-0.629040002822876,0.4454627633094787,9.527321815490724,2.8150556087493896,0.7448107600212097,0.1603963524103164
3833762197.0,-0.6539973020553589,0.493205726146698,9.979825019836426,3.297064304351806,1.0093032121658323,0.054532703012228
3833770530.0,-0.6259585022926331,0.280889093875885,10.201452255249023,2.7363176345825195,1.208633303642273,0.0137804578989744
3833778863.0,-0.6639696359634399,0.1843254119157791,9.926421165466309,2.253643035888672,0.9912452101707458,0.0129351885989308
3833787196.0,-0.7412574887275696,0.3279129266738891,9.639140129089355,2.5328123569488525,0.7513935565948486,0.0846550464630127
3833795529.0,-0.7239200472831726,0.4677623510360718,9.851956367492676,3.205416679382324,0.5848754048347473,0.1491516828536987
3833803862.0,-0.605108916759491,0.309954434633255,10.218143463134766,3.028575897216797,0.3435381352901459,0.0778160467743873
3833812195.0,-0.5345447063446045,0.2399726808071136,10.03105354309082,2.421339511871338,-0.0714509114623069,0.1018678173422813
3833820528.0,-0.5706197619438171,0.3761386573314667,9.562714576721191,2.2355337142944336,0.2880833446979522,0.1612672209739685
3833828861.0,-0.6598197817802429,0.4787330329418182,9.566168785095217,3.007700204849243,0.7764443159103394,0.0650857761502265
3833837194.0,-0.6360153555870056,0.3585601150989532,9.943828582763672,3.088538646697998,1.205866813659668,0.0352707989513874
3833845527.0,-0.6352025270462036,0.2038086354732513,10.094293594360352,2.71915602684021,1.1586343050003052,0.0575039573013782
3833853860.0,-0.676780641078949,0.2793788611888885,9.843656539916992,2.4152944087982178,0.8975483179092407,0.0711819604039192
3833862193.0,-0.7393028736114502,0.5530110597610474,9.79929256439209,2.890002965927124,0.5444305539131165,0.2006875425577163
3833870526.0,-0.7182894945144653,0.5324849486351013,10.050374031066896,3.1155877113342285,0.4717373847961426,0.0866529569029808
3833878859.0,-0.5860020518302917,0.2944034934043884,10.094831466674805,2.6402900218963623,0.0950800403952598,0.04920494556427
3833887192.0,-0.5695143938064575,0.196253627538681,9.716630935668944,2.215503454208374,0.0776879712939262,0.0380115285515785
3833895525.0,-0.6063464283943176,0.4315402209758758,9.436863899230955,2.6072473526000977,0.4602878391742706,0.1240241378545761
3833903858.0,-0.6541074514389038,0.5852832198143005,9.75652313232422,3.120659351348877,1.0809975862503052,0.0874470099806785
3833912191.0,-0.6280388832092285,0.4188897311687469,10.16876220703125,3.000323534011841,1.1260274648666382,0.1616514474153518
3833920524.0,-0.6451449394226074,0.1994127780199051,10.079078674316406,2.273545265197754,0.9173738956451416,-0.0716302096843719
3833928857.0,-0.7155542969703674,0.3229003250598907,9.683197021484377,2.344035625457764,0.6929162740707397,0.1330659538507461
3833937190.0,-0.7601168155670166,0.4988614022731781,9.72596836090088,2.968869209289551,0.6440443992614746,0.1360372006893158
3833945523.0,-0.6227710843086243,0.4300244450569153,10.104923248291016,3.1874866485595703,0.3407205641269684,0.0355013310909271
3833953856.0,-0.5158343315124512,0.2538103759288788,10.135994911193848,2.536500930786133,-0.1876883208751678,0.0832462683320045
3833962189.0,-0.5396357774734497,0.271315723657608,9.678118705749512,2.1624817848205566,0.0907000005245208,0.0567099153995513
3833970522.0,-0.6638675928115845,0.4329994618892669,9.44962215423584,2.7083468437194824,0.5829800367355347,0.1069138124585151
3833978855.0,-0.6607637405395508,0.4285944700241089,9.820015907287598,3.204008102416992,1.1347362995147705,0.1338856071233749
3833987188.0,-0.6439526677131653,0.2576331198215484,10.187345504760742,2.800199270248413,1.3302751779556274,0.0212085880339145
3833995521.0,-0.6531549096107483,0.2006516754627227,10.02531909942627,2.341858386993408,0.9637100100517272,0.0954642593860626
3834003854.0,-0.7260111570358276,0.4232230186462402,9.738544464111328,2.618082284927368,0.6361551880836487,0.0631134733557701
3834012187.0,-0.6952874064445496,0.5293893814086914,9.897701263427734,3.136540412902832,0.4161033034324646,-0.0338748283684253
3834020520.0,-0.593143105506897,0.3357198238372803,10.14004611968994,2.810829401016236,0.1521229594945907,0.0172639954835176
3834028853.0,-0.5562556982040405,0.175743967294693,9.898774147033691,2.310532093048096,0.1749708205461502,0.1653142720460891
3834037186.0,-0.5920373797416687,0.3033597767353058,9.497215270996094,2.3879640102386475,0.5875649452209473,0.0946189910173416
3834045519.0,-0.659196138381958,0.5127139091491699,9.628066062927246,3.1543161869049072,0.9535410404205322,0.0444919243454933
3834053852.0,-0.6546258330345154,0.4658358097076416,10.11971378326416,3.1413042545318604,1.3047893047332764,0.0213622730225324
3834062185.0,-0.6401585936546326,0.236666589975357,10.197673797607422,2.454586267471313,1.0051281452178955,0.1180559918284416
3834070518.0,-0.6977521181106567,0.1977453827857971,9.825366020202637,2.1576151847839355,0.6949398517608643,0.0670324563980102
3834078851.0,-0.7520076632499695,0.399537056684494,9.613537788391112,2.7391350269317627,0.521403431892395,0.2166708260774612
3834087184.0,-0.6891999840736389,0.4611042141914367,9.937582969665527,3.201216220855713,0.503524661064148,0.0589383579790592
3834095517.0,-0.5608651638031006,0.3192652761936188,10.187593460083008,2.8913605213165283,0.2239196747541427,0.017801895737648
3834103850.0,-0.5369890928268433,0.2548428475856781,9.888208389282228,2.2283360958099365,0.1562468558549881,0.0703110843896865
3834112183.0,-0.6330450773239136,0.386957585811615,9.503061294555664,2.429177045822144,0.5406652688980103,0.1900063902139663
3834120516.0,-0.6842961311340332,0.4528981447219848,9.69001579284668,3.096376657485962,1.0614794492721558,0.0562232434749603
3834128849.0,-0.6650687456130981,0.3239637315273285,10.040963172912598,2.9601857662200928,1.2075574398040771,0.0680570229887962
3834137182.0,-0.6488747000694275,0.1987581700086593,10.0726318359375,2.4891912937164307,1.0439592599868774,0.0290721599012613
3834145515.0,-0.6991146802902222,0.3579991161823272,9.806586265563965,2.5378072261810303,0.772294819355011,0.0726932063698768
3834153848.0,-0.7230474352836609,0.5466768145561218,9.807406425476074,2.9582390785217285,0.3243786692619324,0.1109352484345436
3834162181.0,-0.6445435285568237,0.4323481023311615,10.052881240844728,2.971405029296875,0.2044784426689148,0.075357086956501
3834170514.0,-0.561155378818512,0.1995657682418823,9.96253776550293,2.416677713394165,0.2304000556468963,0.1054538115859031
3834178847.0,-0.5627925395965576,0.2306682467460632,9.573058128356934,2.305536985397339,0.3906170427799225,0.0770476162433624
3834187180.0,-0.6417219042778015,0.474879503250122,9.542470932006836,2.869588613510132,0.7626895308494568,0.1268672943115234
3834195513.0,-0.6384126543998718,0.5049248337745667,9.958171844482422,3.1515495777130127,1.0415003299713137,0.1358066797256469
3834203846.0,-0.6248863339424133,0.3039619922637939,10.225017547607422,2.682348251342773,0.9925516843795776,0.0527653247117996
3834212179.0,-0.6689321994781494,0.1868319511413574,9.94771671295166,2.150238037109375,0.7450156211853027,0.0742556527256965
3834220512.0,-0.7376198172569275,0.3463101685047149,9.61623477935791,2.5051746368408203,0.4713787734508514,0.0981793701648712
3834228845.0,-0.7187314629554749,0.4893131554126739,9.835895538330078,3.153855085372925,0.4617733955383301,0.0519456677138805
3834237178.0,-0.5784024000167847,0.3830727934837341,10.186537742614746,3.1318013668060303,0.2567314803600311,0.0129095735028386
3834245511.0,-0.5135520100593567,0.2482830286026001,10.03675365447998,2.345418691635132,0.0337083339691162,0.2247905433177948
3834253844.0,-0.5784185528755188,0.34675332903862,9.592867851257324,2.3238513469696045,0.373557984828949,0.1183633804321289
3834262177.0,-0.6700369715690613,0.4647508859634399,9.53085708618164,2.862826108932495,0.9614815711975098,0.1246644929051399
3834270510.0,-0.683790922164917,0.3698846101760864,9.97055435180664,3.241328001022339,1.0646302700042725,0.0930821374058723
3834278843.0,-0.6456934809684753,0.2043150663375854,10.18703842163086,2.6183125972747803,1.0310755968093872,0.0547120086848735
3834287176.0,-0.6966862678527832,0.2801471650600433,9.938226699829102,2.3931891918182373,0.7389194965362549,0.2313477993011474
3834295509.0,-0.7505260109901428,0.5127360224723816,9.797222137451172,2.79274582862854,0.5029099583625793,0.0293283015489578
3834303842.0,-0.682490885257721,0.5364618301391602,9.99499225616455,3.091433048248291,0.2341653257608413,0.0867297947406768
3834312175.0,-0.5776930451393127,0.2568953335285187,10.061476707458496,2.562371253967285,0.015189241617918,0.0963863730430603
3834320508.0,-0.5617579817771912,0.182317167520523,9.73788070678711,2.1998019218444824,0.1956415325403213,0.0234882552176713
3834328841.0,-0.6414159536361694,0.3770893812179565,9.497088432312012,2.6950533390045166,0.714790940284729,0.0512284711003303
3834337174.0,-0.6966404914855957,0.5531437397003174,9.81466579437256,3.217967987060547,1.0887075662612915,0.0920831859111785
3834345507.0,-0.6740636229515076,0.4180269539356231,10.207287788391112,3.0713775157928467,1.1680604219436646,0.0715917870402336
3834353840.0,-0.6716133952140808,0.2164927423000335,10.13155460357666,2.386554956436157,0.8225498795509338,0.1027130857110023
3834362173.0,-0.7180923819541931,0.2835713028907776,9.692649841308594,2.2069990634918213,0.5415617823600769,0.1378045827150344
3834370506.0,-0.7344107627868652,0.4542823135852813,9.65801239013672,2.923762321472168,0.3497623801231384,0.1048134490847587
3834378839.0,-0.6477879285812378,0.4261461496353149,10.008018493652344,3.132236957550049,0.2518391609191894,0.1059660837054252
3834387172.0,-0.5354734063148499,0.2696838676929474,10.126031875610352,2.5919814109802246,0.1618563532829284,0.1214627102017402
3834395505.0,-0.5581570863723755,0.3104262351989746,9.69564151763916,2.375361919403076,0.3131340146064758,0.1075797975063324
3834403838.0,-0.6557903289794922,0.4513837993144989,9.500332832336426,2.7233564853668213,0.6420208215713501,0.0444150827825069
3834412171.0,-0.6886845827102661,0.4432724118232727,9.82783031463623,3.21474027633667,1.0910639762878418,0.0743837431073188
3834420504.0,-0.6626961827278137,0.2438702583312988,10.132280349731444,2.738801956176758,1.041961431503296,-0.016866972669959
3834428837.0,-0.6483054757118225,0.2031210362911224,9.973570823669434,2.435170888900757,0.6731677055358887,0.07891745865345
3834437170.0,-0.7119536995887756,0.4381253123283386,9.729260444641112,2.7747902870178223,0.4448168575763702,0.0096565671265125
3834445503.0,-0.6661381721496582,0.5640376210212708,9.882240295410156,3.1135382652282715,0.4553698301315307,-0.0086191892623901
3834453836.0,-0.5693171620368958,0.3706135749816894,10.091425895690918,2.999427318572998,0.2113430649042129,-0.0199150685220956
3834462169.0,-0.528435468673706,0.1987345814704895,9.8818998336792,2.3051531314849854,0.2459478825330734,0.0872164666652679
3834470502.0,-0.5967584252357483,0.3071315586566925,9.559096336364746,2.4555599689483643,0.581058919429779,0.1172107458114624
3834478835.0,-0.6392251253128052,0.5368442535400391,9.639975547790527,3.101602077484131,0.8721902966499329,0.0373967811465263
3834487168.0,-0.6358508467674255,0.494611918926239,10.082489967346191,3.148693799972534,1.0905131101608276,0.1032381728291511
3834495501.0,-0.6091489195823669,0.2471412271261215,10.191675186157228,2.522003173828125,0.9585103392601012,0.0429294593632221
3834503834.0,-0.6792221665382385,0.2240651249885559,9.824191093444824,2.2540268898010254,0.7272137403488159,0.1472818404436111
3834512167.0,-0.7572445869445801,0.415859580039978,9.617807388305664,2.7138283252716064,0.6251410245895386,0.0538155101239681
3834520500.0,-0.669822633266449,0.4823935031890869,9.931110382080078,3.230876922607422,0.5740405917167664,0.074537418782711
3834528833.0,-0.5510848164558411,0.3317503929138183,10.242061614990234,2.8345484733581543,0.3947665989398956,0.0480523109436035
3834537166.0,-0.5029028058052063,0.2459561824798584,9.923636436462402,2.0651731491088867,0.1006639450788497,0.0808385238051414
3834545499.0,-0.5972912311553955,0.3744654953479767,9.509403228759766,2.2620441913604736,0.4724033176898956,0.0385238081216812
3834553832.0,-0.6553128957748413,0.4524450898170471,9.649810791015623,2.9750423431396484,0.7948867082595825,-0.0051100403070449
3834562165.0,-0.6684640645980835,0.3051059544086456,10.042162895202637,3.0999631881713867,1.1554325819015503,0.0481547601521015
3834570498.0,-0.675686776638031,0.1648467630147934,10.126585006713867,2.569478988647461,1.0949701070785522,0.1354864835739135
3834578831.0,-0.7206057906150818,0.3499576151371002,9.845022201538086,2.5767922401428223,0.7062100172042847,0.1940790712833404
3834587164.0,-0.7519477009773254,0.55263751745224,9.81481647491455,2.876657724380493,0.6122313737869263,0.2072191387414932
3834595497.0,-0.6596430540084839,0.4276284873485565,10.059216499328612,3.0387446880340576,0.3611863255500793,0.0660847276449203
3834603830.0,-0.5828203558921814,0.1982742995023727,10.015264511108398,2.348005533218384,0.1459499150514602,0.084398902952671
3834612163.0,-0.5658653378486633,0.1910287886857986,9.607556343078612,2.2745440006256104,0.2234585732221603,-0.0017033466137945
3834620496.0,-0.6448050737380981,0.448421448469162,9.507682800292969,2.791644096374512,0.6782904863357544,0.0265107322484254
3834628829.0,-0.6694605946540833,0.5403295159339905,9.901629447937012,3.3346407413482666,1.0002871751785278,0.15888512134552
3834637162.0,-0.6497617363929749,0.3513237237930298,10.21006965637207,2.761906147003174,1.1147571802139282,0.0682107135653495
3834645495.0,-0.6895267367362976,0.1672663390636444,9.949774742126465,2.1607913970947266,0.9230602979660034,0.2327053546905517
3834653828.0,-0.7376626133918762,0.318818598985672,9.59198760986328,2.3907558917999268,0.6504479050636292,0.1466927379369735
3834662161.0,-0.7340695261955261,0.4857634305953979,9.736212730407717,3.0281918048858643,0.479344755411148,0.0976158529520034
3834670494.0,-0.6135429739952087,0.3952402174472809,10.147988319396973,3.1458888053894043,0.2594977915287018,0.0404961071908474
3834678827.0,-0.5232651829719543,0.2550486028194427,10.115628242492676,2.4556877613067627,0.0508698709309101,0.0094516528770327
3834687160.0,-0.5780084133148193,0.2861172258853912,9.64943027496338,2.0944247245788574,0.106171004474163,0.0370381847023963
3834695493.0,-0.6744265556335449,0.4360654652118683,9.467482566833496,2.8635177612304688,0.5892811417579651,0.1295311748981475
3834703826.0,-0.6863452792167664,0.3945774137973785,9.866621017456056,3.115126848220825,1.0427556037902832,0.1779677122831344
3834712159.0,-0.6298658847808838,0.2132879197597503,10.157238960266112,2.80165958404541,1.2410866022109983,0.1472818553447723
3834720492.0,-0.6433570981025696,0.2425471693277359,9.93783950805664,2.35697078704834,0.7910956740379333,0.1565029621124267
3834728825.0,-0.7282350063323975,0.4973862469196319,9.762039184570312,2.757859230041504,0.4908968508243561,0.1037632673978805
3834737158.0,-0.6626907587051392,0.5583570599555969,9.911005973815918,3.0439186096191406,0.3029139339923858,0.0819911658763885
3834745491.0,-0.5792959332466125,0.3185350298881531,10.121047973632812,2.763622522354126,0.2190273255109787,0.1208735629916191
3834753824.0,-0.5312643051147461,0.1506390422582626,9.863900184631348,2.2464964389801025,0.1814768314361572,0.015214854851365
3834762157.0,-0.6146162748336792,0.3476352989673614,9.526554107666016,2.3854281902313232,0.608005166053772,0.1355249285697937
3834770490.0,-0.6717579364776611,0.5486336946487427,9.69867992401123,3.17864990234375,0.854772686958313,0.1279687285423278
3834778823.0,-0.6615413427352905,0.4995988309383392,10.171311378479004,3.208132028579712,1.120289921760559,0.0987428799271583
3834787156.0,-0.6387418508529663,0.2343683093786239,10.206167221069336,2.441241502761841,0.7762906551361084,0.0595274791121482
3834795489.0,-0.6634883284568787,0.2196990400552749,9.731738090515137,2.080746650695801,0.5056250095367432,0.1624198704957962
3834803822.0,-0.7494542598724365,0.437828779220581,9.580930709838867,2.7813475131988525,0.5013218522071838,0.0959765389561653
3834812155.0,-0.6515732407569885,0.4905273616313934,9.967461585998535,3.190790891647339,0.4546270668506622,0.0176482070237398
3834820488.0,-0.5464114546775818,0.3435606062412262,10.223541259765623,2.855397939682007,0.1957695931196212,0.0774062126874923
3834828821.0,-0.5267974138259888,0.2449810802936554,9.882539749145508,2.067452907562256,0.1914920061826706,0.1213602423667907
3834837154.0,-0.6214628219604492,0.3912706971168518,9.459988594055176,2.522669076919556,0.6044447422027588,0.0892399996519088
3834845487.0,-0.6874252557754517,0.4642006158828735,9.661879539489746,3.043201446533203,0.9913476705551147,0.1455657035112381
3834853820.0,-0.6576400399208069,0.3094931840896606,10.080031394958496,2.9858510494232178,1.146160125732422,0.0825802907347679
3834862153.0,-0.665415346622467,0.1855701357126236,10.131133079528809,2.5187246799468994,0.9177579879760742,0.0207219161093235
3834870486.0,-0.6845716834068298,0.3386633992195129,9.823945999145508,2.4829413890838623,0.5375146865844727,0.1551710218191146
3834878819.0,-0.7237799763679504,0.5717902183532715,9.76926326751709,2.9181017875671387,0.3664372563362121,0.1967941671609878
3834887152.0,-0.6432982683181763,0.4660656452178955,10.01735782623291,3.017023801803589,0.2547335922718048,0.1380351185798645
3834895485.0,-0.5690783262252808,0.2097284197807312,10.044665336608888,2.4685332775115967,0.2435529679059982,0.0201712120324373
3834903818.0,-0.5682289004325867,0.2236975133419037,9.636796951293944,2.1881215572357178,0.328784316778183,0.0316079631447792
3834912151.0,-0.6577299237251282,0.4538964629173279,9.535514831542969,2.8306803703308105,0.6372566223144531,0.178403154015541
3834920484.0,-0.690006673336029,0.5743008852005005,9.91817569732666,3.299882173538208,1.10917329788208,0.1443362236022949
3834928817.0,-0.6503037214279175,0.3511174321174621,10.227191925048828,2.817796468734741,0.9848417043685912,0.0253837071359157
3834937150.0,-0.6876543164253235,0.1612385511398315,9.972362518310549,2.2255184650421143,0.7940413355827332,0.0233345702290534
3834945483.0,-0.7397537231445312,0.3346496224403381,9.593378067016602,2.378000020980835,0.6677887439727783,0.060090996325016
3834953816.0,-0.7029345035552979,0.4956968128681183,9.766952514648438,3.1266016960144043,0.4653594195842743,0.1086811944842338
3834962149.0,-0.6154869198799133,0.4287141561508178,10.152315139770508,3.1201212406158447,0.2294779270887375,0.0760998949408531
3834970482.0,-0.512680172920227,0.2331888526678085,10.083375930786133,2.375438451766968,0.1005870997905731,0.1012018471956253
3834978815.0,-0.5921945571899414,0.2997976839542389,9.605061531066896,2.1553096771240234,0.2836264073848724,0.120796725153923
3834987148.0,-0.6789093017578125,0.4245119988918304,9.497218132019045,2.8128786087036133,0.7129466533660889,0.1950011700391769
3834995481.0,-0.677830159664154,0.4051146209239959,9.891312599182127,3.188742160797119,1.1466469764709473,0.2300414890050888
3835003814.0,-0.6465545892715454,0.2142033725976944,10.177486419677734,2.741671085357666,0.9604569673538208,0.0504088103771209
3835012147.0,-0.6517192721366882,0.2270370125770568,9.945441246032717,2.28448224067688,0.5943269729614258,0.125612199306488
3835020480.0,-0.7441312670707703,0.4606527686119079,9.734264373779297,2.746358156204224,0.3896949589252472,0.0827339813113212
3835028813.0,-0.6811236143112183,0.5335854887962341,9.884944915771484,3.061028957366944,0.3705867528915405,-0.0030352866742759
3835037146.0,-0.5697913765907288,0.2863345146179199,10.112518310546877,2.772817611694336,0.2900812029838562,0.0883178785443306
3835045479.0,-0.5210821032524109,0.1497751027345657,9.817667961120604,2.25966215133667,0.2833190858364105,0.0408034808933734
3835053812.0,-0.5787211656570435,0.3577473759651184,9.530916213989258,2.4477221965789795,0.4845701158046722,0.1498432755470276
3835062145.0,-0.6717150211334229,0.5398511290550232,9.682730674743652,3.075065851211548,0.9188082814216614,0.1550429761409759
3835070478.0,-0.6442806720733643,0.4705560505390167,10.154634475708008,3.0809059143066406,0.9853283166885376,0.0407266356050968
3835078811.0,-0.6472060680389404,0.2035954445600509,10.15224838256836,2.3082268238067627,0.794297456741333,0.0663664788007736
3835087144.0,-0.6972695589065552,0.2309056520462036,9.743874549865724,2.173931360244751,0.7090532183647156,0.2190273255109787
3835095477.0,-0.7731596827507019,0.4327422678470611,9.63862419128418,2.7853429317474365,0.5775753259658813,0.0544046312570571
3835103810.0,-0.6874034404754639,0.4875339567661285,9.967225074768066,3.255799531936645,0.5488105416297913,0.0681594759225845
3835112143.0,-0.5432476997375488,0.3027984499931335,10.191411972045898,2.720167875289917,0.2766209542751312,0.0419689267873764
3835120476.0,-0.5331172347068787,0.2450608760118484,9.834895133972168,2.2515170574188232,0.1300690919160843,0.0673910528421402
3835128809.0,-0.6371961236000061,0.4150326550006866,9.510370254516602,2.5437498092651367,0.5918169617652893,0.0883947312831878
3835137142.0,-0.6792954802513123,0.471411794424057,9.703474044799805,3.1285223960876465,0.8039283156394958,0.0150355556979775
3835145475.0,-0.664961040019989,0.312581866979599,10.11119270324707,3.063206434249878,1.140064001083374,0.0202864725142717
3835153808.0,-0.6604136824607849,0.1893811523914337,10.06862449645996,2.4254629611968994,1.0008761882781982,0.0225149113684892
3835162141.0,-0.7057889699935913,0.3577434420585632,9.732693672180176,2.473771810531616,0.7835907340049744,0.0958228558301925
3835170474.0,-0.7378734350204468,0.5525312423706055,9.83362865447998,3.014385461807251,0.5238367319107056,0.1312985867261886
3835178807.0,-0.6427433490753174,0.4412255585193634,10.092695236206056,2.912415266036988,0.3630817234516144,0.0505368821322917
3835187140.0,-0.5700799822807312,0.1896024048328399,10.008013725280762,2.346596956253052,0.2725610733032226,0.0933894962072372
3835195473.0,-0.575699508190155,0.2272946536540985,9.623595237731934,2.0958847999572754,0.3584199845790863,0.0824009925127029
3835203806.0,-0.6668615341186523,0.4643395245075226,9.540979385375977,2.8418736457824707,0.6804421544075012,0.2191553860902786
3835212139.0,-0.6697916984558105,0.5525769591331482,9.951104164123535,3.3479857444763184,0.926082730293274,0.0993576273322105
3835220472.0,-0.6366985440254211,0.3320618271827698,10.219143867492676,2.749841928482056,1.128383994102478,0.0423659458756446
3835228805.0,-0.6692565083503723,0.1884607523679733,9.955082893371582,2.2069737911224365,0.8884041905403137,0.1138808950781822
3835237138.0,-0.7442030310630798,0.3334636092185974,9.619662284851074,2.4696478843688965,0.6507552862167358,0.0065828580409288
3835245471.0,-0.7168015837669373,0.4951136410236358,9.757403373718262,3.1006288528442383,0.448146641254425,-0.0110525423660874
3835253804.0,-0.5733213424682617,0.3867274820804596,10.173334121704102,3.039999723434448,0.3199730515480041,-0.0022668598685413
3835262137.0,-0.5174382925033569,0.2293296456336975,10.067078590393066,2.319420099258423,0.0010245693847537,-0.0465538688004016
3835270470.0,-0.5913675427436829,0.3216866850852966,9.572650909423828,2.1933982372283936,0.2420801520347595,0.0905207172036171
3835278803.0,-0.6579960584640503,0.4690504372119903,9.539334297180176,2.8569350242614746,0.8533638715744019,0.0145744998008012
3835287136.0,-0.6614152193069458,0.4139039218425751,9.961613655090332,3.214740514755249,1.0929081439971924,0.0751265585422515
3835295469.0,-0.6391889452934265,0.1760466396808624,10.159782409667969,2.615853786468506,1.0447534322738647,0.0673654451966285
3835303802.0,-0.6467478275299072,0.2074231952428817,9.874674797058104,2.266424655914306,0.7917103171348572,0.1198746263980865
3835312135.0,-0.7172455787658691,0.4682911336421966,9.699945449829102,2.63519287109375,0.4865936636924743,0.107426106929779
3835320468.0,-0.6751055717468262,0.5486557483673096,9.929436683654783,3.150550603866577,0.2297596931457519,0.0582723803818225
3835328801.0,-0.5899296402931213,0.3379682302474975,10.130281448364258,2.838876724243164,0.1989713758230209,0.156016319990158
3835337134.0,-0.5521803498268127,0.1594182252883911,9.88463020324707,2.13930082321167,0.2493289560079574,0.0532007627189159
3835345467.0,-0.6236867904663086,0.3135450482368469,9.520089149475098,2.4738993644714355,0.6323385834693909,0.1610110849142074
3835353800.0,-0.6897815465927124,0.537352442741394,9.675259590148926,3.134183406829834,0.9137366414070128,0.1953853815793991
3835362133.0,-0.6761571764945984,0.4520799517631531,10.191835403442385,3.086515426635742,1.2297139167785645,0.0491281040012836
3835370466.0,-0.6222228407859802,0.2085673063993454,10.214922904968262,2.381432056427002,0.9099713563919068,0.1100131347775459
3835378799.0,-0.6744183301925659,0.232559859752655,9.758191108703612,2.1625328063964844,0.6582345366477966,0.0746398717164993
3835387132.0,-0.728245735168457,0.435579240322113,9.58644199371338,2.7209489345550537,0.5219412446022034,0.0770476162433624
3835395465.0,-0.6672775745391846,0.5082151293754578,9.914861679077148,3.179469347000122,0.4406160414218902,0.0259984489530324
3835403798.0,-0.547555148601532,0.3010739386081695,10.205056190490724,2.717081546783448,0.4102888405323028,0.0299174301326274
3835412131.0,-0.5430282354354858,0.2030354887247085,9.853554725646973,2.1283891201019287,0.2690519094467163,0.0620120614767074
3835420464.0,-0.6465066075325012,0.3974249958992004,9.47432804107666,2.476691484451294,0.5302402377128601,0.0751777738332748
3835428797.0,-0.7092573046684265,0.5012372732162476,9.68870735168457,3.073913335800171,1.0604292154312134,0.1390596777200698
3835437130.0,-0.6903271675109863,0.3194439113140106,10.14370059967041,2.978448867797852,1.124029517173767,0.0124741327017545
3835445463.0,-0.6569592952728271,0.1489649266004562,10.143954277038574,2.451794385910034,0.920114517211914,0.044466309249401
3835453796.0,-0.7008264660835266,0.3222063481807709,9.744952201843262,2.3036930561065674,0.5204043984413147,0.0874982252717018
3835462129.0,-0.7130530476570129,0.5434315800666809,9.74490451812744,2.9937660694122314,0.4140540659427643,0.1981517076492309
3835470462.0,-0.6539182662963867,0.4824288189411163,9.998478889465332,3.179648399353028,0.2847790420055389,0.0482059866189956
3835478795.0,-0.5650185942649841,0.227585881948471,10.07681655883789,2.5011277198791504,0.2003289461135864,0.085039272904396
3835487128.0,-0.5473344922065735,0.1799872666597366,9.682140350341797,2.0958590507507324,0.4353651404380798,0.1903137564659118
3835495461.0,-0.6532533168792725,0.4329456090927124,9.472671508789062,2.651021957397461,0.7386120557785034,0.2326028645038604
3835503794.0,-0.662675678730011,0.5512314438819885,9.88171672821045,3.19447922706604,1.205585241317749,0.1484088897705078
