SampleTimeFine,Acc_X,Acc_Y,Acc_Z,Gyr_X,Gyr_Y,Gyr_Z
3827662441.0,0.0,0.0,0.0,0.0,0.0,0.0
3827670774.0,-0.6556548476219177,0.2590239346027374,9.67857551574707,1.5494818687438965,1.459140419960022,0.530624508857727
3827679107.0,-0.6661331653594971,0.2402811050415039,9.813349723815918,1.420770525932312,1.2446725368499756,0.3718418478965759
3827687440.0,-0.7215266227722168,0.5025570392608643,10.011029243469238,1.6067041158676147,0.962634265422821,0.5508084893226624
3827695773.0,-0.6908419132232666,0.6091768741607666,9.868998527526855,1.8674825429916384,0.9735458493232728,0.4977613985538482
3827704106.0,-0.6197472214698792,0.4319696426391601,9.5823335647583,1.6032462120056152,0.8622519373893738,0.5865403413772583
3827712439.0,-0.5757538080215454,0.212518110871315,9.593056678771973,1.2247191667556765,0.9481109380722046,0.4585461020469665
3827720772.0,-0.6035785675048828,0.3623414635658264,9.90902042388916,1.1694434881210327,0.971471071243286,0.5530369281768799
3827729105.0,-0.6696963906288147,0.5769082307815552,10.021517753601074,1.8214536905288696,1.1843509674072266,0.4966599941253662
3827737438.0,-0.654256284236908,0.5625614523887634,9.70826816558838,1.966379284858704,1.357708215713501,0.5387698411941528
3827745771.0,-0.6548789739608765,0.3101773262023926,9.517126083374023,1.473766207695007,1.5087296962738037,0.5280119180679321
3827754104.0,-0.7133699059486389,0.2859111726284027,9.74417495727539,0.9890936613082886,1.4390076398849487,0.4145151376724243
3827762437.0,-0.742862343788147,0.4558213949203491,10.084357261657717,1.4058372974395752,1.4180039167404177,0.4950975179672241
3827770770.0,-0.7017428278923035,0.5433845520019531,9.98205280303955,1.9560567140579224,1.265932321548462,0.4968137145042419
3827779103.0,-0.6244208812713623,0.3722589612007141,9.68640422821045,1.7867721319198608,0.8966006636619568,0.4615428745746612
3827787436.0,-0.5920978784561157,0.2898189127445221,9.622396469116213,1.2524592876434326,0.7067736387252808,0.4146175980567932
3827795769.0,-0.6401005387306213,0.4272322356700897,9.807490348815918,1.2549949884414673,0.7880988121032715,0.5716584920883179
3827804102.0,-0.7063290476799011,0.5036118030548096,9.847169876098633,1.5647480487823486,1.2555586099624634,0.5921755433082581
3827812435.0,-0.6492430567741394,0.3567055165767669,9.670248985290527,1.756239891052246,1.65035080909729,0.4291408658027649
3827820768.0,-0.6978358626365662,0.2012327909469604,9.731290817260742,1.4734076261520386,1.6396695375442505,0.4769370257854461
3827829101.0,-0.7164548635482788,0.3446365892887115,9.945853233337402,1.5261216163635254,1.2951325178146362,0.5094926953315735
3827837434.0,-0.7456262111663818,0.6019116044044495,10.005017280578612,1.84878408908844,1.1941355466842651,0.5896909236907959
3827845767.0,-0.6880249381065369,0.4990957677364349,9.72641372680664,1.926882028579712,1.0276174545288086,0.4718654453754425
3827854100.0,-0.6097012162208557,0.2379614263772964,9.496844291687012,1.4602930545806885,0.8792598247528076,0.4892831146717071
3827862433.0,-0.6153519153594971,0.2473596185445785,9.740827560424805,1.1836081743240356,1.0106096267700195,0.4502213597297668
3827870766.0,-0.6919551491737366,0.4879830479621887,10.015650749206545,1.5577808618545532,1.1402688026428225,0.4683818817138672
3827879099.0,-0.682214617729187,0.6025571227073669,9.873993873596191,1.9651753902435305,1.2967463731765747,0.4206113815307617
3827887432.0,-0.6528035402297974,0.4041737020015716,9.571561813354492,1.6570616960525513,1.4715120792388916,0.4767321050167084
3827895765.0,-0.6753903031349182,0.2582825720310211,9.640238761901855,1.1615031957626345,1.4950517416000366,0.4795753359794616
3827904098.0,-0.7383766174316406,0.3735288381576538,9.96287727355957,1.1754884719848633,1.281070351600647,0.469047874212265
3827912431.0,-0.7446579337120056,0.5445429086685181,10.055130004882812,1.7361072301864624,1.1273592710494995,0.6054436564445496
3827920764.0,-0.6349729299545288,0.450679212808609,9.775067329406738,1.958746075630188,0.9247251152992249,0.4640787541866302
3827929097.0,-0.5604410767555237,0.2948047518730163,9.60288143157959,1.4807333946228027,0.7712447047233582,0.4537818133831024
3827937430.0,-0.607533872127533,0.3882420063018799,9.755948066711426,1.1403456926345823,0.8944746255874634,0.6087222695350647
3827945763.0,-0.6745535135269165,0.516366720199585,9.891522407531738,1.4067593812942505,1.1089682579040527,0.5452246069908142
3827954096.0,-0.6869950294494629,0.4399556815624237,9.731563568115234,1.7479411363601685,1.5905673503875732,0.5257065892219543
3827962429.0,-0.6578248739242554,0.2302447110414505,9.619972229003906,1.6365190744400024,1.5175154209136963,0.4917164146900177
3827970762.0,-0.700352132320404,0.2722940742969513,9.819860458374023,1.1933672428131104,1.341520071029663,0.5240160226821899
3827979095.0,-0.7329590916633606,0.5218374133110046,10.039961814880373,1.5567562580108645,1.0769505500793457,0.5531650185585022
3827987428.0,-0.6955820918083191,0.5966730117797852,9.884801864624023,1.869301080703736,0.906590223312378,0.5363108515739441
3827995761.0,-0.5991894006729126,0.3475136756896972,9.593626976013184,1.5209219455718994,0.8773643970489502,0.4848005771636963
3828004094.0,-0.575539231300354,0.2078687697649002,9.655572891235352,1.070341944694519,0.8716779947280884,0.596453070640564
3828012427.0,-0.6326974034309387,0.3917113244533539,9.95512580871582,1.1007972955703735,0.9159649610519408,0.5190468430519104
3828020760.0,-0.670835018157959,0.5938005447387695,9.983406066894531,1.849936962127685,1.0548964738845823,0.5521147847175598
3828029093.0,-0.6730697154998779,0.5173521637916565,9.692246437072754,1.811848402023316,1.2145758867263794,0.5456088185310364
3828037426.0,-0.6739948987960815,0.2729786038398742,9.529380798339844,1.1530760526657104,1.3441838026046753,0.5819553732872009
3828045759.0,-0.7329804301261902,0.3050544559955597,9.845687866210938,0.8364583849906921,1.1748992204666138,0.5554702281951904
3828054092.0,-0.7701930999755859,0.4800391793251037,10.10877513885498,1.374741554260254,1.012786865234375,0.5936354994773865
3828062425.0,-0.7020779252052307,0.5061043500900269,9.916680335998535,1.8201730251312256,0.845090389251709,0.5362083315849304
3828070758.0,-0.5881353616714478,0.3153115808963775,9.607282638549805,1.56431245803833,0.582877516746521,0.4386438131332397
3828079091.0,-0.5846658945083618,0.2676379978656769,9.602690696716309,0.9886069297790528,0.4782177209854126,0.5032428503036499
3828087424.0,-0.6925883293151855,0.4096075594425201,9.83665370941162,1.1512317657470703,0.6938128471374512,0.6291112303733826
3828095757.0,-0.6926847696304321,0.4577819406986236,9.820477485656738,1.601453185081482,1.0122745037078855,0.6351305246353149
3828104090.0,-0.6930515766143799,0.2977726459503174,9.64363956451416,1.6854678392410278,1.1931110620498655,0.5901007056236267
3828112423.0,-0.6914764046669006,0.1896273791790008,9.653644561767578,1.3876256942749023,1.2044326066970823,0.6173543930053711
3828120756.0,-0.7296122312545776,0.4033181071281433,9.948654174804688,1.226768136024475,1.006178379058838,0.7650971412658691
3828129089.0,-0.7403070330619812,0.5575530529022217,10.001266479492188,1.7392576932907104,0.6136914491653442,0.6034457683563232
3828137422.0,-0.6496096849441528,0.4501227438449859,9.72675609588623,1.9061346054077148,0.4752977192401886,0.496916115283966
3828145755.0,-0.5726711750030518,0.2353571355342865,9.579989433288574,1.290855050086975,0.3159003257751465,0.5578780770301819
3828154088.0,-0.6036216020584106,0.2913924157619476,9.765605926513672,0.9696011543273926,0.4773212075233459,0.5788561105728149
3828162421.0,-0.6806936264038086,0.499979168176651,9.937878608703612,1.5665922164916992,0.5941733717918396,0.6068524718284607
3828170754.0,-0.6502922177314758,0.5691947937011719,9.789995193481444,1.894249677658081,0.8723697066307068,0.5667662024497986
3828179087.0,-0.637432873249054,0.355739027261734,9.599246978759766,1.6023752689361572,1.1078156232833862,0.7751123309135437
3828187420.0,-0.6846343874931335,0.2456643879413604,9.693275451660156,0.9167335033416748,1.0134527683258057,0.6704525351524353
3828195753.0,-0.7416999936103821,0.4088921248912811,10.012993812561035,1.0285907983779907,0.7843591570854187,0.6307505369186401
3828204086.0,-0.6799758076667786,0.5450974106788635,10.022794723510742,1.7122859954833984,0.8235488533973694,0.544994056224823
3828212419.0,-0.5735609531402588,0.4430267512798309,9.804325103759766,1.7862086296081543,0.4136954545974731,0.5968884825706482
3828220752.0,-0.5308051109313965,0.3343954384326935,9.647504806518556,1.2179824113845823,0.2625971436500549,0.5349020957946777
3828229085.0,-0.5773846507072449,0.4306154549121856,9.78189182281494,1.0312033891677856,0.5215058326721191,0.6513699889183044
3828237418.0,-0.6167967915534973,0.4976018369197845,9.90386199951172,1.2715160846710205,0.7157129049301147,0.6885362863540649
3828245751.0,-0.5991436839103699,0.4454817473888397,9.771034240722656,1.7360559701919556,1.086350917816162,0.5272690057754517
3828254084.0,-0.5866027474403381,0.2690158784389496,9.67778205871582,1.612313747406006,1.3041489124298096,0.4866448938846588
3828262417.0,-0.6564885973930359,0.3665857315063476,9.84980010986328,1.2777917385101318,1.2858601808547974,0.5180478692054749
3828270750.0,-0.6909404397010803,0.5842778086662292,9.976062774658203,1.6213810443878174,1.250333309173584,0.5343385338783264
3828279083.0,-0.656866729259491,0.5985127091407776,9.859688758850098,1.823041915893555,1.0555882453918457,0.5460442304611206
3828287416.0,-0.5836419463157654,0.3826571106910705,9.631723403930664,1.4137264490127563,0.8498802781105042,0.4187671244144439
3828295749.0,-0.5857963562011719,0.2787105143070221,9.70242404937744,1.0465463399887085,0.7263684272766113,0.4768345654010772
3828304082.0,-0.6236206293106079,0.4279045164585113,9.899662971496582,1.236757755279541,0.6455042958259583,0.5727598667144775
3828312415.0,-0.673007071018219,0.5862703323364258,9.853312492370604,1.8937371969223025,0.975415587425232,0.5019621253013611
3828320748.0,-0.6314006447792053,0.484029084444046,9.619747161865234,1.8478366136550903,1.2385252714157104,0.4647190868854522
3828329081.0,-0.6451658606529236,0.3055106997489929,9.526132583618164,1.2433149814605713,1.659034013748169,0.479344755411148
3828337414.0,-0.7097970247268677,0.3254160583019256,9.769390106201172,1.008944749832153,1.548892855644226,0.5832617878913879
3828345747.0,-0.744685709476471,0.482287734746933,10.011208534240724,1.5527862310409546,1.4734588861465454,0.5826214551925659
3828354080.0,-0.6890096664428711,0.4766545593738556,9.833352088928224,1.9308778047561648,1.1549201011657717,0.433444082736969
3828362413.0,-0.5791497826576233,0.2919939756393432,9.611458778381348,1.5066804885864258,0.7225518822669983,0.4629516005516052
3828370746.0,-0.6143575310707092,0.312972754240036,9.658347129821776,1.1324820518493652,0.6353611350059509,0.5442256927490234
3828379079.0,-0.659878671169281,0.435429185628891,9.793981552124023,1.2406511306762695,0.9033116102218628,0.657363772392273
3828387412.0,-0.6708159446716309,0.4427003264427185,9.789422988891602,1.8062645196914675,1.2876275777816772,0.5643584728240967
3828395745.0,-0.6469414830207825,0.276887983083725,9.608173370361328,1.7267837524414062,1.5807826519012451,0.5378989577293396
3828404078.0,-0.6735355257987976,0.1852956414222717,9.690329551696776,1.3545576333999634,1.733161449432373,0.5181759595870972
3828412411.0,-0.7200432419776917,0.3604737222194671,9.955832481384276,1.3622673749923706,1.4598320722579956,0.5896652936935425
3828420744.0,-0.697260320186615,0.5398024320602417,9.97702693939209,1.8342609405517576,1.2127571105957031,0.5639742016792297
3828429077.0,-0.6340349912643433,0.4048101305961609,9.702960014343262,1.8668678998947144,0.9758511185646056,0.4743243455886841
3828437410.0,-0.5821911692619324,0.1661248654127121,9.556060791015623,1.2348365783691406,0.8026732206344604,0.4682537615299225
3828445743.0,-0.5733218193054199,0.2405000329017639,9.8287353515625,1.0746452808380127,0.8216022253036499,0.5075460076332092
3828454076.0,-0.6221142411231995,0.4672845900058746,9.985868453979492,1.7447904348373413,1.105843424797058,0.4343661665916443
3828462409.0,-0.6188538074493408,0.5100436806678772,9.787232398986816,2.0646867752075195,1.3452085256576538,0.3788089752197265
3828470742.0,-0.6315290331840515,0.2713456451892853,9.55568790435791,1.621893286705017,1.619152545928955,0.4699699580669403
3828479075.0,-0.6889342665672302,0.1852270662784576,9.73455047607422,1.101847529411316,1.6602377891540527,0.4004273116588592
3828487408.0,-0.7450157999992371,0.3476380705833435,10.09287452697754,1.461163878440857,1.4603698253631592,0.4806254804134369
3828495741.0,-0.7031316757202148,0.5020647048950195,10.038592338562012,2.045450448989868,1.153101682662964,0.5229914784431458
3828504074.0,-0.5775973796844482,0.3856404721736908,9.696330070495604,2.085101366043091,0.7229106426239014,0.4199454188346863
3828512407.0,-0.5557904243469238,0.2567012012004852,9.574481964111328,1.3595266342163086,0.6096956133842468,0.4904101490974426
3828520740.0,-0.6051517724990845,0.3452678322792053,9.780196189880373,1.095776915550232,0.6162273287773132,0.4523218274116516
3828529073.0,-0.6575036644935608,0.4687420725822449,9.869004249572754,1.6448179483413696,1.01422119140625,0.3860833346843719
3828537406.0,-0.6375914216041565,0.4042966663837433,9.72419261932373,1.999677658081055,1.5468181371688845,0.4468915462493896
3828545739.0,-0.6123217344284058,0.2330980896949768,9.663004875183104,1.784415602684021,1.7532172203063965,0.5673040747642517
3828554072.0,-0.6616036891937256,0.3468627333641052,9.889837265014648,1.3763811588287354,1.5837793350219729,0.489795446395874
3828562405.0,-0.6899726390838623,0.5833083987236023,10.045459747314451,1.7966080904006958,1.293441891670227,0.3701000511646271
3828570738.0,-0.6599151492118835,0.5661268830299377,9.86964225769043,1.968172192573548,0.939453125,0.4117487668991089
3828579071.0,-0.5790935158729553,0.3369556367397308,9.554978370666504,1.6421284675598145,0.9590225219726562,0.4581874012947082
3828587404.0,-0.5681646466255188,0.2168026715517044,9.654128074645996,1.1652685403823853,0.8511353731155396,0.4257598519325256
3828595737.0,-0.6382675170898438,0.4859144687652588,9.942049980163574,1.521203637123108,1.1913179159164429,0.5624886155128479
3828604070.0,-0.6616907119750977,0.6563711762428284,9.922837257385254,2.1561293601989746,1.4268407821655271,0.5822883248329163
3828612403.0,-0.6369326114654541,0.5155719518661499,9.602638244628906,2.0165576934814453,1.7990412712097168,0.5007070302963257
3828620736.0,-0.6573286652565002,0.2804005146026611,9.566900253295898,1.3092973232269287,1.8422268629074097,0.5605674982070923
3828629069.0,-0.7031474113464355,0.3363979160785675,9.91479206085205,0.988965630531311,1.7190992832183838,0.5470688343048096
3828637402.0,-0.728236198425293,0.5072168111801147,10.119027137756348,1.7823408842086792,1.2203389406204224,0.4776798486709595
3828645735.0,-0.6283981204032898,0.5387668013572693,9.860296249389648,2.2283360958099365,0.8969593644142151,0.4283725023269653
3828654068.0,-0.5647000670433044,0.4044122397899627,9.565168380737305,1.741563081741333,0.8479079604148865,0.5162805318832397
3828662401.0,-0.5784003138542175,0.3672484159469604,9.62236213684082,1.0443947315216064,0.9690889120101928,0.4466609954833984
3828670734.0,-0.6351869106292725,0.5222805142402649,9.851729393005373,1.2367576360702517,1.2680326700210571,0.3732505738735199
3828679067.0,-0.6709077954292297,0.5226321816444397,9.81233024597168,1.8790346384048464,1.6190502643585205,0.5315210223197937
3828687400.0,-0.6423023343086243,0.3337808549404144,9.619865417480469,1.7747844457626345,1.8762940168380733,0.4241717159748077
3828695733.0,-0.6571727395057678,0.246033176779747,9.704678535461426,1.2647796869277954,1.672737717628479,0.4024764895439148
3828704066.0,-0.7457258701324463,0.4574215114116668,10.022204399108888,1.3857556581497192,1.465339183807373,0.4586741030216217
3828712399.0,-0.7189713716506958,0.6092727780342102,10.008420944213867,1.788437008857727,1.194263577461243,0.4236082136631012
3828720732.0,-0.6330650448799133,0.4468713998794555,9.686151504516602,1.865203022956848,1.045931696891785,0.4040389657020569
3828729065.0,-0.5650314688682556,0.2493839412927627,9.57284164428711,1.2477205991744995,1.0039756298065186,0.4073944389820099
3828737398.0,-0.5898593664169312,0.2975438237190246,9.797699928283691,0.939632534980774,0.9948312640190125,0.5479909181594849
3828745731.0,-0.6371444463729858,0.5316570997238159,9.977364540100098,1.531551957130432,1.1769227981567385,0.5872319340705872
3828754064.0,-0.6537469029426575,0.5135981440544128,9.782686233520508,1.9111804962158203,1.6180769205093384,0.5385136604309082
3828762397.0,-0.6397671103477478,0.3085829019546509,9.563840866088867,1.4727158546447754,1.764769434928894,0.4938680529594421
3828770730.0,-0.6931530833244324,0.2338906079530716,9.757097244262695,0.9571527242660522,1.5983537435531616,0.5058298707008362
3828779063.0,-0.7476232051849365,0.4033026695251465,10.020330429077148,1.2700051069259644,1.4400067329406738,0.4463793039321899
3828787396.0,-0.6933398246765137,0.4768383800983429,10.04375171661377,1.7231464385986328,0.9569478034973145,0.4677415490150451
3828795729.0,-0.5909525752067566,0.3468515872955322,9.71422290802002,1.6656426191329956,0.7878938913345337,0.4925361573696136
3828804062.0,-0.5452824831008911,0.2181116938591003,9.62444305419922,1.1353764533996582,0.407343178987503,0.5360547304153442
3828812395.0,-0.6411736607551575,0.3825411796569824,9.801104545593262,0.9590993523597716,0.5514488220214844,0.5748602747917175
3828820728.0,-0.6953593492507935,0.4629996418952942,9.851947784423828,1.507064700126648,1.074850082397461,0.5758591890335083
3828829061.0,-0.6482724547386169,0.3336080908775329,9.691849708557127,1.717126965522766,1.4817577600479126,0.5105941295623779
3828837394.0,-0.6513945460319519,0.2094380408525467,9.64703369140625,1.3793264627456665,1.4628032445907593,0.4562407433986664
3828845727.0,-0.7305974960327148,0.326000452041626,9.898354530334473,1.2228492498397827,1.3105781078338623,0.5592100024223328
3828854060.0,-0.7446271777153015,0.4805646538734436,9.995027542114258,1.664387345314026,1.0583546161651611,0.5655623078346252
3828862393.0,-0.6530707478523254,0.464188277721405,9.747726440429688,1.8345940113067627,0.8073349595069885,0.4758612513542175
3828870726.0,-0.5770341753959656,0.2315303683280944,9.549195289611816,1.4813480377197266,0.4656411707401275,0.4995799958705902
3828879059.0,-0.6367100477218628,0.2449348866939544,9.695262908935549,1.1037685871124268,0.6260631084442139,0.6548792123794556
3828887392.0,-0.6749495267868042,0.4558484256267547,9.918889999389648,1.4160573482513428,0.9259546399116516,0.4113902449607849
3828895725.0,-0.6583621501922607,0.566474437713623,9.916990280151367,1.766229510307312,1.3121404647827148,0.5620019435882568
3828904058.0,-0.6190754771232605,0.3977808058261871,9.647547721862791,1.6562676429748535,1.3620880842208862,0.3922563791275024
3828912391.0,-0.6565960049629211,0.2935085296630859,9.695369720458984,1.0835076570510864,1.2794309854507446,0.552345335483551
3828920724.0,-0.7108280658721924,0.4008882343769073,9.985082626342772,1.0043340921401978,1.189115285873413,0.4867473542690277
3828929057.0,-0.6781322360038757,0.5124576091766357,10.031618118286133,1.5494307279586792,0.8887627720832825,0.5237086415290833
3828937390.0,-0.5885926485061646,0.4311188161373138,9.80070686340332,1.8078527450561523,0.6412011384963989,0.5844143033027649
3828945723.0,-0.5312702655792236,0.2989459037780761,9.62209701538086,1.2216964960098269,0.576806902885437,0.578907310962677
3828954056.0,-0.5946873426437378,0.3772123157978058,9.741063117980955,1.03079354763031,0.811663806438446,0.554445743560791
3828962389.0,-0.6675881147384644,0.4282384514808655,9.860316276550291,1.277458667755127,1.018703579902649,0.5141288638114929
3828970722.0,-0.6541429758071899,0.3261797130107879,9.753183364868164,1.7110822200775146,1.3766628503799438,0.4578800797462463
3828979055.0,-0.6114292740821838,0.2032157331705093,9.684948921203612,1.718894362449646,1.4829617738723757,0.6102334856987
3828987388.0,-0.620563805103302,0.3125679790973663,9.848174095153809,1.4998927116394043,1.410191535949707,0.4426651895046234
3828995721.0,-0.6520400643348694,0.5331034064292908,10.026378631591797,1.6464062929153442,1.241726994514465,0.4719423353672027
3829004054.0,-0.5928841233253479,0.5317159295082092,9.866620063781738,1.849168300628662,1.035301685333252,0.4111596643924713
3829012387.0,-0.5636841058731079,0.3360114991664886,9.613884925842283,1.5555270910263062,0.8754433989524841,0.4536281526088714
3829020720.0,-0.5873270630836487,0.253797173500061,9.61073112487793,1.0967758893966677,0.8906837105751038,0.5511415004730225
3829029053.0,-0.6733325123786926,0.4400286674499511,9.873642921447754,1.3810425996780396,1.255942702293396,0.5667661428451538
3829037386.0,-0.6680325269699097,0.5751427412033081,9.850777626037598,1.9473990201950075,1.4740992784500122,0.4699956178665161
3829045719.0,-0.6490706205368042,0.4736106991767883,9.62253475189209,1.900627374649048,1.6873891353607178,0.5998854041099548
3829054052.0,-0.6545169949531555,0.3283319771289825,9.648404121398926,1.1466213464736938,1.5248411893844604,0.5137191414833069
3829062385.0,-0.6878957748413086,0.3803982436656952,9.935358047485352,0.9392739534378052,1.3190817832946775,0.5469663739204407
3829070718.0,-0.711044192314148,0.4451546967029571,10.012280464172363,1.4481520652770996,1.0509521961212158,0.5471969246864319
3829079051.0,-0.5890886187553406,0.4335368573665619,9.837445259094238,1.7871307134628296,0.7104876041412354,0.4991189539432525
3829087384.0,-0.5036459565162659,0.3462762832641601,9.619586944580078,1.4352935552597046,0.6044958829879761,0.4711225628852844
3829095717.0,-0.5740516781806946,0.3794725239276886,9.64763355255127,1.1201106309890747,0.6773428916931152,0.5638205409049988
3829104050.0,-0.6310391426086426,0.4567060470581054,9.734695434570312,1.3067357540130615,1.2646260261535645,0.5081095695495605
3829112383.0,-0.6737396717071533,0.3540917038917541,9.72174835205078,1.6932801008224487,1.7198933362960815,0.5387442111968994
3829120716.0,-0.6458461880683899,0.1674073487520218,9.7006254196167,1.557729721069336,1.917711973190308,0.4911529421806335
3829129049.0,-0.6800106763839722,0.1787724643945694,9.847227096557615,1.333861231803894,1.5017881393432615,0.4997080564498901
3829137382.0,-0.7196241617202759,0.4301923811435699,10.000372886657717,1.7125933170318604,1.329404354095459,0.5450965166091919
3829145715.0,-0.6746214628219604,0.5030813813209534,9.877069473266602,1.8655872344970703,0.9944470524787904,0.4675878286361694
3829154048.0,-0.5757848620414734,0.3461594879627228,9.690288543701172,1.7305232286453247,0.6678399443626404,0.4159239530563354
3829162381.0,-0.5684080123901367,0.22992804646492,9.652268409729004,1.1809699535369873,0.6924808025360107,0.4535768628120422
3829170714.0,-0.6152644157409668,0.3830407559871673,9.86305809020996,1.4076558351516724,1.0278480052947998,0.4917677044868469
3829179047.0,-0.6506168842315674,0.5601853728294373,9.932488441467283,1.845172643661499,1.4769166707992554,0.3937676250934601
3829187380.0,-0.6337656378746033,0.5404484868049622,9.738821983337402,1.9597196578979488,1.678065538406372,0.5420997142791748
3829195713.0,-0.6463509202003479,0.314945787191391,9.657355308532717,1.3378058671951294,1.652937650680542,0.5438158512115479
3829204046.0,-0.7163718342781067,0.2784662842750549,9.860879898071287,0.9363539814949036,1.5366235971450806,0.5207117795944214
3829212379.0,-0.7717334032058716,0.3973970413208008,10.042362213134766,1.5670276880264282,1.2599642276763916,0.530624508857727
3829220712.0,-0.6631173491477966,0.4094483852386474,9.879578590393066,2.03735613822937,1.019267201423645,0.4601341187953949
3829229045.0,-0.5557895302772522,0.3070599138736725,9.610280990600586,1.7486580610275269,0.7675560712814331,0.4781152606010437
3829237378.0,-0.5879565477371216,0.265663743019104,9.572936058044434,1.1064836978912354,0.614485502243042,0.4819318056106567
3829245711.0,-0.6474996209144592,0.4419967532157898,9.78656768798828,1.2969257831573486,1.05996835231781,0.5276532769203186
3829254044.0,-0.6739266514778137,0.4745711386203766,9.767926216125488,1.825449824333191,1.53116774559021,0.4745805561542511
3829262377.0,-0.6542966365814209,0.356550931930542,9.660445213317873,1.8951202630996704,1.801961660385132,0.5685079097747803
3829270710.0,-0.6717447638511658,0.3185258507728576,9.761183738708496,1.4422351121902466,1.8391791582107544,0.4544990360736847
3829279043.0,-0.7203751802444458,0.4888229966163635,10.031588554382324,1.345976710319519,1.4602417945861816,0.519507884979248
3829287376.0,-0.6862410306930542,0.5808262825012207,9.971885681152344,1.701861023902893,1.0365567207336426,0.5185858011245728
3829295709.0,-0.616014301776886,0.3557162284851074,9.61383056640625,1.6387220621109009,0.6877166628837585,0.4891294240951538
3829304042.0,-0.5742231011390686,0.1191019862890243,9.453862190246582,1.3088617324829102,0.6633061766624451,0.4847493767738342
3829312375.0,-0.6146995425224304,0.2078264951705932,9.688156127929688,1.3424932956695557,1.061889410018921,0.5423046350479126
3829320708.0,-0.6452871561050415,0.4055566489696502,9.799238204956056,2.0019571781158447,1.413496017456055,0.4531158804893493
3829329041.0,-0.6385917663574219,0.4224859774112701,9.662830352783203,2.227823495864868,1.79737651348114,0.3946384787559509
3829337374.0,-0.6462042927742004,0.2952545583248138,9.578553199768066,1.6913591623306274,1.936410546302796,0.4311644434928894
3829345707.0,-0.6695407629013062,0.2755663990974426,9.765669822692873,1.3440046310424805,1.594358205795288,0.5097489356994629
3829354040.0,-0.7154127359390259,0.4399634301662445,10.039573669433594,1.6069600582122805,1.010353446006775,0.5766531825065613
3829362373.0,-0.6508846879005432,0.5402681231498718,9.96019172668457,2.131411552429199,0.6529836654663086,0.5423301458358765
3829370706.0,-0.5524247288703918,0.5023488998413086,9.722407341003418,1.8490402698516848,0.4918189346790313,0.3130059242248535
3829379039.0,-0.5038033127784729,0.5274220108985901,9.719304084777832,1.2833243608474731,0.5438927412033081,0.5071618556976318
3829387372.0,-0.5758112072944641,0.6555293202400208,9.89894199371338,1.1727732419967651,1.034456491470337,0.3852124512195587
3829395705.0,-0.641545295715332,0.6315544247627258,9.91959285736084,1.4109344482421875,1.5932053327560425,0.5158963203430176
3829404038.0,-0.6206250190734863,0.4958518743515014,9.831069946289062,1.4704362154006958,1.7705069780349731,0.5528320074081421
3829412371.0,-0.6513537168502808,0.3825368583202362,9.885009765625,1.0886305570602417,1.8890753984451287,0.5299072861671448
3829420704.0,-0.6928857564926147,0.510191023349762,10.06800937652588,0.9410157799720764,1.4952309131622314,0.5229658484458923
3829429037.0,-0.7399857044219971,0.6387808322906494,10.131335258483888,1.158711075782776,1.15056574344635,0.5897933840751648
3829437370.0,-0.6491705775260925,0.4901700317859649,9.875865936279297,1.358835220336914,0.8540554046630859,0.4216103553771972
3829445703.0,-0.5687726140022278,0.2308222353458404,9.69306755065918,0.8869953155517578,0.7083872556686401,0.4831613004207611
3829454036.0,-0.6272685527801514,0.2405000329017639,9.799631118774414,0.8474725484848022,0.9906047582626344,0.4721983969211578
3829462369.0,-0.6869673728942871,0.4333090484142303,9.937259674072266,1.4416714906692505,1.3330159187316897,0.4524498283863067
3829470702.0,-0.6643756031990051,0.5018181800842285,9.813316345214844,1.8246043920516968,1.6531939506530762,0.3907707631587982
3829479035.0,-0.6393038630485535,0.3685133457183838,9.656811714172363,1.451814889907837,1.71620512008667,0.4578032493591308
3829487368.0,-0.749859094619751,0.2952461838722229,9.749029159545898,0.9828693270683287,1.553247094154358,0.4094691574573517
3829495701.0,-0.7989176511764526,0.4075905978679657,10.00247573852539,1.16780424118042,1.3325036764144895,0.4358005821704864
3829504034.0,-0.7468761801719666,0.4590072333812713,9.95998764038086,1.691948175430298,1.1094549894332886,0.4482491016387939
3829512367.0,-0.623284637928009,0.3600790500640869,9.679998397827148,1.6743003129959106,0.7154569029808044,0.3929736316204071
3829520700.0,-0.588070809841156,0.3792223334312439,9.592012405395508,1.1400127410888672,0.4670755565166473,0.46387380361557
3829529033.0,-0.6210956573486328,0.5171147584915161,9.667717933654783,1.034302830696106,0.8393271565437317,0.4560358226299286
3829537366.0,-0.6686918139457703,0.5193983912467957,9.717232704162598,1.2682631015777588,1.2312761545181274,0.431804746389389
3829545699.0,-0.6846596002578735,0.3829541802406311,9.622265815734863,1.3436201810836792,1.7174856662750244,0.4622600674629211
3829554032.0,-0.6849864721298218,0.2411584109067917,9.71878433227539,1.0678062438964844,1.727731466293335,0.5554447770118713
3829562365.0,-0.7321828603744507,0.3723809123039245,9.908050537109377,1.0662437677383425,1.4859073162078855,0.5439695119857788
3829570698.0,-0.7086788415908813,0.4877877533435821,9.917291641235352,1.3818622827529907,1.0681391954421997,0.5332883596420288
3829579031.0,-0.6281993985176086,0.399879902601242,9.698439598083496,1.443234086036682,0.7929142117500305,0.4597498476505279
3829587364.0,-0.56528240442276,0.2369520813226699,9.516773223876951,0.9402472376823424,0.532647967338562,0.5333396196365356
3829595697.0,-0.568958580493927,0.2769652307033539,9.685120582580566,0.8713449835777283,0.7587960958480835,0.5145643949508667
3829604030.0,-0.5694369673728943,0.4240094721317291,9.856879234313965,1.4194127321243286,0.9844062328338624,0.5214033722877502
3829612363.0,-0.5537989735603333,0.4508521258831024,9.734403610229492,1.7023733854293823,1.394054651260376,0.5438671112060547
3829620696.0,-0.5893701910972595,0.3130851089954376,9.62643337249756,1.2339401245117188,1.493617296218872,0.5672016739845276
3829629029.0,-0.6332845091819763,0.2561673521995544,9.74343204498291,0.8927586078643799,1.477839112281799,0.4876950979232788
3829637362.0,-0.6758207082748413,0.3301185369491577,9.98268699645996,1.147902011871338,1.387113332748413,0.4655643105506897
3829645695.0,-0.6370173096656799,0.4246870279312134,9.971592903137209,1.6155664920806885,1.1262835264205933,0.4000687301158905
3829654028.0,-0.5374360084533691,0.3779132962226867,9.756814002990724,1.423434138298035,0.7904296517372131,0.4006834626197815
3829662361.0,-0.4950482547283172,0.3348245918750763,9.674985885620115,0.9096640348434448,0.3947409689426422,0.5246819853782654
3829670694.0,-0.5256767272949219,0.4064889252185821,9.825939178466797,0.7374082803726196,0.668685257434845,0.4407441318035126
3829679027.0,-0.5782057642936707,0.4025513231754303,9.83150577545166,1.191267013549805,1.2248728275299072,0.4345199167728424
3829687360.0,-0.5726621747016907,0.3063781559467315,9.725096702575684,1.3610635995864868,1.6515802145004272,0.4746061563491821
3829695693.0,-0.6035464406013489,0.2282367646694183,9.80221462249756,1.102231740951538,1.884977102279663,0.4571884870529175
3829704026.0,-0.6709373593330383,0.3497970700263977,10.012489318847656,0.973725199699402,1.776910662651062,0.4200478196144104
3829712359.0,-0.7073699235916138,0.5483099222183228,10.128618240356444,1.2273828983306885,1.3829892873764038,0.4366970956325531
3829720692.0,-0.6582218408584595,0.4818402230739593,9.937261581420898,1.3165204524993896,1.09319007396698,0.4565993249416351
3829729025.0,-0.6206808090209961,0.2850765585899353,9.722137451171877,0.6642026901245117,0.7487552762031555,0.5222229957580566
3829737358.0,-0.6595350503921509,0.2567512989044189,9.82580280303955,0.5769606232643127,0.7511630058288574,0.398531824350357
3829745691.0,-0.7237168550491333,0.4973249733448028,10.00688362121582,1.1111453771591189,1.211245894432068,0.4590839147567749
3829754024.0,-0.6933175921440125,0.6044990420341492,9.92353630065918,1.4238184690475464,1.709109663963318,0.4924080371856689
3829762357.0,-0.7002720236778259,0.4920128583908081,9.714306831359863,0.95610249042511,1.7732733488082886,0.5261420011520386
3829770690.0,-0.773213803768158,0.3532998561859131,9.83010196685791,0.3622109293937683,1.8462742567062376,0.4008884131908417
3829779023.0,-0.8204883337020874,0.403506189584732,10.091731071472168,0.4603134393692016,1.4995343685150146,0.4559334218502044
3829787356.0,-0.7902318835258484,0.5061637163162231,10.126945495605469,1.0221103429794312,1.099491000175476,0.3760169446468353
3829795689.0,-0.6941905617713928,0.4178047180175781,9.83637523651123,1.016552209854126,0.8238050937652588,0.3244299292564392
3829804022.0,-0.6237708330154419,0.3228507339954376,9.664399147033691,0.6007307171821594,0.6848734021186829,0.3587529957294464
3829812355.0,-0.673046886920929,0.4107876121997833,9.791213035583496,0.5962737798690796,0.7831295132637024,0.3370833098888397
3829820688.0,-0.7227374911308289,0.4468954801559448,9.825380325317385,0.927952527999878,1.1739516258239746,0.3608021140098572
3829829021.0,-0.7490006685256958,0.2975292503833771,9.68386173248291,1.0596096515655518,1.7212252616882324,0.294743001461029
3829837354.0,-0.7516772150993347,0.1354682892560959,9.676292419433594,1.009303331375122,1.7886165380477903,0.3746850490570068
3829845687.0,-0.7825426459312439,0.2407639026641845,9.91611671447754,0.8996230959892273,1.5411827564239502,0.3705611228942871
3829854020.0,-0.7674061059951782,0.3964578211307525,10.023836135864258,1.3998692035675049,1.1076362133026123,0.3501721918582916
3829862353.0,-0.7096120715141296,0.3527996838092804,9.79729175567627,1.4894167184829712,0.4147969484329223,0.3887216448783874
3829870686.0,-0.6690700650215149,0.2300139367580413,9.514848709106444,1.1525893211364746,0.2676431238651275,0.3963802754878998
3829879019.0,-0.6574535369873047,0.1836420893669128,9.58255672454834,1.0085092782974243,0.4643348455429077,0.4491200149059295
3829887352.0,-0.6810722351074219,0.359166532754898,9.75334358215332,1.3703101873397827,0.9359697699546814,0.5558801293373108
3829895685.0,-0.6828764081001282,0.4022051692008972,9.70778465270996,1.6068321466445925,1.190165400505066,0.5436620712280273
3829904018.0,-0.677187979221344,0.3010748624801636,9.569093704223633,1.4772753715515137,1.3331440687179563,0.535337507724762
3829912351.0,-0.7224085330963135,0.2241701036691665,9.628084182739258,0.9378395080566406,1.1916511058807373,0.6566208600997925
3829920684.0,-0.7396826148033142,0.2823227047920227,9.874656677246094,1.1028721332550049,0.9436540603637696,0.5914838910102844
3829929017.0,-0.7168371677398682,0.3316336870193481,9.889169692993164,1.5594457387924194,0.560003936290741,0.5855669975280762
3829937350.0,-0.6159316301345825,0.2896829843521118,9.685565948486328,1.5368540287017822,0.2107538878917694,0.5929694771766663
3829945683.0,-0.5261201858520508,0.2477387189865112,9.561455726623535,1.124157428741455,0.1141882538795471,0.5588769912719727
3829954016.0,-0.5257558226585388,0.3169710636138916,9.599166870117188,0.9401448965072632,0.1285066157579422,0.6350281238555908
3829962349.0,-0.553508460521698,0.3307760655879974,9.638399124145508,1.2188278436660769,0.6218624114990234,0.5951979756355286
3829970682.0,-0.5784469842910767,0.1720813810825348,9.60324001312256,1.3841934204101562,1.0854034423828125,0.5780877470970154
3829979015.0,-0.5997581481933594,0.0549063123762607,9.632357597351074,1.267776370048523,1.3622161149978638,0.5208141207695007
3829987348.0,-0.5999636054039001,0.1510604172945022,9.902754783630373,1.3655972480773926,1.0407062768936155,0.5108503103256226
3829995681.0,-0.5784735083580017,0.3638701438903808,9.980432510375977,1.6381326913833618,0.8304646611213684,0.474478155374527
3830004014.0,-0.5294800996780396,0.3457129001617431,9.79069709777832,1.748350739479065,0.4188951849937439,0.4077017605304718
3830012347.0,-0.4598632454872131,0.1238586381077766,9.56443691253662,1.3322219848632812,0.208960935473442,0.3898230791091919
3830020680.0,-0.4372389912605285,0.0238904953002929,9.676995277404783,1.0558444261550903,0.3522982001304626,0.3486353456974029
3830029013.0,-0.4628466665744781,0.2113450169563293,9.843984603881836,1.6240193843841553,0.5686872601509094,0.3343938589096069
3830037346.0,-0.4772319197654724,0.3641406893730163,9.827033996582031,2.0551836490631104,1.1243112087249756,0.3698439300060272
3830045679.0,-0.493321806192398,0.2778876423835754,9.604280471801758,1.919530749320984,1.4337824583053589,0.4467890858650207
3830054012.0,-0.5206403136253357,0.1783186048269271,9.689720153808594,1.4304523468017578,1.6591362953186035,0.3342145383358001
3830062345.0,-0.5845048427581787,0.2487775087356567,9.947242736816406,1.317416787147522,1.342570185661316,0.4385668933391571
3830070678.0,-0.5494564771652222,0.3425374329090118,10.040806770324709,1.9125635623931885,1.0843530893325806,0.3473802804946899
3830079011.0,-0.4963996112346649,0.2768053710460663,9.762869834899902,2.0321567058563232,0.8157364726066589,0.3322422206401825
3830087344.0,-0.4164412319660187,0.2238886803388595,9.591160774230955,1.662619948387146,0.7142016887664795,0.3452798724174499
3830095677.0,-0.447371244430542,0.3364846408367157,9.728036880493164,1.5382627248764038,0.8083339333534241,0.5274739265441895
3830104010.0,-0.5081570148468018,0.4448875784873962,9.743215560913086,1.7848254442214966,1.3253830671310425,0.512105405330658
3830112343.0,-0.553802490234375,0.3672601282596588,9.672128677368164,1.944043517112732,1.828190445899964,0.5407932996749878
3830120676.0,-0.5887055397033691,0.2257851064205169,9.65878963470459,1.672609567642212,2.155233144760132,0.4763735830783844
3830129009.0,-0.6326205730438232,0.2754555940628052,9.907075881958008,1.5528374910354614,1.9132297039031985,0.5743224024772644
3830137342.0,-0.6654224395751953,0.5085481405258179,10.046332359313965,1.8933017253875728,1.541131615638733,0.5513463616371155
3830145675.0,-0.677405059337616,0.5711233019828796,9.820605278015137,2.091325521469116,1.0450352430343628,0.6098237633705139
3830154008.0,-0.61991947889328,0.4203917384147644,9.528756141662598,1.6375949382781982,0.8713962435722351,0.6172006130218506
3830162341.0,-0.5969977378845215,0.2913710474967956,9.568873405456545,1.2860652208328247,0.8234464526176453,0.5839021801948547
3830170674.0,-0.632591962814331,0.4666065275669098,9.863985061645508,1.5756341218948364,1.2615779638290403,0.5568791031837463
3830179007.0,-0.6670440435409546,0.5778157114982605,9.879008293151855,2.0842814445495605,1.59223210811615,0.6376920342445374
3830187340.0,-0.6826234459877014,0.5147777795791626,9.667694091796877,1.7979655265808103,2.025240659713745,0.5464797019958496
3830195673.0,-0.7088780403137207,0.3656694591045379,9.638833999633787,1.3070430755615234,1.842021942138672,0.4676390588283539
3830204006.0,-0.7880046963691711,0.4140746891498565,9.856303215026855,1.1549458503723145,1.4937965869903564,0.6366673707962036
3830212339.0,-0.791558563709259,0.4830262660980224,10.045576095581056,1.569256067276001,1.0915762186050415,0.5181759595870972
3830220672.0,-0.7159525752067566,0.4804328680038452,9.854597091674805,1.88333797454834,0.7990360856056213,0.5747835040092468
3830229005.0,-0.6154091954231262,0.4145002365112304,9.681257247924805,1.583267092704773,0.6970401406288147,0.4900002777576446
3830237338.0,-0.5845160484313965,0.437761127948761,9.718131065368652,1.2498209476470947,0.6729627251625061,0.4516301453113556
3830245671.0,-0.6498201489448547,0.4945360422134399,9.79689121246338,1.3966163396835327,0.9114569425582886,0.3868774473667145
3830254004.0,-0.6757270097732544,0.4102645814418793,9.751463890075684,1.6026058197021484,1.4246636629104614,0.526756763458252
3830262337.0,-0.663800835609436,0.2489732652902603,9.69061279296875,1.5215367078781128,1.6211248636245728,0.3963802754878998
3830270670.0,-0.6736094951629639,0.273502767086029,9.867735862731934,1.2985905408859253,1.5608545541763306,0.4440739750862121
3830279003.0,-0.7362754940986633,0.4420067369937897,10.058297157287598,1.4039161205291748,1.1561496257781982,0.3913342654705047
3830287336.0,-0.6870267987251282,0.5067117810249329,9.949575424194336,1.7572388648986816,0.8927841186523438,0.4454315304756164
3830295669.0,-0.5808535218238831,0.3253012895584106,9.66061305999756,1.4981764554977417,0.6991148591041565,0.4495810270309448
3830304002.0,-0.4941112399101257,0.1358897089958191,9.62269115447998,1.042832374572754,0.4963526129722595,0.4992726445198059
3830312335.0,-0.5371356010437012,0.250528335571289,9.796584129333496,1.1868098974227903,0.7907114028930664,0.483314961194992
3830320668.0,-0.5970759391784668,0.4136134386062622,9.862770080566406,1.7913061380386353,1.239831566810608,0.5283448696136475
3830329001.0,-0.5689120888710022,0.391044020652771,9.746326446533203,1.7233768701553345,1.6991970539093018,0.5674833655357361
3830337334.0,-0.5689757466316223,0.2070343643426895,9.635469436645508,1.3249729871749878,1.726578712463379,0.4364921450614929
3830345667.0,-0.6278075575828552,0.2128257602453231,9.852848052978516,1.094444990158081,1.5498148202896118,0.5050870776176453
3830354000.0,-0.660586953163147,0.3523665070533752,10.062430381774902,1.559983730316162,1.2234126329421997,0.5490922927856445
3830362333.0,-0.5803521871566772,0.3523566424846649,9.882091522216797,1.885156393051148,0.9131730198860168,0.5155120491981506
3830370666.0,-0.5066371560096741,0.2227423787117004,9.651926040649414,1.58052659034729,0.6370005011558533,0.5861306190490723
3830378999.0,-0.5034387707710266,0.2617367506027221,9.65273380279541,1.2436223030090332,0.7003700733184814,0.5934049487113953
3830387332.0,-0.5627574324607849,0.393551617860794,9.759057998657228,1.5213830471038818,1.1511036157608032,0.5109783411026001
3830395665.0,-0.6039955615997314,0.3837760686874389,9.743343353271484,1.712798237800598,1.5942811965942385,0.4733511209487915
3830403998.0,-0.621566891670227,0.2162382304668426,9.660223007202148,1.7316503524780271,1.8549060821533203,0.6009612083435059
3830412331.0,-0.6492433547973633,0.1568052768707275,9.841407775878906,1.3978711366653442,1.7777047157287598,0.5989375710487366
3830420664.0,-0.7071899771690369,0.3991188704967499,10.036336898803713,1.5684620141983032,1.3977431058883667,0.5587489604949951
3830428997.0,-0.67869633436203,0.5126852989196777,9.962234497070312,1.9295459985733032,0.9570502638816832,0.4600828886032104
3830437330.0,-0.586287260055542,0.3740782737731933,9.626816749572754,1.6734548807144165,0.7388169765472412,0.4046536684036255
3830445663.0,-0.5756536722183228,0.1722905337810516,9.52795124053955,1.3238717317581177,0.8429387211799622,0.4731204807758331
3830453996.0,-0.6124455332756042,0.2746498584747314,9.82587718963623,1.296131610870361,1.0250048637390137,0.5323918461799622
3830462329.0,-0.6736693382263184,0.472493976354599,9.912399291992188,1.86130964756012,1.4565789699554443,0.4414613246917724
3830470662.0,-0.6405780911445618,0.4891684055328369,9.759799003601074,2.043222188949585,1.8274989128112795,0.5958127379417419
3830478995.0,-0.6408476829528809,0.2890651524066925,9.59861183166504,1.5758644342422483,1.8164076805114744,0.5565716624259949
3830487328.0,-0.7146347761154175,0.2180164605379104,9.83236026763916,0.9956510663032532,1.5232019424438477,0.4561127424240112
3830495661.0,-0.7476399540901184,0.3689387440681457,10.057195663452148,1.519333839416504,1.2321470975875854,0.3879275321960449
3830503994.0,-0.7045594453811646,0.4197765588760376,9.969980239868164,1.950242042541504,0.8694495558738708,0.4242229461669922
3830512327.0,-0.566092312335968,0.2772468328475952,9.661060333251951,1.7307026386260986,0.7202978730201721,0.418229192495346
3830520660.0,-0.5521567463874817,0.2574879825115204,9.682668685913086,1.2448517084121704,0.7152518630027771,0.4797802269458771
3830528993.0,-0.5918654799461365,0.4239127337932586,9.813665390014648,1.418721318244934,1.0446765422821045,0.4831101298332214
3830537326.0,-0.6491150856018066,0.4149487316608429,9.788506507873535,1.771019458770752,1.5168238878250122,0.5079559683799744
3830545659.0,-0.6321393251419067,0.2451921254396438,9.682296752929688,1.7229160070419312,1.6969941854476929,0.5784975290298462
3830553992.0,-0.6624423265457153,0.1767357736825943,9.759807586669922,1.5367515087127686,1.7379001379013062,0.4749903678894043
3830562325.0,-0.7132970690727234,0.3961651921272278,10.03514003753662,1.562084078788757,1.349895715713501,0.5742967128753662
3830570658.0,-0.6785638928413391,0.5845167636871338,10.026442527770996,1.81505024433136,0.9027480483055116,0.5515769124031067
3830578991.0,-0.59217768907547,0.4287669360637665,9.701437950134276,1.7964287996292114,0.7162764668464661,0.5508341789245605
3830587324.0,-0.5499320030212402,0.2315375208854675,9.562542915344238,1.2704148292541504,0.674371600151062,0.466281533241272
3830595657.0,-0.5551893711090088,0.2879090905189514,9.765382766723633,1.2381409406661987,0.8770570755004883,0.5909460783004761
3830603990.0,-0.6070994734764099,0.5260249376296997,9.896540641784668,1.8136415481567385,1.3944389820098877,0.5667150020599365
3830612323.0,-0.5755782723426819,0.5579195618629456,9.721309661865234,1.9985249042510984,1.664361834526062,0.5190724730491638
3830620656.0,-0.6105630993843079,0.3973977267742157,9.602831840515137,1.516362547874451,1.8061619997024536,0.5740149617195129
3830628989.0,-0.689538300037384,0.3135813772678375,9.769598007202148,0.9765682816505432,1.530450463294983,0.5463260412216187
3830637322.0,-0.7226795554161072,0.4267228245735168,10.05460262298584,1.4747138023376465,1.2561476230621338,0.5357984900474548
3830645655.0,-0.6549920439720154,0.4577265083789825,9.970574378967283,1.8396143913269043,1.0145796537399292,0.5492972731590271
3830653988.0,-0.5418331623077393,0.3429183065891266,9.652959823608398,1.7721208333969116,0.6678912043571472,0.5323150157928467
3830662321.0,-0.4866722822189331,0.3295386135578155,9.659106254577637,1.2653943300247192,0.6498331427574158,0.4963782429695129
3830670654.0,-0.5373144149780273,0.4595487117767334,9.765568733215332,1.2222856283187866,0.7839748859405518,0.53410804271698
3830678987.0,-0.5864464044570923,0.4385380446910858,9.77669620513916,1.560726523399353,1.4450013637542725,0.5012193322181702
3830687320.0,-0.6078366637229919,0.2622600197792053,9.683836936950684,1.4930537939071655,1.8801103830337524,0.5274739861488342
3830695653.0,-0.6494942307472229,0.1457983255386352,9.76479721069336,1.271260142326355,1.898604154586792,0.4477112293243408
3830703986.0,-0.7157054543495178,0.3471980690956116,9.997952461242676,1.399638533592224,1.63421368598938,0.3973792195320129
3830712319.0,-0.7219128012657166,0.5063495635986328,10.010458946228027,1.8501417636871336,1.119316339492798,0.4903076291084289
3830720652.0,-0.6293695569038391,0.3822001218795776,9.70942211151123,1.634597897529602,0.8170684576034546,0.5906898379325867
3830728985.0,-0.5620920658111572,0.1336865425109863,9.525935173034668,1.1598381996154783,0.6210426688194275,0.4740682244300842
3830737318.0,-0.576705276966095,0.1925973892211914,9.760384559631348,1.2049704790115356,0.7441191077232361,0.4241204857826233
3830745651.0,-0.5908793210983276,0.4003399312496185,9.94726276397705,1.8191229104995728,1.0805877447128296,0.5379501581192017
3830753984.0,-0.6117351055145264,0.4317125976085663,9.790075302124023,2.098881721496582,1.6395671367645264,0.4593400955200195
3830762317.0,-0.6186428666114807,0.2575668692588806,9.582257270812988,1.4999696016311646,1.785901427268982,0.5852852463722229
3830770650.0,-0.6987051963806152,0.2035669237375259,9.745017051696776,1.116806149482727,1.7083157300949097,0.5472224950790405
3830778983.0,-0.7499760985374451,0.3103950023651123,10.044034957885742,1.2879348993301392,1.452762484550476,0.5301634073257446
3830787316.0,-0.6858387589454651,0.4010059535503387,9.96690273284912,1.9191977977752688,0.95315682888031,0.5237854719161987
3830795649.0,-0.5770174860954285,0.2850393950939178,9.692938804626465,1.7508609294891355,0.598604679107666,0.5209166407585144
3830803982.0,-0.5284663438796997,0.2251428812742233,9.61935043334961,1.2440322637557983,0.6084149479866028,0.4668706953525543
3830812315.0,-0.6136435866355896,0.3874450922012329,9.808463096618652,1.3981273174285889,0.8083339929580688,0.5607980489730835
3830820648.0,-0.65960294008255,0.4384487569332123,9.829916000366213,1.8040874004364007,1.3597317934036257,0.506700873374939
3830828981.0,-0.6303151249885559,0.2883222103118896,9.68918228149414,1.7079061269760132,1.8553673028945925,0.5252968072891235
3830837314.0,-0.6534855365753174,0.1659266799688339,9.720977783203123,1.5288114547729492,1.8360284566879272,0.4859533011913299
3830845647.0,-0.7016938328742981,0.3464008271694183,9.958430290222168,1.4385210275650024,1.496819019317627,0.5871294736862183
3830853980.0,-0.6828875541687012,0.5073713064193726,10.04876708984375,1.7462247610092163,1.0769505500793457,0.5009375810623169
3830862313.0,-0.6008343696594238,0.4374884366989136,9.767534255981444,1.827216982841492,0.6893046498298645,0.4812402427196502
3830870646.0,-0.5515771508216858,0.1832129210233688,9.564666748046877,1.3597315549850464,0.6206585168838501,0.4379009306430816
3830878979.0,-0.5528360605239868,0.2379679381847381,9.737022399902344,1.2467215061187744,0.6956313252449036,0.5743479132652283
3830887312.0,-0.599736213684082,0.4826388657093048,9.89111614227295,1.842252492904663,1.216548204421997,0.5002203583717346
3830895645.0,-0.5888966917991638,0.5363752245903015,9.77572250366211,2.035640001296997,1.6265805959701538,0.5349532961845398
3830903978.0,-0.6036441922187805,0.3316596746444702,9.59500789642334,1.53477942943573,1.851858139038086,0.5597735047340393
3830912311.0,-0.6478378772735596,0.1833974868059158,9.727981567382812,1.0369666814804075,1.6341111660003662,0.48221355676651
3830920644.0,-0.6941235661506653,0.3512185513973236,10.046192169189451,1.387830376625061,1.2269474267959597,0.508544921875
3830928977.0,-0.6431977152824402,0.4658352732658386,10.052746772766112,1.971450924873352,0.961122989654541,0.5294718742370605
3830937310.0,-0.5432769060134888,0.371720403432846,9.759963989257812,1.9827208518981927,0.6536240577697754,0.4726850688457489
3830945643.0,-0.5129232406616211,0.2886672914028168,9.578436851501465,1.1794586181640625,0.7012921571731567,0.4657179415225982
3830953976.0,-0.5352544188499451,0.3833423256874084,9.754339218139648,1.2030748128890991,0.8540810346603394,0.6478095650672913
3830962309.0,-0.6189215183258057,0.4341380894184112,9.832612991333008,1.659264326095581,1.3734095096588137,0.5936611294746399
3830970642.0,-0.6228120923042297,0.2832177281379699,9.68919277191162,1.8327754735946653,1.802601933479309,0.4894880652427673
3830978975.0,-0.6203231811523438,0.1704265922307968,9.678275108337402,1.43578040599823,1.875884175300598,0.4529877603054046
3830987308.0,-0.6822462677955627,0.3246826827526092,9.955506324768066,1.4480239152908323,1.4966652393341064,0.4015031158924103
3830995641.0,-0.7206616997718811,0.5424447059631348,10.066278457641602,1.791075348854065,1.133865237236023,0.5225560069084167
3831003974.0,-0.6353698372840881,0.5035952925682068,9.80089282989502,1.811105847358704,0.8058494925498962,0.4752720892429352
3831012307.0,-0.5628142952919006,0.2077257186174392,9.545161247253418,1.4321688413619995,0.6690438389778137,0.4549856781959533
3831020640.0,-0.5691229104995728,0.1687141954898834,9.675026893615724,1.1751554012298584,0.7472184896469116,0.4861068725585937
3831028973.0,-0.6077294945716858,0.4234558641910553,9.912221908569336,1.6334710121154783,1.1358377933502195,0.592559814453125
3831037306.0,-0.6301968097686768,0.5292537808418274,9.821956634521484,2.054953098297119,1.5971755981445312,0.6027029156684875
3831045639.0,-0.636966347694397,0.3589568138122558,9.578075408935549,1.6198186874389648,1.7371829748153689,0.5089548230171204
3831053972.0,-0.6559776067733765,0.2192842364311218,9.67227554321289,1.1081998348236084,1.6445362567901611,0.5136166214942932
3831062305.0,-0.7542135715484619,0.3285648822784424,10.05111598968506,1.311320662498474,1.3357311487197876,0.4272710382938385
3831070638.0,-0.7311269044876099,0.4280782043933868,10.056589126586914,1.83280086517334,0.963453769683838,0.4267075359821319
3831078971.0,-0.5976702570915222,0.3593999743461609,9.751567840576172,1.9336440563201904,0.6719894409179688,0.4185621738433838
3831087304.0,-0.5469778776168823,0.2367519438266754,9.569860458374023,1.3179292678833008,0.7032644748687744,0.4026557803153991
3831095637.0,-0.5640586614608765,0.3476854562759399,9.739831924438477,1.1425998210906982,0.780670702457428,0.5544713735580444
3831103970.0,-0.6505710482597351,0.4555076360702514,9.865399360656738,1.4901849031448364,1.198925495147705,0.5055993795394897
3831112303.0,-0.6561964154243469,0.3667078614234924,9.74209976196289,1.7644623517990112,1.779805302619934,0.385929673910141
3831120636.0,-0.6413522958755493,0.1730193793773651,9.731109619140623,1.519205927848816,1.9240899085998533,0.5208141803741455
3831128969.0,-0.6773521304130554,0.2571059167385101,9.92082977294922,1.37699556350708,1.5498404502868652,0.4584435820579529
3831137302.0,-0.7160250544548035,0.4929572939872741,10.059019088745115,1.6040401458740234,1.140960454940796,0.4642323851585388
3831145635.0,-0.6295118927955627,0.4868672788143158,9.834820747375488,1.862795114517212,0.7755221724510193,0.4752208888530731
3831153968.0,-0.5560782551765442,0.2410996556282043,9.525370597839355,1.4383163452148438,0.7569007277488708,0.5581853985786438
3831162301.0,-0.548186719417572,0.171804130077362,9.663497924804688,1.0251840353012085,0.7785702347755432,0.4544989764690399
3831170634.0,-0.6053529381752014,0.3890981376171112,9.921161651611328,1.510650634765625,0.9438589215278624,0.4882585406303406
3831178967.0,-0.6129006147384644,0.5018584728240967,9.891305923461914,2.014047384262085,1.6114941835403442,0.5388723015785217
3831187300.0,-0.6112422347068787,0.3753640651702881,9.624652862548828,1.852165460586548,1.827191472053528,0.5241953730583191
3831195633.0,-0.6254803538322449,0.218795046210289,9.65615463256836,1.1764618158340454,1.727116584777832,0.4698931276798248
3831203966.0,-0.7155163288116455,0.2795362174510956,9.949782371520996,1.1282048225402832,1.2794311046600342,0.511106550693512
3831212299.0,-0.6663333773612976,0.4289893209934234,10.049421310424805,1.8168433904647827,1.082329511642456,0.497761458158493
3831220632.0,-0.6002888083457947,0.3559556603431701,9.781023025512695,1.9587204456329343,0.788815975189209,0.4393097162246704
3831228965.0,-0.5107630491256714,0.2777305841445923,9.601439476013184,1.4654159545898438,0.5975544452667236,0.5508084297180176
3831237298.0,-0.5351258516311646,0.3223356306552887,9.72478485107422,1.2186741828918457,0.7829503417015076,0.5059067010879517
3831245631.0,-0.6038210988044739,0.4688194990158081,9.817611694335938,1.5864688158035278,1.2745132446289062,0.5950186848640442
3831253964.0,-0.6179360747337341,0.3977988362312317,9.722726821899414,1.7925097942352295,1.709365963935852,0.638793408870697
3831262297.0,-0.6311357617378235,0.1947223395109176,9.651969909667969,1.5126999616622925,1.8757305145263672,0.5552397966384888
3831270630.0,-0.6791690587997437,0.2160011529922485,9.848740577697754,1.2671362161636353,1.6121855974197388,0.5951467752456665
3831278963.0,-0.7203664779663086,0.4954923689365387,10.10801887512207,1.798964500427246,1.2445955276489258,0.5801880359649658
3831287296.0,-0.6570413112640381,0.5329720973968506,9.901203155517578,1.905775785446167,0.8088975548744202,0.4427676498889923
3831295629.0,-0.5637901425361633,0.3041239976882934,9.603028297424316,1.5567049980163574,0.6596433520317078,0.3864419460296631
3831303962.0,-0.569359302520752,0.1624910235404968,9.58784294128418,1.0782568454742432,0.7953988313674927,0.4479674100875854
3831312295.0,-0.5921825170516968,0.3367286324501037,9.870614051818848,1.3454132080078125,1.077001690864563,0.5504242181777954
3831320628.0,-0.629077672958374,0.5336243510246277,9.903331756591797,1.936717867851257,1.5659775733947754,0.3913086652755737
3831328961.0,-0.6270869374275208,0.429220050573349,9.63851261138916,1.859183430671692,1.672993779182434,0.481880635023117
3831337294.0,-0.6528303623199463,0.2224727272987365,9.606045722961426,1.2768439054489136,1.63075590133667,0.4699699580669403
3831345627.0,-0.7244144678115845,0.284791886806488,9.93495273590088,1.151872158050537,1.5944092273712158,0.5331603288650513
3831353960.0,-0.7258819341659546,0.4351275861263275,10.091561317443848,1.6470463275909424,1.1594024896621704,0.4791910946369171
3831362293.0,-0.6611809730529785,0.4261606931686401,9.854787826538086,2.088917732238769,0.9593555927276612,0.4797033965587616
3831370626.0,-0.5496060848236084,0.2641431987285614,9.579425811767578,1.55422043800354,0.5743223428726196,0.5071618556976318
3831378959.0,-0.5307338237762451,0.2996969521045685,9.65314769744873,1.1552531719207764,0.6621279716491699,0.561592161655426
3831387292.0,-0.601122260093689,0.4608980715274811,9.83095932006836,1.415391445159912,0.992705225944519,0.482239156961441
3831395625.0,-0.6182731986045837,0.4184547960758209,9.78599739074707,1.8964524269104004,1.544896960258484,0.5242465138435364
3831403958.0,-0.6177634000778198,0.1942006945610046,9.617576599121094,1.6635931730270386,1.9519073963165283,0.4819061756134033
3831412291.0,-0.6626889109611511,0.1861394792795181,9.791946411132812,1.281070351600647,1.607498049736023,0.587923526763916
3831420624.0,-0.7150581479072571,0.4383209943771362,10.088919639587402,1.6172314882278442,1.215933322906494,0.4392841160297394
3831428957.0,-0.6724700927734375,0.541313648223877,9.957756996154783,1.9706566333770752,0.9721370935440063,0.528626561164856
3831437290.0,-0.5900529623031616,0.3425060510635376,9.62743854522705,1.6416676044464111,0.6169444918632507,0.449760377407074
3831445623.0,-0.5453255772590637,0.1595942378044128,9.525991439819336,1.1405506134033203,0.6898682117462158,0.5489130616188049
3831453956.0,-0.5509061217308044,0.3158701956272125,9.82082462310791,1.319747805595398,0.9869678020477296,0.4390280246734619
3831462289.0,-0.602188766002655,0.5082748532295227,9.944538116455078,1.824758052825928,1.346975803375244,0.5573657751083374
3831470622.0,-0.6212350130081177,0.464378148317337,9.721030235290527,1.9423530101776123,1.8555463552474976,0.5075460076332092
3831478955.0,-0.6162658333778381,0.2666462659835815,9.593316078186035,1.4144949913024902,1.7414605617523191,0.5502705574035645
3831487288.0,-0.674223005771637,0.2550241947174072,9.838387489318848,1.0545636415481567,1.5370588302612305,0.5618481636047363
3831495621.0,-0.7310695052146912,0.4183431267738342,10.04185390472412,1.5489184856414795,1.2457740306854248,0.5198152661323547
3831503954.0,-0.646521270275116,0.437343567609787,9.92542839050293,1.9118722677230835,0.8173758387565613,0.5464285016059875
3831512287.0,-0.5218846201896667,0.2848199605941772,9.59827995300293,1.5650811195373535,0.7399953007698059,0.4512972831726074
3831520620.0,-0.5311203002929688,0.2634033262729645,9.64559555053711,1.11683189868927,0.6844635605812073,0.6043167114257812
3831528953.0,-0.5956037640571594,0.4358250200748443,9.81902313232422,1.3342198133468628,1.024031400680542,0.5420739650726318
3831537286.0,-0.6038174033164978,0.426044762134552,9.834301948547363,1.8910478353500368,1.6251976490020752,0.4715580940246582
3831545619.0,-0.6258543729782104,0.2552955150604248,9.650273323059082,1.6902834177017212,1.873579025268555,0.466153472661972
3831553952.0,-0.638716459274292,0.1704370528459549,9.771873474121094,1.447178602218628,1.806930661201477,0.4373630583286285
3831562285.0,-0.7022135853767395,0.3832237422466278,10.029227256774902,1.4950004816055298,1.4043259620666504,0.6226052045822144
3831570618.0,-0.6832021474838257,0.5230543613433838,9.98324489593506,1.8695060014724727,1.0015164613723757,0.523273229598999
3831578951.0,-0.6058155298233032,0.3855732083320617,9.659957885742188,1.75390887260437,0.777263879776001,0.4324963390827179
3831587284.0,-0.5441381931304932,0.1584497839212417,9.551362991333008,1.2648308277130127,0.715994656085968,0.4496834278106689
3831595617.0,-0.5750957131385803,0.2445556968450546,9.78127670288086,1.3100143671035769,0.8982400298118591,0.5279349684715271
3831603950.0,-0.6381238102912903,0.4798360466957092,9.921226501464844,1.823989629745484,1.2782527208328247,0.5369767546653748
3831612283.0,-0.6309900283813477,0.4942227005958557,9.741582870483398,2.0502402782440186,1.7457382678985596,0.3814728260040283
3831620616.0,-0.6198749542236328,0.2870758771896362,9.576327323913574,1.425176024436951,1.7173832654953003,0.5578012466430664
3831628949.0,-0.7041866183280945,0.2434172928333282,9.801227569580078,1.027822494506836,1.4697961807250977,0.5612335801124573
3831637282.0,-0.7210400700569153,0.393960565328598,10.079020500183104,1.552965521812439,1.1805344820022583,0.6142549514770508
3831645615.0,-0.6818159818649292,0.4489476084709167,9.977200508117676,1.895581603050232,0.9323325753211976,0.4795241057872772
3831653948.0,-0.5609648823738098,0.311632752418518,9.667715072631836,1.7777817249298096,0.7841542363166809,0.4399501383304596
3831662281.0,-0.5336735844612122,0.2775589227676391,9.6071195602417,1.1805086135864258,0.6163552403450012,0.5362851619720459
3831670614.0,-0.5858392715454102,0.4150580167770386,9.793386459350586,1.320618748664856,0.8025707602500916,0.4124148190021515
3831678947.0,-0.6243579983711243,0.4697878062725067,9.841961860656738,1.805598497390747,1.355479717254639,0.5415617823600769
3831687280.0,-0.6488294005393982,0.2797620296478271,9.666274070739746,1.8595421314239504,1.8232214450836184,0.5065471529960632
3831695613.0,-0.6462646126747131,0.1761429905891418,9.746319770812988,1.4927208423614502,1.808288097381592,0.5321613550186157
3831703946.0,-0.700634241104126,0.3710344135761261,10.031047821044922,1.4854975938796997,1.3900588750839231,0.4943802952766418
3831712279.0,-0.690994381904602,0.585844874382019,10.05752944946289,1.8696855306625368,0.9497503042221068,0.5298048853874207
3831720612.0,-0.5985181927680969,0.4357804954051971,9.74140167236328,1.752782106399536,0.7579764723777771,0.5234524607658386
3831728945.0,-0.5342458486557007,0.19512240588665,9.50387477874756,1.3221040964126587,0.6957337260246277,0.3964314758777618
3831737278.0,-0.5545098185539246,0.2405501157045364,9.713446617126465,1.1538699865341189,0.8742650151252747,0.497044175863266
3831745611.0,-0.6255548000335693,0.4786650240421295,9.917667388916016,1.7569315433502195,1.224052906036377,0.5173563361167908
3831753944.0,-0.6042523980140686,0.5292676687240601,9.786023139953612,2.140197277069092,1.6449460983276367,0.3996844887733459
3831762277.0,-0.6286162734031677,0.3353964984416961,9.585246086120604,1.4686434268951416,1.9181220531463623,0.4702517092227936
3831770610.0,-0.6715949773788452,0.2321740686893463,9.771617889404297,0.961865782737732,1.5497382879257202,0.4666914045810699
3831778943.0,-0.7340441346168518,0.3821887969970703,10.069443702697754,1.196210265159607,1.2307381629943848,0.5642815828323364
3831787276.0,-0.6763332486152649,0.4893601834774017,9.986525535583496,1.9498066902160645,0.8917596340179443,0.5334676504135132
3831795609.0,-0.5499712824821472,0.3493953049182892,9.679885864257812,1.893685936927796,0.6187885999679565,0.3848026394844055
3831803942.0,-0.5312058925628662,0.26964071393013,9.56101894378662,1.2601946592330933,0.6125131845474243,0.3424111008644104
3831812275.0,-0.5932496190071106,0.3955951333045959,9.75957489013672,1.0776934623718262,0.9544633626937866,0.677061140537262
3831820608.0,-0.6408907771110535,0.440520703792572,9.858981132507324,1.728448748588562,1.552940011024475,0.5492717027664185
3831828941.0,-0.642655611038208,0.30804044008255,9.72239589691162,1.641693353652954,1.857057809829712,0.5771143436431885
3831837274.0,-0.6220858693122864,0.1583520174026489,9.698084831237791,1.458141565322876,1.867764592170716,0.4921518862247467
3831845607.0,-0.6814162135124207,0.332073837518692,9.968469619750977,1.436087727546692,1.5120595693588257,0.5361828207969666
3831853940.0,-0.6939642429351807,0.5258063673973083,10.012965202331545,1.8224785327911377,0.9943447113037108,0.5120798349380493
3831862273.0,-0.6147635579109192,0.438628613948822,9.774925231933594,1.7680994272232056,0.7826429605484009,0.4698674976825714
3831870606.0,-0.551612913608551,0.1685710549354553,9.507108688354492,1.3760223388671875,0.6595408916473389,0.4645397365093231
3831878939.0,-0.5879422426223755,0.1851799488067627,9.682639122009276,1.1487983465194702,0.8896079659461975,0.4803181290626526
3831887272.0,-0.6253218054771423,0.4331008195877075,9.970487594604492,1.730164647102356,1.228945255279541,0.5059835910797119
3831895605.0,-0.6186037063598633,0.5067773461341858,9.812588691711426,1.9893295764923096,1.7380284070968628,0.5241953730583191
3831903938.0,-0.6346695423126221,0.3289169669151306,9.606680870056152,1.647046685218811,1.8443785905838013,0.5120286345481873
3831912271.0,-0.682226300239563,0.1793985664844513,9.736921310424805,1.0088165998458862,1.627912521362305,0.6232455372810364
3831920604.0,-0.742901623249054,0.3080970644950866,10.014538764953612,1.3824001550674438,1.2433406114578247,0.4642836153507232
3831928937.0,-0.6763970851898193,0.4044137001037597,10.02626132965088,2.0126895904541016,0.948213279247284,0.5055225491523743
3831937270.0,-0.5739022493362427,0.3451638519763946,9.759893417358398,1.9314156770706177,0.6721943020820618,0.5185346007347107
3831945603.0,-0.5059632658958435,0.2498917877674102,9.601746559143066,1.4371891021728516,0.6433783769607544,0.5452502965927124
3831953936.0,-0.565539538860321,0.3643872737884521,9.739225387573242,1.2079931497573853,0.78131103515625,0.5156145691871643
3831962269.0,-0.6185367107391357,0.4449030756950378,9.818668365478516,1.621355414390564,1.254226565361023,0.6448383331298828
3831970602.0,-0.6229167580604553,0.2916907668113708,9.699477195739746,1.815460205078125,1.7950201034545898,0.4375936388969421
3831978935.0,-0.6345751881599426,0.1564503461122512,9.702991485595703,1.516132354736328,1.8662787675857544,0.4573166072368622
3831987268.0,-0.6830829381942749,0.3017332255840301,9.951495170593262,1.5069366693496704,1.4938733577728271,0.5074691772460938
3831995601.0,-0.7139831781387329,0.5189411044120789,10.098828315734863,1.7944051027297974,1.1870659589767456,0.5183552503585815
3832003934.0,-0.6271884441375732,0.4831591844558716,9.798748970031738,1.865792155265808,0.9030809998512268,0.5542407631874084
3832012267.0,-0.5440380573272705,0.2352641522884369,9.530827522277832,1.478146195411682,0.6451457142829895,0.4637457430362701
3832020600.0,-0.5454902648925781,0.1674694269895553,9.666903495788574,1.2932114601135254,0.7513679265975952,0.4734022915363312
3832028933.0,-0.5877322554588318,0.421087235212326,9.92318344116211,1.6883111000061035,1.1764874458312988,0.5212496519088745
3832037266.0,-0.5985201597213745,0.5304441452026367,9.837115287780762,2.091146230697632,1.5838818550109863,0.5091085433959961
3832045599.0,-0.59882652759552,0.3779418170452118,9.619549751281738,1.745840549468994,1.834337830543518,0.4367739260196686
3832053932.0,-0.6609001159667969,0.2241109907627105,9.663690567016602,1.1524356603622437,1.6546539068222046,0.4384132325649261
3832062265.0,-0.7264285087585449,0.3354054689407348,9.973348617553713,1.226665735244751,1.4533517360687256,0.5371305346488953
3832070598.0,-0.720882773399353,0.4823001027107239,10.026164054870604,1.8270632028579712,1.2015380859375,0.5800086855888367
3832078931.0,-0.6036123037338257,0.3949789702892303,9.748509407043455,1.9862303733825684,0.8073607683181763,0.4083165228366852
3832087264.0,-0.5125861763954163,0.2854004502296448,9.572469711303713,1.5445383787155151,0.5870526432991028,0.5102099180221558
3832095597.0,-0.5497317314147949,0.38257697224617,9.684656143188477,1.2210049629211426,0.7354359030723572,0.654238760471344
3832103930.0,-0.6139287352561951,0.4591139554977417,9.819344520568848,1.5216904878616333,1.2289196252822876,0.5876929759979248
3832112263.0,-0.6142760515213013,0.3447084426879883,9.76146411895752,1.7974278926849363,1.8152809143066408,0.4477881193161011
3832120596.0,-0.6124315857887268,0.1940887719392776,9.71295166015625,1.503888726234436,1.9857181310653689,0.5551373362541199
3832128929.0,-0.6614572405815125,0.2998201549053192,9.896917343139648,1.4406726360321045,1.6578813791275024,0.5916119813919067
3832137262.0,-0.7058695554733276,0.5406417846679688,10.09641933441162,1.6580349206924438,1.115090012550354,0.5146667957305908
3832145595.0,-0.6118007302284241,0.5008069276809692,9.814167022705078,1.6434861421585083,0.6405607461929321,0.4581361711025238
3832153928.0,-0.5710472464561462,0.2268023490905761,9.557822227478027,1.4101916551589966,0.6563646793365479,0.5429193377494812
3832162261.0,-0.5675779581069946,0.1693079173564911,9.64870548248291,1.035276174545288,0.8169660568237305,0.5033709406852722
3832170594.0,-0.6124441623687744,0.4235125184059143,9.894946098327637,1.6460731029510498,1.305736780166626,0.4361847937107086
3832178927.0,-0.6250706911087036,0.5492630004882812,9.89250373840332,2.076136350631714,1.7555485963821411,0.4198173284530639
3832187260.0,-0.6214473247528076,0.4108397960662842,9.647665023803713,1.6673842668533323,1.8233493566513064,0.4090080857276916
3832195593.0,-0.6660016775131226,0.2194850891828537,9.677862167358398,1.0299227237701416,1.6669487953186035,0.4721983969211578
3832203926.0,-0.7134550213813782,0.2920349240303039,9.991843223571776,1.1276923418045044,1.2514857053756714,0.596017599105835
3832212259.0,-0.6976996660232544,0.415590226650238,10.0750732421875,1.7217376232147217,1.000773787498474,0.5421252250671387
3832220592.0,-0.5913755893707275,0.3823426067829132,9.775543212890623,1.995835542678833,0.7486783862113953,0.4628492295742035
3832228925.0,-0.5239242911338806,0.2938244938850403,9.580167770385742,1.440954327583313,0.6385884881019592,0.509851336479187
3832237258.0,-0.5907318592071533,0.3641369342803955,9.675257682800291,1.294953227043152,0.9678082466125488,0.417409598827362
3832245591.0,-0.651698112487793,0.445600301027298,9.830307006835938,1.5150820016860962,1.3225398063659668,0.5026537179946899
3832253924.0,-0.6679813861846924,0.3172179162502289,9.76550579071045,1.7256053686141968,2.018862724304199,0.523862361907959
3832262257.0,-0.6530951857566833,0.1526181846857071,9.737164497375488,1.4190542697906494,1.8703514337539675,0.5490155220031738
3832270590.0,-0.6787508130073547,0.2387262880802154,9.94253921508789,1.464493751525879,1.5168492794036863,0.5259370803833008
3832278923.0,-0.6596565842628479,0.5054445862770081,10.066057205200195,1.7824689149856567,0.9520810842514038,0.4811121821403503
3832287256.0,-0.6056284308433533,0.484329342842102,9.78108024597168,1.720636248588562,0.767504870891571,0.4982736110687256
3832295589.0,-0.5320355892181396,0.2134050726890564,9.501943588256836,1.393209457397461,0.5740917921066284,0.453961044549942
3832303922.0,-0.5427293181419373,0.1215624511241912,9.635974884033203,1.1336348056793213,0.8176320195198059,0.4683306515216827
3832312255.0,-0.6236218810081482,0.3474959135055542,9.903225898742676,1.5029921531677246,1.350228786468506,0.4860557019710541
3832320588.0,-0.6107920408248901,0.4977088868618011,9.857977867126465,2.073011636734009,1.769175410270691,0.4894368350505829
3832328921.0,-0.6079050302505493,0.3717303276062011,9.639817237854004,1.8813400268554688,1.817099332809448,0.4608513414859772
3832337254.0,-0.6483691334724426,0.2042354941368103,9.664306640625,1.1959798336029053,1.6435372829437256,0.5469663739204407
3832345587.0,-0.6986923813819885,0.2761285305023193,9.967430114746094,1.2282280921936035,1.2174957990646362,0.5103379487991333
3832353920.0,-0.6645742058753967,0.405852347612381,10.04624843597412,1.768662929534912,0.945856750011444,0.5346715450286865
3832362253.0,-0.5745908617973328,0.3705082237720489,9.79851245880127,1.9960150718688965,0.6138708591461182,0.4517326653003692
3832370586.0,-0.4915065765380859,0.2812803089618683,9.590085983276367,1.5651321411132812,0.6355915665626526,0.5957102179527283
3832378919.0,-0.5532867312431335,0.3221712112426758,9.648061752319336,1.209632158279419,0.9333571195602416,0.5336213707923889
3832387252.0,-0.6271957755088806,0.4596683382987976,9.804645538330078,1.5264548063278198,1.3845518827438354,0.5267823338508606
3832395585.0,-0.6552152633666992,0.3529157042503357,9.709310531616213,1.8314948081970213,1.8343892097473145,0.4048329889774322
3832403918.0,-0.6643814444541931,0.1885828971862793,9.706377029418944,1.5636210441589355,1.9282909631729128,0.4152836203575134
3832412251.0,-0.697688102722168,0.2506376504898071,9.945216178894045,1.4766863584518433,1.4929770231246948,0.4521937370300293
3832420584.0,-0.7107016444206238,0.5177788138389587,10.099729537963867,1.7689189910888672,1.0999521017074585,0.5834410786628723
3832428917.0,-0.6410154104232788,0.5415604710578918,9.864285469055176,1.9578750133514404,0.7252157926559448,0.4875669181346893
3832437250.0,-0.5785076022148132,0.3229321241378784,9.538012504577637,1.5613412857055664,0.5582109689712524,0.541023850440979
3832445583.0,-0.5511764883995056,0.1737641394138336,9.577935218811035,1.1362218856811523,0.8370731472969055,0.4967367649078369
3832453916.0,-0.594741940498352,0.3756647706031799,9.879968643188477,1.4708205461502075,1.282684087753296,0.4927153885364532
3832462249.0,-0.6231836080551147,0.5600287318229675,9.89857292175293,1.8923285007476809,1.8150759935379028,0.4721216261386871
3832470582.0,-0.6380309462547302,0.4360752701759338,9.703887939453123,1.783314228057861,1.82470703125,0.560285747051239
3832478915.0,-0.6623193025588989,0.249669462442398,9.678741455078123,1.0726474523544312,1.6351617574691772,0.5261932611465454
3832487248.0,-0.7225260138511658,0.2841337323188782,9.941404342651367,1.0950342416763306,1.3613710403442385,0.498965322971344
3832495581.0,-0.7099321484565735,0.4545077979564667,10.04345417022705,1.7930731773376465,1.0500298738479614,0.5481190085411072
3832503914.0,-0.6098748445510864,0.4550567865371704,9.817710876464844,2.0906081199646,0.6880494952201843,0.5070337057113647
3832512247.0,-0.5292897820472717,0.2886351943016052,9.545302391052246,1.534727931022644,0.7384071350097656,0.4409490525722503
3832520580.0,-0.5458694696426392,0.3119925856590271,9.644035339355469,1.1052030324935913,0.7996764183044434,0.6049057841300964
3832528913.0,-0.6228697299957275,0.4711556136608124,9.860583305358888,1.451917290687561,1.2816082239151,0.6205304861068726
3832537246.0,-0.6359736919403076,0.4064252972602844,9.82233715057373,1.8289332389831543,1.854649782180786,0.4873876273632049
3832545579.0,-0.6381851434707642,0.2311511039733886,9.68535041809082,1.6162071228027344,2.03044056892395,0.4216871857643127
3832553912.0,-0.6518890857696533,0.2242451906204223,9.828900337219238,1.2193658351898191,1.5718944072723389,0.4360055327415466
3832562245.0,-0.6910359859466553,0.4860615134239197,10.054908752441406,1.5166188478469849,1.0462646484375,0.4918445944786072
3832570578.0,-0.6461158394813538,0.5378301739692688,9.893583297729492,1.747223973274231,0.7723972797393799,0.5111064910888672
3832578911.0,-0.5777080059051514,0.3111197352409363,9.57520866394043,1.5646966695785522,0.7008566856384277,0.4644116759300232
3832587244.0,-0.535461962223053,0.1446876227855682,9.563344955444336,1.116268277168274,0.7745487689971924,0.3896692991256714
3832595577.0,-0.5927898287773132,0.3090985119342804,9.836671829223633,1.3946694135665894,1.0466488599777222,0.4449448585510254
3832603910.0,-0.6354900598526001,0.5050655007362366,9.93126392364502,1.911718487739563,1.5598045587539673,0.5862842202186584
3832612243.0,-0.6257490515708923,0.4504966735839844,9.691888809204102,1.8952997922897337,1.8350037336349487,0.4992214143276214
3832620576.0,-0.6449547410011292,0.2198225408792495,9.615236282348633,1.238934874534607,1.7370805740356443,0.5726318359375
3832628909.0,-0.7069456577301025,0.2132059335708618,9.891358375549316,1.0427298545837402,1.3136259317398071,0.447531908750534
3832637242.0,-0.7038682103157043,0.3592146933078766,10.10663890838623,1.62781023979187,1.0301790237426758,0.5235549807548523
3832645575.0,-0.6172784566879272,0.4239272177219391,9.870634078979492,2.0782363414764404,0.8233439922332764,0.4547038972377777
3832653908.0,-0.5145456790924072,0.270914077758789,9.552531242370604,1.6120318174362185,0.6899194121360779,0.510927140712738
3832662241.0,-0.5512265563011169,0.2230329364538192,9.588871955871582,1.079153299331665,0.7857678532600403,0.5166391134262085
3832670574.0,-0.6395236849784851,0.352684885263443,9.84245491027832,1.3742549419403076,1.0952646732330322,0.543175458908081
3832678907.0,-0.6619667410850525,0.3973258435726166,9.834551811218262,1.8477083444595337,1.65977680683136,0.6397923231124878
3832687240.0,-0.632357120513916,0.2155323177576065,9.700017929077148,1.778114676475525,1.756188988685608,0.4092386364936828
3832695573.0,-0.6503950357437134,0.1306004226207733,9.782074928283691,1.4618301391601562,1.5789128541946411,0.4283469021320343
3832703906.0,-0.6678171157836914,0.3575283586978912,10.020441055297852,1.4873929023742676,1.1379379034042358,0.4859276115894317
3832712239.0,-0.6495023965835571,0.4929449260234833,9.99964714050293,1.888230323791504,0.918142318725586,0.4830332696437835
3832720572.0,-0.5894963145256042,0.3535362482070923,9.670170783996582,1.9072613716125488,0.6101054549217224,0.3923076391220093
3832728905.0,-0.5301472544670105,0.1505172699689865,9.511228561401367,1.3910834789276123,0.7637908458709717,0.5133349299430847
3832737238.0,-0.5874443054199219,0.2819195985794067,9.783742904663086,1.2361942529678345,1.092293620109558,0.4583923518657684
3832745571.0,-0.6429616808891296,0.4992338716983795,9.936285018920898,1.8381288051605225,1.5033252239227295,0.5639998912811279
3832753904.0,-0.6489160656929016,0.4831419587135315,9.786389350891112,2.000113248825073,1.8266280889511108,0.4881304800510406
3832762237.0,-0.6363775730133057,0.2744710445404053,9.650542259216309,1.481271266937256,1.5361881256103516,0.564845085144043
3832770570.0,-0.6692940592765808,0.2159436643123626,9.809070587158203,1.1331738233566284,1.2314554452896118,0.4670499563217163
3832778903.0,-0.7126780152320862,0.4339685440063476,10.076226234436035,1.5421305894851685,0.9852003455162048,0.5377708673477173
3832787236.0,-0.6335638761520386,0.5199231505393982,9.96385669708252,1.9572093486785889,0.8033648133277893,0.4915883541107178
3832795569.0,-0.5600199103355408,0.3708511590957641,9.622488021850586,1.808467388153076,0.7345906496047974,0.4580337107181549
3832803902.0,-0.526642382144928,0.2656780481338501,9.566076278686523,1.290829300880432,0.8055932521820068,0.4599548280239105
3832812235.0,-0.6039328575134277,0.4372057914733886,9.844191551208496,1.2958754301071167,1.2661117315292358,0.5470688343048096
3832820568.0,-0.6406667828559875,0.4934212267398834,9.874629020690918,1.8517810106277464,1.587621569633484,0.358573704957962
3832828901.0,-0.6364691257476807,0.3460060358047485,9.747103691101074,1.9002175331115725,1.8069562911987305,0.4516045451164245
3832837234.0,-0.645975649356842,0.2247689515352249,9.726920127868652,1.5306808948516846,1.5146721601486206,0.552985668182373
3832845567.0,-0.6956477165222168,0.3661723434925079,9.98588752746582,1.3733839988708496,1.2522028684616089,0.6128717660903931
3832853900.0,-0.6862803101539612,0.5684323310852051,10.036598205566406,1.8013721704483032,1.05392324924469,0.4690222144126892
3832862233.0,-0.5857687592506409,0.5030857920646667,9.725147247314451,1.838564157485962,0.8676565289497375,0.4278346002101898
3832870566.0,-0.5427076816558838,0.2438904792070388,9.455300331115724,1.29346764087677,0.8035697340965271,0.4391047954559326
3832878899.0,-0.6025698184967041,0.2303716093301773,9.686229705810549,1.0730059146881104,1.0309216976165771,0.5148717761039734
3832887232.0,-0.6479790210723877,0.4871026277542114,9.97205638885498,1.6015301942825315,1.3879331350326538,0.5217620134353638
3832895565.0,-0.6462572813034058,0.5468944907188416,9.86343765258789,2.012817859649658,1.7041151523590088,0.4438434839248657
3832903898.0,-0.6223539710044861,0.3360150158405304,9.63355541229248,1.6077032089233398,1.6803451776504517,0.4786276519298553
3832912231.0,-0.6607479453086853,0.2123223096132278,9.734673500061035,1.0790507793426514,1.4277629852294922,0.5042418241500854
3832920564.0,-0.6742745041847229,0.3644039928913116,10.035128593444824,1.2851686477661133,1.0978516340255735,0.6333375573158264
3832928897.0,-0.6513147354125977,0.4633556306362152,9.97693920135498,1.8260897397994995,0.780593752861023,0.482649028301239
3832937230.0,-0.5716131925582886,0.3415845036506653,9.64181900024414,1.824501872062683,0.9065645933151244,0.5149741768836975
3832945563.0,-0.5075514316558838,0.227202907204628,9.555190086364746,1.3495115041732788,0.9061291813850404,0.4002992212772369
3832953896.0,-0.586715042591095,0.3048870265483856,9.737462043762209,1.1956980228424072,1.1029489040374756,0.5619763135910034
3832962229.0,-0.6654738783836365,0.4645217359066009,9.896943092346191,1.6134151220321655,1.5448970794677734,0.5364645719528198
3832970562.0,-0.6421423554420471,0.3260418474674225,9.771625518798828,1.8784966468811035,1.7930476665496826,0.4917421042919159
3832978895.0,-0.6405370831489563,0.1561568081378936,9.69163703918457,1.5122132301330566,1.644741177558899,0.5105685591697693
3832987228.0,-0.6572232842445374,0.2213807702064514,9.888381958007812,1.3020485639572144,1.2176750898361206,0.4933558404445648
3832995561.0,-0.6811439990997314,0.4613355100154876,10.054576873779297,1.6359041929244995,0.8314380049705505,0.5621299743652344
3833003894.0,-0.5975198745727539,0.4601608514785766,9.808355331420898,1.8884350061416624,0.7500103712081909,0.4724289178848266
3833012227.0,-0.5379748344421387,0.2227360010147094,9.552438735961914,1.4477421045303345,0.8291583061218262,0.4841602742671966
3833020560.0,-0.5554961562156677,0.1602295339107513,9.625030517578123,1.2467472553253174,1.051361918449402,0.5522429347038269
3833028893.0,-0.613614559173584,0.3667994141578674,9.96115779876709,1.345259666442871,1.305275797843933,0.4653081893920898
3833037226.0,-0.6348859667778015,0.4976584017276764,9.891769409179688,2.027084827423096,1.656575083732605,0.4643860757350921
3833045559.0,-0.6428234577178955,0.3382346630096435,9.675565719604492,1.8131037950515747,1.7581356763839722,0.5364645719528198
3833053892.0,-0.670225977897644,0.1920943409204483,9.685938835144045,1.0920116901397705,1.4601906538009644,0.5794195532798767
3833062225.0,-0.6956303119659424,0.2845374047756195,9.958020210266112,1.1741310358047483,1.1528198719024658,0.5530112981796265
3833070558.0,-0.685903787612915,0.4343025982379913,10.048612594604492,1.978238582611084,0.9604825377464294,0.4526547193527221
3833078891.0,-0.5841267704963684,0.4037875533103943,9.759976387023926,2.01776123046875,0.9961631298065186,0.5044979453086853
3833087224.0,-0.5214743614196777,0.2550874650478363,9.520493507385254,1.4952309131622314,0.9686277508735656,0.5342360138893127
3833095557.0,-0.5646738409996033,0.3089742958545685,9.67603588104248,1.207121968269348,0.9862505197525024,0.4588021636009216
3833103890.0,-0.634527862071991,0.4590620398521423,9.864110946655272,1.5837537050247192,1.397819995880127,0.5244002342224121
3833112223.0,-0.6476086974143982,0.3879700899124145,9.78470230102539,1.9770604372024536,1.7101346254348757,0.5064446330070496
3833120556.0,-0.6350200772285461,0.223919466137886,9.63325023651123,1.698121428489685,1.6989666223526,0.5355680584907532
3833128889.0,-0.6744728684425354,0.2432432025671005,9.841622352600098,1.41190767288208,1.3787885904312134,0.5314441323280334
3833137222.0,-0.7055124640464783,0.5245117545127869,10.06974983215332,1.685314059257507,1.1142446994781494,0.4516301453113556
3833145555.0,-0.625000536441803,0.5886919498443604,9.885493278503418,1.9923521280288696,0.8378161191940308,0.4219177067279815
3833153888.0,-0.5701274275779724,0.3444150984287262,9.536998748779297,1.5663872957229614,0.7567213177680969,0.4477880597114563
3833162221.0,-0.5570705533027649,0.1790213584899902,9.54509735107422,1.1401920318603516,0.8174015283584595,0.5000154972076416
3833170554.0,-0.6228988170623779,0.3685452938079834,9.87289810180664,1.361268401145935,1.1988487243652344,0.5409725904464722
3833178887.0,-0.6519646048545837,0.5679747462272644,9.9263334274292,2.038918972015381,1.4770705699920654,0.5170233249664307
3833187220.0,-0.6171238422393799,0.4881103336811065,9.701765060424805,1.9975004196166992,1.6941510438919067,0.5336726307868958
3833195553.0,-0.6305628418922424,0.2910225689411163,9.63279914855957,1.1308941841125488,1.5774015188217163,0.5187395215034485
3833203886.0,-0.6862649917602539,0.3006985187530517,9.90474796295166,0.9940115213394164,1.2658298015594482,0.3999406397342682
3833212219.0,-0.7018973231315613,0.4420172274112701,10.080528259277344,1.647712469100952,0.8988803625106812,0.5424838662147522
3833220552.0,-0.6160473823547363,0.4469824135303497,9.853336334228516,2.0903265476226807,0.8385587930679321,0.4667169749736786
3833228885.0,-0.5207650661468506,0.3068066239356994,9.607364654541016,1.5915405750274658,0.8546702265739441,0.4267844259738922
3833237218.0,-0.5442671775817871,0.2906341850757599,9.651217460632324,1.1100184917449951,0.9568197727203368,0.5016803741455078
3833245551.0,-0.5977985262870789,0.4753811061382293,9.897698402404783,1.3365765810012815,1.1701351404190063,0.4664608836174011
3833253884.0,-0.6341356635093689,0.4398500323295593,9.808403968811035,1.784134030342102,1.5283757448196411,0.4529621005058288
3833262217.0,-0.6233681440353394,0.2384331226348877,9.67262363433838,1.5896962881088257,1.7969156503677368,0.5318796634674072
3833270550.0,-0.6461035013198853,0.156351551413536,9.797856330871582,1.2527921199798584,1.5838048458099363,0.5039857029914856
3833278883.0,-0.6894117593765259,0.409257024526596,10.07611083984375,1.4493558406829834,1.2048935890197754,0.4406672716140747
3833287216.0,-0.67436283826828,0.5698722004890442,9.988917350769045,1.81195080280304,0.8441939353942871,0.6115142107009888
3833295549.0,-0.5902566313743591,0.4057489931583404,9.646636962890623,1.756675362586975,0.7399695515632629,0.460057258605957
3833303882.0,-0.5717481970787048,0.1509464383125305,9.51172924041748,1.151462197303772,0.8196297883987427,0.4813939332962036
3833312215.0,-0.5753675103187561,0.2191487997770309,9.791576385498049,1.071930170059204,0.9435003399848938,0.6349000334739685
3833320548.0,-0.6261510252952576,0.4462531208992004,9.976149559020996,1.750246286392212,1.4029940366744995,0.5194822549819946
3833328881.0,-0.6357643604278564,0.483089804649353,9.775558471679688,2.02416467666626,1.634316086769104,0.4397707283496856
3833337214.0,-0.633230447769165,0.2554540038108825,9.57680892944336,1.43629252910614,1.655678391456604,0.345126211643219
3833345547.0,-0.6691617369651794,0.1811828166246414,9.786920547485352,0.9480851292610168,1.3931838274002075,0.3748642802238464
3833353880.0,-0.7107011675834656,0.3413102924823761,10.052736282348633,1.369797945022583,1.0817915201187134,0.4631565809249878
3833362213.0,-0.641977846622467,0.4215879440307617,9.94482421875,2.1053109169006348,1.0399636030197144,0.5132068395614624
3833370546.0,-0.5450800061225891,0.2766737639904022,9.601786613464355,1.7798563241958618,0.8384562730789185,0.3686400651931762
3833378879.0,-0.5151191353797913,0.2145638316869735,9.584065437316896,1.159966230392456,0.7663266062736511,0.5371049046516418
3833387212.0,-0.5812567472457886,0.3300128281116485,9.83327579498291,1.2669569253921509,1.0770785808563232,0.4386181235313415
3833395545.0,-0.6611403822898865,0.4158608913421631,9.881864547729492,1.8193790912628167,1.4076045751571655,0.5706851482391357
3833403878.0,-0.6471290588378906,0.3125205039978027,9.679329872131348,1.8096458911895752,1.7941745519638062,0.4857740104198456
3833412211.0,-0.6353220343589783,0.1549979448318481,9.672930717468262,1.4427731037139893,1.6834443807601929,0.4957379102706909
3833420544.0,-0.6821297407150269,0.2765157520771026,9.972867965698242,1.3390098810195925,1.3187744617462158,0.5893579125404358
3833428877.0,-0.666259765625,0.505894124507904,10.07492446899414,1.8075453042984009,0.9218562245368958,0.5410494208335876
3833437210.0,-0.6105486750602722,0.4765425324440002,9.76674461364746,1.978750705718994,0.6269339323043823,0.4764503240585327
3833445543.0,-0.5473337769508362,0.2128084748983383,9.528417587280272,1.4718451499938965,0.7906601428985596,0.4837504029273987
3833453876.0,-0.5498247146606445,0.1792001724243164,9.643827438354492,1.151206135749817,0.8841009140014648,0.4393097162246704
3833462209.0,-0.6013639569282532,0.4287766218185425,9.95996379852295,1.6484041213989258,1.31121826171875,0.6116678714752197
3833470542.0,-0.6302210688591003,0.5655632019042969,9.879412651062012,2.0900447368621826,1.6530145406723022,0.559005081653595
3833478875.0,-0.623220682144165,0.424106240272522,9.61957550048828,1.710851788520813,1.7880274057388306,0.4863374829292297
3833487208.0,-0.6464861631393433,0.2108771353960037,9.682135581970217,1.0967246294021606,1.5519152879714966,0.4607488214969635
3833495541.0,-0.6898956894874573,0.3100810647010803,9.999818801879885,1.1963130235671997,1.1973118782043457,0.5109527707099915
3833503874.0,-0.69273442029953,0.5073468685150146,10.067431449890137,1.9286493062973025,0.9496477246284484,0.501039981842041
3833512207.0,-0.5999442338943481,0.4524193108081817,9.738359451293944,2.1146085262298584,0.7481149435043335,0.4829563796520233
3833520540.0,-0.5211990475654602,0.3055122196674347,9.555333137512209,1.413931369781494,0.7334123849868774,0.4250938296318054
3833528873.0,-0.5321786403656006,0.3163702487945556,9.698189735412598,1.0430116653442385,1.0242364406585691,0.4932789504528045
3833537206.0,-0.615717887878418,0.4700798094272613,9.93172836303711,1.4893652200698853,1.3179292678833008,0.5791122913360596
3833545539.0,-0.6459586024284363,0.445205956697464,9.785385131835938,1.9581828117370603,1.5625195503234863,0.5123615860939026
3833553872.0,-0.6270724534988403,0.2423448264598846,9.62853717803955,1.7068557739257812,1.791818141937256,0.4786019921302795
3833562205.0,-0.6706985831260681,0.2234190255403518,9.813566207885742,1.0990298986434937,1.441389799118042,0.4807791411876678
3833570538.0,-0.7192655801773071,0.463266909122467,10.089153289794922,1.4345252513885498,1.0580215454101562,0.5497839450836182
3833578871.0,-0.6774911284446716,0.5660039186477661,9.938776016235352,1.8903050422668457,0.875315248966217,0.4215334951877594
3833587204.0,-0.5743567943572998,0.3624167144298553,9.56916332244873,1.6457914113998413,0.8261358737945557,0.3856222629547119
3833595537.0,-0.5388379693031311,0.1497662216424942,9.51923942565918,1.026541829109192,0.950262486934662,0.4728131890296936
3833603870.0,-0.571619987487793,0.3153225481510162,9.8635835647583,1.2844257354736328,1.0685744285583496,0.4928690195083618
3833612203.0,-0.6073122024536133,0.5255412459373474,9.9415283203125,1.792484164237976,1.3627028465270996,0.4705591201782226
3833620536.0,-0.6204378604888916,0.4579143524169922,9.713704109191896,1.7862087488174438,1.668434500694275,0.5027050375938416
3833628869.0,-0.6409702301025391,0.2464587688446045,9.567594528198242,1.2982829809188845,1.5841891765594482,0.3881837129592895
3833637202.0,-0.6932899951934814,0.2094160765409469,9.853826522827148,0.9507234692573548,1.467977523803711,0.5915864109992981
3833645535.0,-0.7181209325790405,0.4152349829673767,10.100763320922852,1.5954338312149048,1.308451771736145,0.5180478692054749
3833653868.0,-0.6515915989875793,0.4773518741130829,9.900909423828123,2.113046407699585,1.007638454437256,0.4473014175891876
3833662201.0,-0.5763859748840332,0.2872154116630554,9.591787338256836,1.6432299613952637,0.7991897463798523,0.3768109977245331
3833670534.0,-0.5233091711997986,0.1952010840177536,9.58204174041748,1.0520535707473757,0.6945812106132507,0.4910505414009094
3833678867.0,-0.5931995511054993,0.3461475372314453,9.839929580688477,1.3428261280059814,0.8073350191116333,0.5035758018493652
3833687200.0,-0.6116746068000793,0.4509229660034179,9.880878448486328,1.861488938331604,1.2144221067428589,0.5668174028396606
3833695533.0,-0.6265560388565063,0.2941761612892151,9.642598152160645,1.7156157493591309,1.6667182445526123,0.4792422950267792
3833703866.0,-0.6340948939323425,0.1580903232097625,9.665992736816406,1.322001814842224,1.6765028238296509,0.4709433019161224
3833712199.0,-0.6804674863815308,0.3090600073337555,9.963274002075195,1.3577852249145508,1.3472576141357422,0.4019642174243927
3833720532.0,-0.6949841976165771,0.4757324755191803,10.047218322753906,1.7684067487716677,1.1160120964050293,0.4732486009597778
3833728865.0,-0.6379609107971191,0.4228300452232361,9.784164428710938,1.9432238340377808,0.8013413548469543,0.4930483698844909
3833737198.0,-0.5668911933898926,0.1897006332874298,9.55219841003418,1.4116517305374146,0.6475021839141846,0.5235549807548523
3833745531.0,-0.536012589931488,0.1885489374399185,9.777091979980469,1.1447001695632937,0.786997377872467,0.4842883348464966
3833753864.0,-0.589403510093689,0.4261427521705627,9.979904174804688,1.6439214944839478,1.114372968673706,0.6073647141456604
3833762197.0,-0.6119149327278137,0.5035214424133301,9.831387519836426,2.008540391921997,1.654987096786499,0.5511927604675293
3833770530.0,-0.619705319404602,0.3222649991512298,9.547499656677246,1.7007595300674438,1.818943858146668,0.4277320802211761
3833778863.0,-0.654236912727356,0.1778834611177444,9.703896522521973,1.0927799940109253,1.7433559894561768,0.5336982011795044
3833787196.0,-0.7263880968093872,0.3158557713031769,10.05526351928711,1.179842829704285,1.3171095848083496,0.6512418985366821
3833795529.0,-0.6931601762771606,0.4713393747806549,10.03625774383545,1.9370508193969729,1.1564825773239136,0.4659229218959808
3833803862.0,-0.5873135328292847,0.3766333758831024,9.727815628051758,1.99757719039917,0.7064661383628845,0.486183762550354
3833812195.0,-0.5135812759399414,0.2360152006149292,9.605717658996582,1.3616526126861572,0.6619998812675476,0.4571885466575622
3833820528.0,-0.5403114557266235,0.3332938849925995,9.800103187561035,1.1879624128341677,0.8020584583282471,0.4821366965770721
3833828861.0,-0.6256062984466553,0.4789640307426452,9.867890357971191,1.7303439378738403,1.3288408517837524,0.5444305539131165
3833837194.0,-0.6259431838989258,0.3958080410957336,9.710477828979492,1.977956891059876,1.7167171239852903,0.4043462872505188
3833845527.0,-0.6288252472877502,0.195757582783699,9.62594509124756,1.523790955543518,1.845224022865296,0.4901540279388428
3833853860.0,-0.6865596771240234,0.2317110896110534,9.87132453918457,1.185093879699707,1.5298101902008057,0.5132580995559692
3833862193.0,-0.7120492458343506,0.5025272369384766,10.114421844482422,1.5727651119232178,1.12979257106781,0.5074948072433472
3833870526.0,-0.6747831702232361,0.5357053875923157,9.885552406311035,1.953648805618286,0.8955249190330505,0.392025887966156
3833878859.0,-0.5618665218353271,0.3297496438026428,9.574864387512209,1.6995044946670532,0.7958342432975769,0.4637969434261322
3833887192.0,-0.5425643920898438,0.1882271766662597,9.571282386779783,1.1776143312454224,0.8693471550941467,0.4958916306495666
3833895525.0,-0.5815309286117554,0.4033336043357849,9.872286796569824,1.446128487586975,1.12979257106781,0.5498607754707336
3833903858.0,-0.6222348809242249,0.5419169664382935,9.8936128616333,1.834901571273804,1.4650318622589111,0.504651665687561
3833912191.0,-0.6131073236465454,0.4332950711250305,9.593026161193848,1.8350296020507808,1.7317017316818235,0.4058831334114074
3833920524.0,-0.6452919244766235,0.2308270782232284,9.610815048217772,1.2406766414642334,1.852677702903748,0.48372483253479
3833928857.0,-0.7069578170776367,0.2944776117801666,9.931438446044922,1.09849214553833,1.2605791091918943,0.5099538564682007
3833937190.0,-0.7109813094139099,0.4708245694637298,10.095914840698242,1.651938796043396,1.106816649436951,0.5158963799476624
3833945523.0,-0.6052490472793579,0.4667399823665619,9.831063270568848,1.888383865356445,0.8067459464073181,0.4698674976825714
3833953856.0,-0.5326803922653198,0.2808766365051269,9.55837631225586,1.5844711065292358,0.6473742127418518,0.4150274991989136
3833962189.0,-0.541634738445282,0.2565224170684814,9.650172233581545,1.0629137754440308,0.6679424047470093,0.4756050705909729
3833970522.0,-0.6074542999267578,0.4078130722045898,9.873246192932127,1.4097050428390503,1.0997471809387207,0.5538310408592224
3833978855.0,-0.6296457648277283,0.4411107003688812,9.832905769348145,1.9141007661819456,1.5407220125198364,0.4025533199310303
3833987188.0,-0.6329799890518188,0.2531470954418182,9.630237579345703,1.6813185214996338,1.818534016609192,0.5559313893318176
3833995521.0,-0.625636637210846,0.1627399176359176,9.745073318481444,1.1976958513259888,1.6044756174087524,0.6330301761627197
3834003854.0,-0.6909781694412231,0.3897471129894256,10.074883460998535,1.4082705974578855,1.125463843345642,0.5260138511657715
3834012187.0,-0.6826684474945068,0.552844762802124,10.01163387298584,1.8452750444412231,0.9936529397964478,0.4756050705909729
3834020520.0,-0.58928382396698,0.3948706984519958,9.648233413696287,1.850346922874451,0.7123575806617737,0.4585204720497131
3834028853.0,-0.5432226657867432,0.1577559560537338,9.525426864624023,1.244109034538269,0.7542111873626709,0.5623605251312256
3834037186.0,-0.5838937163352966,0.2706921994686126,9.804966926574709,1.1516928672790527,0.9887093901634216,0.4140540659427643
3834045519.0,-0.6246436238288879,0.511809766292572,9.970986366271973,1.7375417947769165,1.3393428325653076,0.4767577648162842
3834053852.0,-0.6188960671424866,0.4865887761116028,9.77183437347412,1.988996744155884,1.7062667608261108,0.5342873334884644
3834062185.0,-0.6207271814346313,0.2320338189601898,9.604506492614746,1.4593968391418457,1.6604942083358765,0.475118488073349
3834070518.0,-0.6802211999893188,0.197876900434494,9.78834629058838,1.1448283195495603,1.2798664569854736,0.4947133362293243
3834078851.0,-0.7078740000724792,0.3651066720485687,10.101263999938965,1.4330906867980957,1.105279803276062,0.4904613792896271
3834087184.0,-0.6724696159362793,0.4680089056491852,9.953248977661133,2.0129201412200928,1.0043084621429443,0.5005277395248413
3834095517.0,-0.5636568069458008,0.3331575691699981,9.611001014709473,1.8408437967300413,0.8440402746200562,0.4945340454578399
3834103850.0,-0.5438665747642517,0.2552705705165863,9.578150749206545,1.1326357126235962,0.8093585968017578,0.4583923518657684
3834112183.0,-0.6012707352638245,0.3557200133800506,9.814807891845703,1.1611956357955933,1.0904748439788818,0.5786768198013306
3834120516.0,-0.6497266888618469,0.4478817582130432,9.89634895324707,1.6707396507263184,1.5277609825134275,0.5289595127105713
3834128849.0,-0.6322058439254761,0.3190834522247314,9.683656692504885,1.8957606554031368,1.9580289125442505,0.5026537179946899
3834137182.0,-0.6299991011619568,0.1628094911575317,9.700623512268066,1.404146671295166,1.6088557243347168,0.4803181290626526
3834145515.0,-0.6850907206535339,0.3113321959972381,9.954370498657228,1.246977925300598,1.3086057901382446,0.5428425073623657
3834153848.0,-0.684862494468689,0.5184624791145325,10.05882167816162,1.720789909362793,0.8869953155517578,0.4524498283863067
3834162181.0,-0.626893937587738,0.4586161077022552,9.768424987792969,1.9498836994171145,0.6101823449134827,0.4811378419399261
3834170514.0,-0.5508332848548889,0.2061020135879516,9.51961898803711,1.3925434350967407,0.7489601373672485,0.4145151376724243
3834178847.0,-0.5426360964775085,0.2014884352684021,9.683561325073242,1.176692247390747,0.9063597321510316,0.4701236188411712
3834187180.0,-0.6031332612037659,0.4348412752151489,9.937785148620604,1.6604939699172974,1.2349902391433716,0.5158450603485107
3834195513.0,-0.6312216520309448,0.5105522871017456,9.863897323608398,1.92598569393158,1.6854166984558103,0.5106198191642761
3834203846.0,-0.6084825396537781,0.3599255383014679,9.603631973266602,1.7338787317276,1.6565752029418943,0.4841858744621277
3834212179.0,-0.6627236008644104,0.1699942797422409,9.698586463928224,1.1079949140548706,1.457526683807373,0.4799339175224304
3834220512.0,-0.7065603137016296,0.3344616889953613,10.005050659179688,1.2390116453170776,1.1560728549957275,0.5119261145591736
3834228845.0,-0.6727874875068665,0.5004861354827881,10.0719633102417,1.9717580080032349,1.0600194931030271,0.4908967912197113
3834237178.0,-0.5570172071456909,0.4008671045303345,9.732731819152832,1.982977271080017,0.963146448135376,0.5130530595779419
3834245511.0,-0.5015501976013184,0.2491478323936462,9.525519371032717,1.3726924657821655,0.7591546773910522,0.5171257853507996
3834253844.0,-0.5647099614143372,0.2965138554573059,9.721508026123049,1.13340425491333,0.9765426516532898,0.4004273116588592
3834262177.0,-0.6284967660903931,0.4325103461742401,9.899386405944824,1.6202540397644043,1.3715654611587524,0.5310856103897095
3834270510.0,-0.6246170401573181,0.4025286734104156,9.777087211608888,1.901908278465271,1.570844292640686,0.5306245684623718
3834278843.0,-0.6257104873657227,0.2097813934087753,9.691228866577148,1.5618537664413452,1.822068691253662,0.4361079633235931
3834287176.0,-0.6560357213020325,0.2509633600711822,9.932669639587402,1.2554816007614136,1.3270221948623655,0.5729135274887085
3834295509.0,-0.6824589967727661,0.4921442568302154,10.11427879333496,1.6840592622756958,1.1247209310531616,0.5173819661140442
3834303842.0,-0.6518277525901794,0.5356625318527222,9.869488716125488,1.9420710802078247,0.7637139558792114,0.5732465386390686
3834312175.0,-0.5525731444358826,0.3029913604259491,9.552156448364258,1.592949390411377,0.8370476365089417,0.4136187136173248
3834320508.0,-0.5410839319229126,0.153957799077034,9.60124683380127,1.2145246267318726,0.902901828289032,0.4216871261596679
3834328841.0,-0.614157497882843,0.3551552891731262,9.900771141052246,1.4121640920639038,1.0995423793792725,0.5454039573669434
3834337174.0,-0.6516736745834351,0.5435613393783569,9.963048934936523,1.951343655586243,1.52578866481781,0.5006301999092102
3834345507.0,-0.6592012047767639,0.4492957293987274,9.69667148590088,1.9657645225524905,1.7405129671096802,0.5535492300987244
3834353840.0,-0.6224427819252014,0.2400062829256057,9.63828182220459,1.3713605403900146,1.5415414571762085,0.5005789399147034
3834362173.0,-0.6951059699058533,0.2574609220027923,9.920307159423828,1.141421675682068,1.3706177473068235,0.4694320857524872
3834370506.0,-0.7039295434951782,0.4428018033504486,10.07660961151123,1.5941016674041748,1.0134016275405884,0.5292925238609314
3834378839.0,-0.6172014474868774,0.4381723403930664,9.827184677124023,2.048985242843628,0.8646597266197205,0.4405904412269592
3834387172.0,-0.522479772567749,0.2673167288303375,9.5204496383667,1.7406662702560425,0.7689393162727356,0.4450985491275787
3834395505.0,-0.5425001978874207,0.2615794539451599,9.653705596923828,1.1494899988174438,0.8896592855453491,0.5271409153938293
3834403838.0,-0.6307315826416016,0.4225023984909057,9.851141929626465,1.4379318952560425,1.201102614402771,0.5175356268882751
3834412171.0,-0.6366090178489685,0.4537615478038788,9.810554504394531,1.852216720581055,1.6371338367462158,0.529062032699585
3834420504.0,-0.6264433264732361,0.2680943012237549,9.647176742553713,1.671277403831482,1.6111608743667605,0.4642067551612854
3834428837.0,-0.6404251456260681,0.1667305380105972,9.753626823425291,1.2796359062194824,1.3895210027694702,0.458827793598175
3834437170.0,-0.6532084941864014,0.3914614021778106,10.004284858703612,1.433628797531128,1.0274125337600708,0.5884101986885071
3834445503.0,-0.6444321870803833,0.5679242014884949,9.990280151367188,1.9013960361480715,0.9094334840774536,0.4630285501480102
3834453836.0,-0.5731995105743408,0.4185532629489898,9.632729530334473,1.768739938735962,0.8759556412696838,0.4308570921421051
3834462169.0,-0.5313042402267456,0.2046882361173629,9.512561798095703,1.2890619039535522,0.9779257774353028,0.4859020113945007
3834470502.0,-0.5573899149894714,0.2702935039997101,9.778924942016602,1.29295551776886,1.126616597175598,0.4802926182746887
3834478835.0,-0.6082656383514404,0.5119889974594116,9.95675277709961,1.806366920471192,1.2827608585357666,0.5511670708656311
3834487168.0,-0.60316401720047,0.5038755536079407,9.78590488433838,1.9790328741073608,1.5889536142349243,0.4063954651355743
3834495501.0,-0.6074681282043457,0.2642796635627746,9.574289321899414,1.5005074739456177,1.567975401878357,0.417409598827362
3834503834.0,-0.6777790188789368,0.2093555182218551,9.792940139770508,0.9698315858840942,1.3461047410964966,0.4762198328971863
3834512167.0,-0.7157930731773376,0.3918527364730835,10.077147483825684,1.4258675575256348,1.209222435951233,0.4683562815189361
3834520500.0,-0.6423377394676208,0.4974983334541321,9.997729301452637,2.017453908920288,1.014528512954712,0.4680233001708984
3834528833.0,-0.5417850613594055,0.3417611122131347,9.642763137817385,1.903060793876648,0.8763910531997681,0.4299861192703247
3834537166.0,-0.5248684883117676,0.2346061021089553,9.598764419555664,1.226204514503479,0.8234207630157471,0.4915115237236023
3834545499.0,-0.5608606338500977,0.3534097671508789,9.801746368408203,1.2132182121276855,1.0344053506851196,0.5435084700584412
3834553832.0,-0.6242815256118774,0.4570431113243103,9.872442245483398,1.6992229223251345,1.3622419834136963,0.4800620377063751
3834562165.0,-0.6245833039283752,0.3495336174964905,9.66965675354004,1.910104870796204,1.6796023845672607,0.4272198677062988
3834570498.0,-0.6327601671218872,0.1909190863370895,9.677397727966309,1.4189517498016355,1.7161024808883667,0.5493484735488892
3834578831.0,-0.6822841763496399,0.3023168742656708,9.962535858154297,1.293723702430725,1.4674394130706787,0.5688664317131042
3834587164.0,-0.7079272866249084,0.5196210145950317,10.092046737670898,1.7602357864379885,1.0728776454925537,0.530726969242096
3834595497.0,-0.6393600702285767,0.4727286696434021,9.7561616897583,1.914945602416992,0.8500083684921265,0.4253243505954742
3834603830.0,-0.5497713685035706,0.2246073782444,9.509089469909668,1.4426707029342651,0.896472692489624,0.4656924307346344
3834612163.0,-0.5604681372642517,0.1649660170078277,9.671659469604492,1.0913712978363037,0.9137110114097596,0.5631545186042786
3834620496.0,-0.6345842480659485,0.4237602353096008,9.970415115356444,1.5689486265182495,1.27320659160614,0.4601084887981415
3834628829.0,-0.6423333287239075,0.5435379147529602,9.888973236083984,1.9770859479904173,1.6029644012451172,0.5986559391021729
3834637162.0,-0.6473469734191895,0.3639682233333587,9.57337474822998,1.7892056703567505,1.7650513648986816,0.492100715637207
3834645495.0,-0.6653053164482117,0.1799831837415695,9.650089263916016,1.0241084098815918,1.6865694522857666,0.601294219493866
3834653828.0,-0.7155596613883972,0.2769897282123565,9.978727340698242,1.10143780708313,1.4504828453063965,0.4966087639331817
3834662161.0,-0.7056330442428589,0.4502664506435394,10.023298263549805,1.8749874830245967,1.099388599395752,0.5827494263648987
3834670494.0,-0.6211864948272705,0.415559709072113,9.706564903259276,2.062124967575073,0.8496241569519043,0.5216594934463501
3834678827.0,-0.5283733606338501,0.2673947215080261,9.546677589416504,1.3629847764968872,0.8318990468978882,0.500245988368988
3834687160.0,-0.5618271827697754,0.2465370446443557,9.708532333374023,1.0979028940200806,0.8399419188499451,0.5259370803833008
3834695493.0,-0.6628152132034302,0.4307903051376343,9.890992164611816,1.438956379890442,1.1977472305297852,0.534748375415802
3834703826.0,-0.6420848965644836,0.4248657524585724,9.79875373840332,1.987382769584656,1.622482419013977,0.5886919498443604
3834712159.0,-0.6266285181045532,0.2463925778865814,9.632984161376951,1.660340428352356,1.8473243713378904,0.5427913069725037
3834720492.0,-0.6317058205604553,0.1868169158697128,9.800162315368652,1.337498426437378,1.5357270240783691,0.5321357250213623
3834728825.0,-0.6655749082565308,0.435588389635086,10.047784805297852,1.5600606203079224,1.071212887763977,0.4636688232421875
3834737158.0,-0.6359710097312927,0.558300256729126,9.959009170532228,1.892225980758667,0.8667857050895691,0.4935350716114044
3834745491.0,-0.5578387975692749,0.3579341471195221,9.585088729858398,1.6757599115371704,0.7207844853401184,0.482239156961441
3834753824.0,-0.5341243743896484,0.1457462459802627,9.561506271362305,1.1316879987716677,0.8545676469802856,0.3502746224403381
3834762157.0,-0.5668001174926758,0.3038603663444519,9.873123168945312,1.235989332199097,1.0910639762878418,0.4554723501205444
3834770490.0,-0.6358723640441895,0.51716548204422,10.01015281677246,1.9482957124710083,1.372820496559143,0.515281617641449
3834778823.0,-0.6150673627853394,0.5157545208930969,9.73639678955078,2.044272184371948,1.6873635053634644,0.458341121673584
3834787156.0,-0.6195774674415588,0.255815327167511,9.565258026123049,1.4087574481964111,1.6549358367919922,0.3933066129684448
3834795489.0,-0.6543706655502319,0.1923399418592453,9.806791305541992,0.9650163054466248,1.2817875146865845,0.4778079688549042
3834803822.0,-0.695334792137146,0.4009147882461548,10.102585792541504,1.4618555307388306,0.9700621962547302,0.5226840972900391
3834812155.0,-0.6466010808944702,0.4928958117961883,9.94089126586914,2.128337860107422,0.950262486934662,0.4498627781867981
3834820488.0,-0.5386374592781067,0.3535254895687103,9.608642578125,1.824988603591919,0.8726769685745239,0.3642856478691101
3834828821.0,-0.5437233448028564,0.2338622063398361,9.605374336242676,1.2149088382720947,0.9557952284812928,0.4687917530536651
3834837154.0,-0.6217242479324341,0.3736658990383148,9.854869842529297,1.1856316328048706,1.208351492881775,0.45437091588974
3834845487.0,-0.6702778935432434,0.4622390270233154,9.875385284423828,1.8303934335708616,1.5097286701202393,0.4695602059364319
3834853820.0,-0.630377471446991,0.3241139650344848,9.70475959777832,1.850833535194397,1.7357231378555298,0.5508085489273071
3834862153.0,-0.6159694790840149,0.1505160331726074,9.724061012268066,1.3188512325286863,1.5706905126571655,0.5011681318283081
3834870486.0,-0.6520522236824036,0.3017298579216003,9.985929489135742,1.2252569198608398,1.2635756731033323,0.6159455180168152
3834878819.0,-0.6657187342643738,0.5218424797058105,10.072904586791992,1.7360304594039917,0.8803613185882568,0.5155377388000488
3834887152.0,-0.5992706418037415,0.4910184144973755,9.748770713806152,1.99419629573822,0.8039026856422424,0.4338538944721222
3834895485.0,-0.5456238389015198,0.249262049794197,9.469831466674805,1.4518147706985474,0.9117899537086488,0.4844419956207275
3834903818.0,-0.5579073429107666,0.1688930541276931,9.654499053955078,1.0528475046157837,1.018806219100952,0.3790138065814972
3834912151.0,-0.6270948052406311,0.4235434532165527,9.991860389709473,1.5186421871185305,1.406989812850952,0.4810865819454193
3834920484.0,-0.6456603407859802,0.5575239658355713,9.89982795715332,2.026982545852661,1.5874677896499634,0.470738410949707
3834928817.0,-0.6194835305213928,0.3583277463912964,9.599592208862305,1.661774754524231,1.6615699529647827,0.4285005033016205
3834937150.0,-0.6631761193275452,0.1784113645553589,9.64646816253662,0.9786943793296814,1.500200271606445,0.4140797555446625
3834945483.0,-0.7124471664428711,0.2685884535312652,9.96994400024414,1.1788694858551023,1.168188452720642,0.5753981471061707
3834953816.0,-0.6818842887878418,0.4800757467746734,10.063443183898926,1.854214310646057,0.9541302919387816,0.5651012063026428
3834962149.0,-0.5950642228126526,0.4368505477905273,9.729320526123049,2.014456987380981,0.8751103281974792,0.4997080564498901
3834970482.0,-0.522429347038269,0.2442123293876648,9.527266502380373,1.3814271688461304,0.8704230785369873,0.4579313695430755
3834978815.0,-0.5553181171417236,0.2670871615409851,9.731285095214844,1.0307424068450928,0.8730355501174927,0.4839810132980346
3834987148.0,-0.630824089050293,0.4444036781787872,9.923376083374023,1.4346789121627808,1.3349370956420898,0.6344389915466309
3834995481.0,-0.6605286002159119,0.4340142905712127,9.784289360046388,1.8226832151412964,1.6558576822280884,0.5758336186408997
3835003814.0,-0.6223929524421692,0.2337164282798767,9.62657356262207,1.6361606121063232,1.6947404146194458,0.4538074433803558
3835012147.0,-0.6424705982208252,0.1909253001213073,9.823567390441896,1.262346267700195,1.512110710144043,0.5631289482116699
3835020480.0,-0.6868168115615845,0.4237596392631531,10.104252815246582,1.3678001165390017,0.967321515083313,0.5881540179252625
3835028813.0,-0.6607523560523987,0.5500463247299194,9.98392105102539,1.9210163354873653,0.868527352809906,0.60905522108078
3835037146.0,-0.5740928053855896,0.3176874220371246,9.604948043823242,1.666820764541626,0.8927584886550903,0.4805998504161834
3835045479.0,-0.5014999508857727,0.1516404002904892,9.533608436584473,1.239857196807861,0.941656231880188,0.5045491456985474
3835053812.0,-0.5700603723526001,0.2866825461387634,9.83852481842041,1.339189052581787,1.1222364902496338,0.5472224950790405
3835062145.0,-0.6195775866508484,0.5328661799430847,10.019606590270996,1.83574652671814,1.412752985954285,0.6195570826530457
3835070478.0,-0.624764621257782,0.4825326800346374,9.758374214172363,2.064891815185547,1.6429483890533447,0.567432165145874
3835078811.0,-0.6236440539360046,0.221793919801712,9.563159942626951,1.4026355743408203,1.6241475343704224,0.4670243263244629
3835087144.0,-0.6774144172668457,0.2231951653957367,9.804895401000977,1.0037192106246948,1.4129067659378052,0.4655387103557586
3835095477.0,-0.7107664942741394,0.3924851715564728,10.093032836914062,1.6258889436721802,1.2894461154937744,0.5892042517662048
3835103810.0,-0.6397130489349365,0.497795045375824,9.930093765258787,1.9401756525039675,1.080485224723816,0.3873896896839142
3835112143.0,-0.5474609732627869,0.3352532684803009,9.602792739868164,1.6651557683944702,0.9542839527130128,0.4598011374473572
3835120476.0,-0.5332873463630676,0.2413226217031479,9.605066299438477,1.0703164339065552,0.8779279589653015,0.4621063768863678
3835128809.0,-0.5845142602920532,0.3878164887428283,9.858404159545898,1.2733346223831177,0.9567171931266784,0.5534467101097107
3835137142.0,-0.6305397152900696,0.470219612121582,9.85316562652588,1.7471215724945068,1.4117543697357178,0.457777589559555
3835145475.0,-0.6265632510185242,0.326649934053421,9.662105560302734,1.868635177612305,1.722070574760437,0.4250938296318054
3835153808.0,-0.6245033144950867,0.1646573096513748,9.68349266052246,1.5017881393432615,1.705216407775879,0.5966323614120483
3835162141.0,-0.6886523962020874,0.3193205296993255,9.993005752563477,1.3677489757537842,1.3176474571228027,0.5783693790435791
3835170474.0,-0.6944725513458252,0.5431071519851685,10.045452117919922,1.7352874279022217,1.008073806762695,0.4619526863098144
3835178807.0,-0.6181589365005493,0.4791923761367798,9.717530250549316,1.955877423286438,0.9305651783943176,0.4036547243595123
3835187140.0,-0.5731505751609802,0.2007227689027786,9.49151611328125,1.3816574811935425,0.8722415566444397,0.5722988247871399
3835195473.0,-0.5545812249183655,0.1715753823518753,9.722479820251465,1.054307460784912,0.8702179789543152,0.5289083123207092
3835203806.0,-0.6134969592094421,0.4428719282150268,9.983233451843262,1.5479450225830078,1.2746667861938477,0.5446610450744629
3835212139.0,-0.633661150932312,0.532395601272583,9.844494819641112,2.0244977474212646,1.4487667083740234,0.5263468623161316
3835220472.0,-0.6478449702262878,0.3477944731712341,9.595815658569336,1.7185872793197632,1.6391061544418335,0.4128758907318115
3835228805.0,-0.6438467502593994,0.1606956720352172,9.657424926757812,1.0146822929382324,1.4884432554244995,0.5503986477851868
3835237138.0,-0.6934906840324402,0.3020849823951721,9.999610900878906,1.2029725313186646,1.2219014167785645,0.4524241983890533
3835245471.0,-0.6907301545143127,0.4793966710567474,10.035483360290527,1.8908939361572263,1.120469093322754,0.5290107727050781
3835253804.0,-0.5959146022796631,0.4283197224140167,9.724008560180664,1.907312631607056,0.8781840205192566,0.492945909500122
3835262137.0,-0.5309484004974365,0.2430464476346969,9.584151268005373,1.3386255502700806,0.700421154499054,0.4011957347393036
3835270470.0,-0.5472998023033142,0.2754488289356231,9.754582405090332,1.077770113945007,0.8595881462097168,0.5677907466888428
3835278803.0,-0.620823323726654,0.4690477550029754,9.915006637573242,1.5122900009155271,1.3275856971740725,0.5700703859329224
3835287136.0,-0.6256651282310486,0.4175081253051758,9.737119674682615,1.9477832317352293,1.6664620637893677,0.5704033970832825
3835295469.0,-0.5943570733070374,0.2061148434877395,9.580215454101562,1.6328818798065186,1.7138227224349976,0.461081862449646
3835303802.0,-0.6377206444740295,0.1833917200565338,9.830191612243652,1.122185230255127,1.5405426025390625,0.5145643949508667
3835312135.0,-0.6700054407119751,0.4208362996578216,10.11998462677002,1.5025309324264526,1.0613514184951782,0.4853129088878631
3835320468.0,-0.6507988572120667,0.5606492757797241,9.943473815917969,2.032310485839844,0.8833581805229187,0.4904101490974426
3835328801.0,-0.5691157579421997,0.3706527650356293,9.55831527709961,1.9184036254882808,0.8233439326286316,0.4406672716140747
3835337134.0,-0.550540030002594,0.1540865451097488,9.509969711303713,1.1151925325393677,1.006844401359558,0.4703285992145538
3835345467.0,-0.5923490524291992,0.2758597135543823,9.827829360961914,1.2177774906158447,1.0493639707565308,0.5810844898223877
3835353800.0,-0.6585497260093689,0.5163057446479797,9.98524570465088,1.958208441734314,1.3416224718093872,0.5603882670402527
3835362133.0,-0.6293345093727112,0.4969829618930816,9.750533103942873,2.09783148765564,1.6276565790176392,0.5814175605773926
3835370466.0,-0.6165141463279724,0.2335190325975418,9.57255744934082,1.39548921585083,1.567488670349121,0.4709945321083069
3835378799.0,-0.6522226333618164,0.2008159756660461,9.824825286865234,1.060378074645996,1.335295557975769,0.5918168425559998
3835387132.0,-0.6934554576873779,0.3891960084438324,10.093541145324709,1.4135984182357788,1.022853136062622,0.4651288986206054
3835395465.0,-0.6303163766860962,0.4809634983539581,9.911224365234377,2.068502902984619,0.8941160440444946,0.5266286730766296
3835403798.0,-0.555385947227478,0.3062631785869598,9.5787353515625,1.748786211013794,0.949519693851471,0.5361571311950684
3835412131.0,-0.5508332848548889,0.1943141371011734,9.574352264404297,1.1944942474365234,0.9958558678627014,0.5491948127746582
3835420464.0,-0.6146338582038879,0.349109411239624,9.874600410461426,1.3129857778549194,1.24021577835083,0.489206314086914
3835428797.0,-0.659029483795166,0.4894355833530426,9.89824390411377,1.8438150882720947,1.4311697483062744,0.554676353931427
3835437130.0,-0.6544491052627563,0.3858960270881653,9.616448402404783,1.904469609260559,1.7076497077941897,0.4524241983890533
3835445463.0,-0.6412734389305115,0.1691051870584488,9.636043548583984,1.2145246267318726,1.6591107845306396,0.4232752025127411
3835453796.0,-0.6549353003501892,0.2516718208789825,9.977083206176758,1.241675615310669,1.347001314163208,0.5848242044448853
3835462129.0,-0.697639524936676,0.4986639618873596,10.096464157104492,1.7519623041152954,0.8227804899215698,0.5373610854148865
3835470462.0,-0.628044068813324,0.5281071662902832,9.77125358581543,2.081105232238769,0.8211666941642761,0.5096464157104492
3835478795.0,-0.5483443737030029,0.2705938816070556,9.47274112701416,1.536674737930298,0.8316685557365417,0.5693788528442383
3835487128.0,-0.5566912293434143,0.1486648619174957,9.634921073913574,1.002822995185852,1.216983437538147,0.50147545337677
3835495461.0,-0.6252768039703369,0.3902902007102966,10.004844665527344,1.2825303077697754,1.3501006364822388,0.587436854839325
3835503794.0,-0.637292206287384,0.5503100156784058,9.940226554870604,1.894556999206543,1.5951777696609497,0.5878466963768005
3835512127.0,-0.6442193388938904,0.4012998938560486,9.656434059143066,1.796249508857727,1.5840355157852173,0.5249381065368652
3835520460.0,-0.6507603526115417,0.1899440437555313,9.599435806274414,1.1270006895065308,1.4821163415908811,0.49335578083992
3835528793.0,-0.702778160572052,0.2519646883010864,9.927321434020996,1.0708543062210083,1.1850425004959106,0.5271408557891846
3835537126.0,-0.6907262206077576,0.4745651483535766,10.075506210327148,1.706676363945007,1.0767711400985718,0.5254504084587097
3835545459.0,-0.619026243686676,0.4518907964229584,9.76459503173828,2.0869197845458984,0.855617880821228,0.4286285936832428
3835553792.0,-0.5270911455154419,0.2650867998600006,9.537467002868652,1.454094409942627,0.968935251235962,0.4651544988155365
3835562125.0,-0.5526073575019836,0.2439833581447601,9.74819564819336,1.1127079725265503,0.9251605272293092,0.4476343393325805
3835570458.0,-0.6141873002052307,0.4336875081062317,9.963269233703612,1.4397505521774292,1.1359913349151611,0.5328272581100464
3835578791.0,-0.6213811039924622,0.4665555357933044,9.80776023864746,1.848784327507019,1.4384442567825315,0.5227353572845459
3835587124.0,-0.6238786578178406,0.2840316593647003,9.586448669433594,1.7218656539916992,1.629423975944519,0.4641555547714233
3835595457.0,-0.6384066939353943,0.155682772397995,9.741103172302246,1.2201340198516846,1.4899799823760986,0.5138471722602844
